"rt","response","trial_type","trial_index","time_elapsed","internal_node_id","stimulus","response_type","key_press","avg_frame_time","center_x","center_y","trial","block","test_pos","test_inner_radius","test_outer_radius","ref_inner_radius","ref_outer_radius","test_bigger"
"45509","{""p_id"":""5452"",""age"":""19"",""handedness"":""left"",""sex"":""female"",""other_sex"":""""}","survey-html-form","0","45513","0.0-0.0","","","","","","","","","","","","","",""
"7947.800000000745","enter","html-keyboard-response","1","53465","0.0-1.0","<p style=""color: white"">Welcome to the Size Judgment Experiment. <br>There will be 10 blocks in this experiment. <br>There will be 28 trials in each block. <br>You will be given a chance to take a break between blocks. <br>Press any key to start the experiment.</p>","","","","","","","","","","","","",""
"12189.39999999851","enter","psychophysics","2","65674","0.0-2.0","","key","enter","16.666717213114758","720","351.5","","","","","","","",""
"1124.699999999255","arrowright","psychophysics","3","66811","0.0-3.0-0.0","","key","arrowright","16.666000000000007","720","351.5","1","1","-1","20","15","25","35","false"
"null","null","psychophysics","4","67814","0.0-3.0-1.0","","key","null","16.666000000000153","720","351.5","","","","","","","",""
"566.5999999977648","arrowleft","psychophysics","5","68383","0.0-3.0-0.1","","key","arrowleft","16.666000000000086","720","351.5","2","1","-1","25","35","25","35","true"
"null","null","psychophysics","6","69386","0.0-3.0-1.1","","key","null","16.665999999999904","720","351.5","","","","","","","",""
"396.19999999925494","arrowleft","psychophysics","7","69785","0.0-3.0-0.2","","key","arrowleft","16.66599999999997","720","351.5","3","1","-1","27","35","25","35","true"
"null","null","psychophysics","8","70789","0.0-3.0-1.2","","key","null","16.665999999999904","720","351.5","","","","","","","",""
"376.69999999925494","arrowleft","psychophysics","9","71171","0.0-3.0-0.3","","key","arrowleft","16.666000000000086","720","351.5","4","1","-1","30","35","25","35","true"
"null","null","psychophysics","10","72175","0.0-3.0-1.3","","key","null","16.666000000000107","720","351.5","","","","","","","",""
"520.1000000014901","arrowright","psychophysics","11","72699","0.0-3.0-0.4","","key","arrowright","16.665999999999865","720","351.5","5","1","-1","27","15","25","35","false"
"null","null","psychophysics","12","73700","0.0-3.0-1.4","","key","null","16.666000000000153","720","351.5","","","","","","","",""
"597.4000000022352","arrowleft","psychophysics","13","74302","0.0-3.0-0.5","","key","arrowleft","16.665999999999933","720","351.5","6","1","-1","24","35","25","35","true"
"null","null","psychophysics","14","75304","0.0-3.0-1.5","","key","null","16.666000000000153","720","351.5","","","","","","","",""
"524.5","arrowright","psychophysics","15","75831","0.0-3.0-0.6","","key","arrowright","16.67445161290309","720","351.5","7","1","-1","27","15","25","35","false"
"null","null","psychophysics","16","76834","0.0-3.0-1.6","","key","null","16.666000000000153","720","351.5","","","","","","","",""
"496.19999999925494","arrowleft","psychophysics","17","77334","0.0-3.0-0.7","","key","arrowleft","16.665999999999947","720","351.5","8","1","1","30","15","25","35","false"
"null","null","psychophysics","18","78338","0.0-3.0-1.7","","key","null","16.666000000000153","720","351.5","","","","","","","",""
"2589.800000000745","arrowleft","psychophysics","19","80931","0.0-3.0-0.8","","key","arrowleft","16.665999999999972","720","351.5","9","1","-1","26","35","25","35","true"
"null","null","psychophysics","20","81933","0.0-3.0-1.8","","key","null","16.666000000000153","720","351.5","","","","","","","",""
"746.8999999985099","arrowleft","psychophysics","21","82682","0.0-3.0-0.9","","key","arrowleft","16.665999999999755","720","351.5","10","1","1","20","35","25","35","false"
"null","null","psychophysics","22","83687","0.0-3.0-1.9","","key","null","16.665999999999904","720","351.5","","","","","","","",""
"493.0999999977648","arrowright","psychophysics","23","84183","0.0-3.0-0.10","","key","arrowright","16.665999999999947","720","351.5","11","1","-1","26","15","25","35","false"
"null","null","psychophysics","24","85185","0.0-3.0-1.10","","key","null","16.665999999999904","720","351.5","","","","","","","",""
"678","arrowright","psychophysics","25","85866","0.0-3.0-0.11","","key","arrowright","16.672575000000144","720","351.5","12","1","1","25","15","25","35","true"
"null","null","psychophysics","26","86869","0.0-3.0-1.11","","key","null","16.665999999999904","720","351.5","","","","","","","",""
"705.4000000022352","arrowleft","psychophysics","27","87578","0.0-3.0-0.12","","key","arrowleft","16.66600000000021","720","351.5","13","1","1","20","15","25","35","false"
"null","null","psychophysics","28","88579","0.0-3.0-1.12","","key","null","16.665999999999904","720","351.5","","","","","","","",""
"974.1999999992549","arrowleft","psychophysics","29","89558","0.0-3.0-0.13","","key","arrowleft","16.665999999999947","720","351.5","14","1","1","23","35","25","35","false"
"null","null","psychophysics","30","90559","0.0-3.0-1.13","","key","null","16.665999999999904","720","351.5","","","","","","","",""
"452.5","arrowleft","psychophysics","31","91014","0.0-3.0-0.14","","key","arrowleft","16.66600000000024","720","351.5","15","1","1","25","15","25","35","false"
"null","null","psychophysics","32","92016","0.0-3.0-1.14","","key","null","16.666000000000153","720","351.5","","","","","","","",""
"856.5","arrowleft","psychophysics","33","92875","0.0-3.0-0.15","","key","arrowleft","16.666000000000007","720","351.5","16","1","-1","26","35","25","35","true"
"null","null","psychophysics","34","93876","0.0-3.0-1.15","","key","null","16.665999999999904","720","351.5","","","","","","","",""
"702.5","arrowleft","psychophysics","35","94581","0.0-3.0-0.16","","key","arrowleft","16.665999999999922","720","351.5","17","1","-1","27","35","25","35","true"
"null","null","psychophysics","36","95585","0.0-3.0-1.16","","key","null","16.665999999999904","720","351.5","","","","","","","",""
"505.1000000014901","arrowright","psychophysics","37","96092","0.0-3.0-0.17","","key","arrowright","16.674733333333766","720","351.5","18","1","-1","23","15","25","35","false"
"null","null","psychophysics","38","97094","0.0-3.0-1.17","","key","null","16.665999999999904","720","351.5","","","","","","","",""
"731.6999999992549","arrowleft","psychophysics","39","97829","0.0-3.0-0.18","","key","arrowleft","16.666000000000146","720","351.5","19","1","-1","24","35","25","35","true"
"null","null","psychophysics","40","98830","0.0-3.0-1.18","","key","null","16.665999999999904","720","351.5","","","","","","","",""
"816","arrowleft","psychophysics","41","99649","0.0-3.0-0.19","","key","arrowleft","16.665999999999865","720","351.5","20","1","-1","24","15","25","35","true"
"null","null","psychophysics","42","100652","0.0-3.0-1.19","","key","null","16.666000000000153","720","351.5","","","","","","","",""
"1201.0999999977648","arrowleft","psychophysics","43","101858","0.0-3.0-0.20","","key","arrowleft","16.665999999999865","720","351.5","21","1","-1","20","15","25","35","true"
"null","null","psychophysics","44","102859","0.0-3.0-1.20","","key","null","16.665999999999904","720","351.5","","","","","","","",""
"763.8000000007451","arrowright","psychophysics","45","103626","0.0-3.0-0.21","","key","arrowright","16.666000000000025","720","351.5","22","1","1","24","15","25","35","true"
"null","null","psychophysics","46","104628","0.0-3.0-1.21","","key","null","16.666000000000153","720","351.5","","","","","","","",""
"754","arrowleft","psychophysics","47","105385","0.0-3.0-0.22","","key","arrowleft","16.666000000000086","720","351.5","23","1","-1","27","35","25","35","true"
"null","null","psychophysics","48","106387","0.0-3.0-1.22","","key","null","16.670457627118655","720","351.5","","","","","","","",""
"546.5","arrowright","psychophysics","49","106938","0.0-3.0-0.23","","key","arrowright","16.666000000000167","720","351.5","24","1","1","24","15","25","35","true"
"null","null","psychophysics","50","107942","0.0-3.0-1.23","","key","null","16.665999999999865","720","351.5","","","","","","","",""
"678.1000000014901","arrowright","psychophysics","51","108623","0.0-3.0-0.24","","key","arrowright","16.66600000000005","720","351.5","25","1","1","27","15","25","35","true"
"null","null","psychophysics","52","109624","0.0-3.0-1.24","","key","null","16.666000000000107","720","351.5","","","","","","","",""
"701.6000000014901","arrowright","psychophysics","53","110329","0.0-3.0-0.25","","key","arrowright","16.665999999999922","720","351.5","26","1","1","24","35","25","35","true"
"null","null","psychophysics","54","111331","0.0-3.0-1.25","","key","null","16.665999999999904","720","351.5","","","","","","","",""
"665.3999999985099","arrowright","psychophysics","55","111998","0.0-3.0-0.26","","key","arrowright","16.66600000000005","720","351.5","27","1","1","26","35","25","35","true"
"null","null","psychophysics","56","113002","0.0-3.0-1.26","","key","null","16.666000000000153","720","351.5","","","","","","","",""
"503.5","arrowright","psychophysics","57","113508","0.0-3.0-0.27","","key","arrowright","16.665999999999865","720","351.5","28","2","1","26","15","25","35","true"
"null","null","psychophysics","58","114510","0.0-3.0-1.27","","key","null","16.666000000000153","720","351.5","","","","","","","",""
"23399.5","enter","html-keyboard-response","59","137911","0.0-3.0-2.27-0.27","<div style=""color: white; text-align: center; vertical-align: top; display: inline-block; width: 800px; margin: auto""><p>You have completed 10% of the trials. You are on block 2 of 10. <br>Good job! Take a break if you need to.</p><p>Press any key to continue the experiment.</p></div>","","","","","","","","","","","","",""
"1059.5999999977648","arrowleft","psychophysics","60","139980","0.0-3.0-0.28","","key","arrowleft","16.665999999999713","720","351.5","29","2","-1","30","35","25","35","true"
"null","null","psychophysics","61","140982","0.0-3.0-1.28","","key","null","16.665999999999904","720","351.5","","","","","","","",""
"446.30000000074506","arrowleft","psychophysics","62","141432","0.0-3.0-0.29","","key","arrowleft","16.665999999999677","720","351.5","30","2","-1","26","35","25","35","true"
"null","null","psychophysics","63","142435","0.0-3.0-1.29","","key","null","16.665999999999904","720","351.5","","","","","","","",""
"496.3999999985099","arrowleft","psychophysics","64","142934","0.0-3.0-0.30","","key","arrowleft","16.666000000000448","720","351.5","31","2","-1","25","35","25","35","true"
"null","null","psychophysics","65","143936","0.0-3.0-1.30","","key","null","16.665999999999904","720","351.5","","","","","","","",""
"447.0999999977648","arrowleft","psychophysics","66","144387","0.0-3.0-0.31","","key","arrowleft","16.665999999999677","720","351.5","32","2","-1","30","15","25","35","true"
"null","null","psychophysics","67","145391","0.0-3.0-1.31","","key","null","16.6660000000004","720","351.5","","","","","","","",""
"384.4000000022352","arrowright","psychophysics","68","145781","0.0-3.0-0.32","","key","arrowright","16.66599999999997","720","351.5","33","2","-1","24","15","25","35","false"
"null","null","psychophysics","69","146782","0.0-3.0-1.32","","key","null","16.670457627118655","720","351.5","","","","","","","",""
"749.6999999992549","arrowright","psychophysics","70","147534","0.0-3.0-0.33","","key","arrowright","16.666000000000086","720","351.5","34","2","1","26","35","25","35","true"
"null","null","psychophysics","71","148535","0.0-3.0-1.33","","key","null","16.665999999999904","720","351.5","","","","","","","",""
"559.8000000007451","arrowright","psychophysics","72","149098","0.0-3.0-0.34","","key","arrowright","16.666000000000086","720","351.5","35","2","1","27","35","25","35","true"
"null","null","psychophysics","73","150099","0.0-3.0-1.34","","key","null","16.665999999999904","720","351.5","","","","","","","",""
"677.2999999970198","arrowright","psychophysics","74","150781","0.0-3.0-0.35","","key","arrowright","16.66600000000035","720","351.5","36","2","1","26","35","25","35","true"
"null","null","psychophysics","75","151783","0.0-3.0-1.35","","key","null","16.665999999999904","720","351.5","","","","","","","",""
"768.3000000007451","arrowleft","psychophysics","76","152554","0.0-3.0-0.36","","key","arrowleft","16.666000000000025","720","351.5","37","2","1","24","35","25","35","false"
"null","null","psychophysics","77","153555","0.0-3.0-1.36","","key","null","16.6660000000004","720","351.5","","","","","","","",""
"674.6999999992549","arrowleft","psychophysics","78","154235","0.0-3.0-0.37","","key","arrowleft","16.66599999999962","720","351.5","38","2","-1","23","15","25","35","true"
"null","null","psychophysics","79","155238","0.0-3.0-1.37","","key","null","16.665999999999904","720","351.5","","","","","","","",""
"621.9000000022352","arrowleft","psychophysics","80","155863","0.0-3.0-0.38","","key","arrowleft","16.665999999999798","720","351.5","39","2","-1","24","15","25","35","true"
"null","null","psychophysics","81","156866","0.0-3.0-1.38","","key","null","16.6704406779658","720","351.5","","","","","","","",""
"790.5","arrowright","psychophysics","82","157659","0.0-3.0-0.39","","key","arrowright","16.665999999999915","720","351.5","40","2","1","23","15","25","35","true"
"null","null","psychophysics","83","158660","0.0-3.0-1.39","","key","null","16.665999999999904","720","351.5","","","","","","","",""
"807.2999999970198","arrowright","psychophysics","84","159470","0.0-3.0-0.40","","key","arrowright","16.665999999999915","720","351.5","41","2","-1","23","35","25","35","false"
"null","null","psychophysics","85","160472","0.0-3.0-1.40","","key","null","16.665999999999904","720","351.5","","","","","","","",""
"1019.4000000022352","arrowright","psychophysics","86","161496","0.0-3.0-0.41","","key","arrowright","16.665999999999823","720","351.5","42","2","1","23","15","25","35","true"
"null","null","psychophysics","87","162499","0.0-3.0-1.41","","key","null","16.665999999999904","720","351.5","","","","","","","",""
"713.5","arrowleft","psychophysics","88","163215","0.0-3.0-0.42","","key","arrowleft","16.66600000000021","720","351.5","43","2","-1","30","35","25","35","true"
"null","null","psychophysics","89","164216","0.0-3.0-1.42","","key","null","16.665999999999904","720","351.5","","","","","","","",""
"534.1000000014901","arrowleft","psychophysics","90","164752","0.0-3.0-0.43","","key","arrowleft","16.666000000000256","720","351.5","44","2","-1","30","15","25","35","true"
"null","null","psychophysics","91","165753","0.0-3.0-1.43","","key","null","16.665999999999904","720","351.5","","","","","","","",""
"556.1999999992549","arrowright","psychophysics","92","166312","0.0-3.0-0.44","","key","arrowright","16.666000000000086","720","351.5","45","2","1","30","35","25","35","true"
"null","null","psychophysics","93","167312","0.0-3.0-1.44","","key","null","16.670457627118655","720","351.5","","","","","","","",""
"483","arrowleft","psychophysics","94","167799","0.0-3.0-0.45","","key","arrowleft","16.665999999999517","720","351.5","46","2","1","24","15","25","35","false"
"null","null","psychophysics","95","168801","0.0-3.0-1.45","","key","null","16.665999999999904","720","351.5","","","","","","","",""
"595.6999999992549","arrowright","psychophysics","96","169399","0.0-3.0-0.46","","key","arrowright","16.665999999999933","720","351.5","47","2","1","25","15","25","35","true"
"null","null","psychophysics","97","170401","0.0-3.0-1.46","","key","null","16.665999999999904","720","351.5","","","","","","","",""
"731.1999999992549","arrowleft","psychophysics","98","171135","0.0-3.0-0.47","","key","arrowleft","16.666000000000146","720","351.5","48","2","-1","25","15","25","35","true"
"null","null","psychophysics","99","172136","0.0-3.0-1.47","","key","null","16.665999999999904","720","351.5","","","","","","","",""
"807.6999999992549","arrowleft","psychophysics","100","172946","0.0-3.0-0.48","","key","arrowleft","16.665999999999865","720","351.5","49","2","-1","25","15","25","35","true"
"null","null","psychophysics","101","173951","0.0-3.0-1.48","","key","null","16.665999999999904","720","351.5","","","","","","","",""
"787.6999999992549","arrowleft","psychophysics","102","174741","0.0-3.0-0.49","","key","arrowleft","16.665999999999915","720","351.5","50","2","1","20","35","25","35","false"
"null","null","psychophysics","103","175743","0.0-3.0-1.49","","key","null","16.665999999999904","720","351.5","","","","","","","",""
"1108.199999999255","arrowright","psychophysics","104","176854","0.0-3.0-0.50","","key","arrowright","16.67003076923071","720","351.5","51","2","1","24","15","25","35","true"
"null","null","psychophysics","105","177855","0.0-3.0-1.50","","key","null","16.665999999999904","720","351.5","","","","","","","",""
"891.8000000007451","arrowright","psychophysics","106","178751","0.0-3.0-0.51","","key","arrowright","16.665999999999634","720","351.5","52","2","1","30","15","25","35","true"
"null","null","psychophysics","107","179755","0.0-3.0-1.51","","key","null","16.6660000000004","720","351.5","","","","","","","",""
"1135.9000000022352","arrowright","psychophysics","108","180896","0.0-3.0-0.52","","key","arrowright","16.666000000000007","720","351.5","53","2","-1","20","35","25","35","false"
"null","null","psychophysics","109","181897","0.0-3.0-1.52","","key","null","16.665999999999904","720","351.5","","","","","","","",""
"766.3000000007451","arrowright","psychophysics","110","182666","0.0-3.0-0.53","","key","arrowright","16.666000000000025","720","351.5","54","2","-1","20","15","25","35","false"
"null","null","psychophysics","111","183668","0.0-3.0-1.53","","key","null","16.665999999999904","720","351.5","","","","","","","",""
"860.5","arrowleft","psychophysics","112","184531","0.0-3.0-0.54","","key","arrowleft","16.66600000000029","720","351.5","55","2","1","23","35","25","35","false"
"null","null","psychophysics","113","185535","0.0-3.0-1.54","","key","null","16.665999999999904","720","351.5","","","","","","","",""
"697.1000000014901","arrowright","psychophysics","114","186235","0.0-3.0-0.55","","key","arrowright","16.666000000000277","720","351.5","56","3","-1","20","15","25","35","false"
"null","null","psychophysics","115","187239","0.0-3.0-1.55","","key","null","16.670457627118655","720","351.5","","","","","","","",""
"49534.5"," ","html-keyboard-response","116","236776","0.0-3.0-2.55-0.55","<div style=""color: white; text-align: center; vertical-align: top; display: inline-block; width: 800px; margin: auto""><p>You have completed 20% of the trials. You are on block 3 of 10. <br>Good job! Take a break if you need to.</p><p>Press any key to continue the experiment.</p></div>","","","","","","","","","","","","",""
"1416.300000000745","arrowright","psychophysics","117","239201","0.0-3.0-0.56","","key","arrowright","16.681435294117545","720","351.5","57","3","1","25","35","25","35","true"
"null","null","psychophysics","118","240204","0.0-3.0-1.56","","key","null","16.665999999999904","720","351.5","","","","","","","",""
"514","arrowleft","psychophysics","119","240723","0.0-3.0-0.57","","key","arrowleft","16.66600000000035","720","351.5","58","3","-1","26","15","25","35","true"
"null","null","psychophysics","120","241726","0.0-3.0-1.57","","key","null","16.665999999999865","720","351.5","","","","","","","",""
"656.0999999977648","arrowleft","psychophysics","121","242385","0.0-3.0-0.58","","key","arrowleft","16.6660000000005","720","351.5","59","3","1","20","35","25","35","false"
"null","null","psychophysics","122","243389","0.0-3.0-1.58","","key","null","16.665999999999904","720","351.5","","","","","","","",""
"563","arrowleft","psychophysics","123","243955","0.0-3.0-0.59","","key","arrowleft","16.666000000000086","720","351.5","60","3","-1","25","35","25","35","true"
"null","null","psychophysics","124","244959","0.0-3.0-1.59","","key","null","16.665999999999865","720","351.5","","","","","","","",""
"466.0999999977648","arrowright","psychophysics","125","245427","0.0-3.0-0.60","","key","arrowright","16.665999999999595","720","351.5","61","3","-1","20","15","25","35","false"
"null","null","psychophysics","126","246428","0.0-3.0-1.60","","key","null","16.665999999999904","720","351.5","","","","","","","",""
"581.7999999970198","arrowleft","psychophysics","127","247013","0.0-3.0-0.61","","key","arrowleft","16.67370588235345","720","351.5","62","3","-1","23","15","25","35","true"
"null","null","psychophysics","128","248014","0.0-3.0-1.61","","key","null","16.665999999999904","720","351.5","","","","","","","",""
"501.30000000074506","arrowleft","psychophysics","129","248520","0.0-3.0-0.62","","key","arrowleft","16.666000000000448","720","351.5","63","3","-1","27","15","25","35","true"
"null","null","psychophysics","130","249522","0.0-3.0-1.62","","key","null","16.665999999999904","720","351.5","","","","","","","",""
"585.4000000022352","arrowright","psychophysics","131","250111","0.0-3.0-0.63","","key","arrowright","16.665999999999933","720","351.5","64","3","1","26","15","25","35","true"
"null","null","psychophysics","132","251113","0.0-3.0-1.63","","key","null","16.665999999999904","720","351.5","","","","","","","",""
"601.7999999970198","arrowleft","psychophysics","133","251717","0.0-3.0-0.64","","key","arrowleft","16.666000000000764","720","351.5","65","3","-1","24","35","25","35","true"
"null","null","psychophysics","134","252719","0.0-3.0-1.64","","key","null","16.665999999999904","720","351.5","","","","","","","",""
"628.1999999992549","arrowright","psychophysics","135","253349","0.0-3.0-0.65","","key","arrowright","16.665999999999798","720","351.5","66","3","1","30","15","25","35","true"
"null","null","psychophysics","136","254354","0.0-3.0-1.65","","key","null","16.665999999999904","720","351.5","","","","","","","",""
"839.8000000007451","arrowright","psychophysics","137","255196","0.0-3.0-0.66","","key","arrowright","16.665999999999766","720","351.5","67","3","-1","24","35","25","35","false"
"null","null","psychophysics","138","256198","0.0-3.0-1.66","","key","null","16.665999999999904","720","351.5","","","","","","","",""
"762.1000000014901","arrowright","psychophysics","139","256962","0.0-3.0-0.67","","key","arrowright","16.67184444444461","720","351.5","68","3","1","24","15","25","35","true"
"null","null","psychophysics","140","257964","0.0-3.0-1.67","","key","null","16.665999999999904","720","351.5","","","","","","","",""
"550.3999999985099","arrowleft","psychophysics","141","258521","0.0-3.0-0.68","","key","arrowleft","16.666000000000167","720","351.5","69","3","-1","30","15","25","35","true"
"null","null","psychophysics","142","259522","0.0-3.0-1.68","","key","null","16.665999999999904","720","351.5","","","","","","","",""
"605.9000000022352","arrowright","psychophysics","143","260136","0.0-3.0-0.69","","key","arrowright","16.665999999999865","720","351.5","70","3","1","30","35","25","35","true"
"null","null","psychophysics","144","261139","0.0-3.0-1.69","","key","null","16.665999999999904","720","351.5","","","","","","","",""
"510.80000000074506","arrowright","psychophysics","145","261653","0.0-3.0-0.70","","key","arrowright","16.66599999999938","720","351.5","71","3","1","30","15","25","35","true"
"null","null","psychophysics","146","262656","0.0-3.0-1.70","","key","null","16.666000000000892","720","351.5","","","","","","","",""
"1042.3999999985099","arrowleft","psychophysics","147","263701","0.0-3.0-0.71","","key","arrowleft","16.666000000000256","720","351.5","72","3","1","23","35","25","35","false"
"null","null","psychophysics","148","264703","0.0-3.0-1.71","","key","null","16.665999999999904","720","351.5","","","","","","","",""
"612.1999999992549","arrowright","psychophysics","149","265319","0.0-3.0-0.72","","key","arrowright","16.666000000000672","720","351.5","73","3","1","24","15","25","35","true"
"null","null","psychophysics","150","266324","0.0-3.0-1.72","","key","null","16.665999999999904","720","351.5","","","","","","","",""
"600.3000000007451","arrowright","psychophysics","151","266929","0.0-3.0-0.73","","key","arrowright","16.665999999999055","720","351.5","74","3","-1","25","35","25","35","false"
"null","null","psychophysics","152","267930","0.0-3.0-1.73","","key","null","16.665999999999904","720","351.5","","","","","","","",""
"1270.1000000014901","arrowleft","psychophysics","153","269202","0.0-3.0-0.74","","key","arrowleft","16.666000000000157","720","351.5","75","3","1","20","15","25","35","false"
"null","null","psychophysics","154","270205","0.0-3.0-1.74","","key","null","16.665999999999904","720","351.5","","","","","","","",""
"638.6000000014901","arrowright","psychophysics","155","270846","0.0-3.0-0.75","","key","arrowright","16.66599999999897","720","351.5","76","3","-1","23","35","25","35","false"
"null","null","psychophysics","156","271847","0.0-3.0-1.75","","key","null","17.878072727272627","720","351.5","","","","","","","",""
"562.3000000007451","arrowright","psychophysics","157","272414","0.0-3.0-0.76","","key","arrowright","16.666000000000086","720","351.5","77","3","-1","20","35","25","35","false"
"null","null","psychophysics","158","273416","0.0-3.0-1.76","","key","null","16.665999999999904","720","351.5","","","","","","","",""
"547.2000000029802","arrowright","psychophysics","159","273965","0.0-3.0-0.77","","key","arrowright","16.665999999999258","720","351.5","78","3","1","30","15","25","35","true"
"null","null","psychophysics","160","274967","0.0-3.0-1.77","","key","null","16.665999999999904","720","351.5","","","","","","","",""
"613.6999999992549","arrowleft","psychophysics","161","275583","0.0-3.0-0.78","","key","arrowleft","16.666000000000672","720","351.5","79","3","-1","23","15","25","35","true"
"null","null","psychophysics","162","276587","0.0-3.0-1.78","","key","null","16.666000000000892","720","351.5","","","","","","","",""
"496.69999999925494","arrowleft","psychophysics","163","277086","0.0-3.0-0.79","","key","arrowleft","16.675068965516903","720","351.5","80","3","1","23","35","25","35","false"
"null","null","psychophysics","164","278089","0.0-3.0-1.79","","key","null","16.665999999999904","720","351.5","","","","","","","",""
"451.6000000014901","arrowleft","psychophysics","165","278548","0.0-3.0-0.80","","key","arrowleft","16.666000000000672","720","351.5","81","3","-1","27","35","25","35","true"
"null","null","psychophysics","166","279551","0.0-3.0-1.80","","key","null","16.665999999999904","720","351.5","","","","","","","",""
"432.30000000074506","arrowleft","psychophysics","167","279985","0.0-3.0-0.81","","key","arrowleft","16.66600000000093","720","351.5","82","3","1","23","35","25","35","false"
"null","null","psychophysics","168","280988","0.0-3.0-1.81","","key","null","16.666000000000892","720","351.5","","","","","","","",""
"1122","arrowleft","psychophysics","169","282113","0.0-3.0-0.82","","key","arrowleft","16.66600000000048","720","351.5","83","3","1","20","15","25","35","false"
"null","null","psychophysics","170","283114","0.0-3.0-1.82","","key","null","16.665999999999904","720","351.5","","","","","","","",""
"584.6000000014901","arrowright","psychophysics","171","283701","0.0-3.0-0.83","","key","arrowright","16.66599999999915","720","351.5","84","4","1","24","15","25","35","true"
"null","null","psychophysics","172","284703","0.0-3.0-1.83","","key","null","16.665999999999904","720","351.5","","","","","","","",""
"2107.5","enter","html-keyboard-response","173","286815","0.0-3.0-2.83-0.83","<div style=""color: white; text-align: center; vertical-align: top; display: inline-block; width: 800px; margin: auto""><p>You have completed 30% of the trials. You are on block 4 of 10. <br>Good job! Take a break if you need to.</p><p>Press any key to continue the experiment.</p></div>","","","","","","","","","","","","",""
"533.7999999970198","arrowleft","psychophysics","174","288360","0.0-3.0-0.84","","key","arrowleft","16.67463636363567","720","351.5","85","4","-1","30","35","25","35","true"
"null","null","psychophysics","175","289361","0.0-3.0-1.84","","key","null","16.666000000000892","720","351.5","","","","","","","",""
"456.80000000074506","arrowleft","psychophysics","176","289820","0.0-3.0-0.85","","key","arrowleft","16.665999999999677","720","351.5","86","4","1","20","15","25","35","false"
"null","null","psychophysics","177","290823","0.0-3.0-1.85","","key","null","16.665999999999904","720","351.5","","","","","","","",""
"1247.5999999977648","arrowright","psychophysics","178","292079","0.0-3.0-0.86","","key","arrowright","16.666000000000157","720","351.5","87","4","1","23","15","25","35","true"
"null","null","psychophysics","179","293081","0.0-3.0-1.86","","key","null","16.665999999999904","720","351.5","","","","","","","",""
"809.6000000014901","arrowright","psychophysics","180","293893","0.0-3.0-0.87","","key","arrowright","16.666000000001077","720","351.5","88","4","1","25","15","25","35","true"
"null","null","psychophysics","181","294894","0.0-3.0-1.87","","key","null","16.665999999999904","720","351.5","","","","","","","",""
"633.7999999970198","arrowright","psychophysics","182","295530","0.0-3.0-0.88","","key","arrowright","16.665999999999798","720","351.5","89","4","1","26","15","25","35","true"
"null","null","psychophysics","183","296532","0.0-3.0-1.88","","key","null","16.666000000000892","720","351.5","","","","","","","",""
"593.0999999977648","arrowleft","psychophysics","184","297127","0.0-3.0-0.89","","key","arrowleft","16.665999999999933","720","351.5","90","4","-1","24","15","25","35","true"
"null","null","psychophysics","185","298132","0.0-3.0-1.89","","key","null","16.670457627118164","720","351.5","","","","","","","",""
"442.3999999985099","arrowleft","psychophysics","186","298577","0.0-3.0-0.90","","key","arrowleft","16.665999999999677","720","351.5","91","4","-1","27","35","25","35","true"
"null","null","psychophysics","187","299579","0.0-3.0-1.90","","key","null","16.665999999999904","720","351.5","","","","","","","",""
"635.7000000029802","arrowleft","psychophysics","188","300217","0.0-3.0-0.91","","key","arrowleft","16.665999999999798","720","351.5","92","4","-1","23","35","25","35","true"
"null","null","psychophysics","189","301219","0.0-3.0-1.91","","key","null","16.665999999999904","720","351.5","","","","","","","",""
"598.5999999977648","arrowright","psychophysics","190","301820","0.0-3.0-0.92","","key","arrowright","16.665999999999933","720","351.5","93","4","-1","20","35","25","35","false"
"null","null","psychophysics","191","302823","0.0-3.0-1.92","","key","null","16.665999999999904","720","351.5","","","","","","","",""
"970.6000000014901","arrowleft","psychophysics","192","303802","0.0-3.0-0.93","","key","arrowleft","16.665999999999446","720","351.5","94","4","1","24","35","25","35","false"
"null","null","psychophysics","193","304804","0.0-3.0-1.93","","key","null","16.665999999999904","720","351.5","","","","","","","",""
"522.6000000014901","arrowright","psychophysics","194","305329","0.0-3.0-0.94","","key","arrowright","16.666000000000256","720","351.5","95","4","-1","20","15","25","35","false"
"null","null","psychophysics","195","306331","0.0-3.0-1.94","","key","null","16.665999999999904","720","351.5","","","","","","","",""
"449.3999999985099","arrowleft","psychophysics","196","306783","0.0-3.0-0.95","","key","arrowleft","16.665999999999677","720","351.5","96","4","-1","30","35","25","35","true"
"null","null","psychophysics","197","307786","0.0-3.0-1.95","","key","null","16.665999999999904","720","351.5","","","","","","","",""
"494.80000000074506","arrowright","psychophysics","198","308283","0.0-3.0-0.96","","key","arrowright","16.675034482758655","720","351.5","97","4","-1","20","35","25","35","false"
"null","null","psychophysics","199","309286","0.0-3.0-1.96","","key","null","16.665999999999904","720","351.5","","","","","","","",""
"443.20000000298023","arrowleft","psychophysics","200","309735","0.0-3.0-0.97","","key","arrowleft","16.665999999999677","720","351.5","98","4","1","26","35","25","35","false"
"null","null","psychophysics","201","310739","0.0-3.0-1.97","","key","null","16.666000000000892","720","351.5","","","","","","","",""
"469.8999999985099","arrowleft","psychophysics","202","311211","0.0-3.0-0.98","","key","arrowleft","16.665999999999517","720","351.5","99","4","1","30","35","25","35","false"
"null","null","psychophysics","203","312213","0.0-3.0-1.98","","key","null","16.665999999999904","720","351.5","","","","","","","",""
"606.3999999985099","arrowleft","psychophysics","204","312821","0.0-3.0-0.99","","key","arrowleft","16.665999999999933","720","351.5","100","4","1","20","35","25","35","false"
"null","null","psychophysics","205","313823","0.0-3.0-1.99","","key","null","16.665999999999904","720","351.5","","","","","","","",""
"658.6999999992549","arrowleft","psychophysics","206","314485","0.0-3.0-0.100","","key","arrowleft","16.665999999999677","720","351.5","101","4","1","24","35","25","35","false"
"null","null","psychophysics","207","315488","0.0-3.0-1.100","","key","null","16.665999999999904","720","351.5","","","","","","","",""
"667.8999999985099","arrowleft","psychophysics","208","316164","0.0-3.0-0.101","","key","arrowleft","16.66600000000035","720","351.5","102","4","-1","30","15","25","35","true"
"null","null","psychophysics","209","317165","0.0-3.0-1.101","","key","null","16.666000000000892","720","351.5","","","","","","","",""
"450.80000000074506","arrowleft","psychophysics","210","317618","0.0-3.0-0.102","","key","arrowleft","16.665999999999677","720","351.5","103","4","-1","26","35","25","35","true"
"null","null","psychophysics","211","318622","0.0-3.0-1.102","","key","null","16.670457627118164","720","351.5","","","","","","","",""
"784.2999999970198","arrowleft","psychophysics","212","319412","0.0-3.0-0.103","","key","arrowleft","16.665999999999297","720","351.5","104","4","-1","26","15","25","35","true"
"null","null","psychophysics","213","320414","0.0-3.0-1.103","","key","null","16.665999999999904","720","351.5","","","","","","","",""
"952.5","arrowright","psychophysics","214","321369","0.0-3.0-0.104","","key","arrowright","16.665999999999517","720","351.5","105","4","1","24","35","25","35","true"
"null","null","psychophysics","215","322375","0.0-3.0-1.104","","key","null","16.66599999999938","720","351.5","","","","","","","",""
"550.1999999992549","arrowleft","psychophysics","216","322928","0.0-3.0-0.105","","key","arrowleft","16.665999999999258","720","351.5","106","4","-1","27","15","25","35","true"
"null","null","psychophysics","217","323930","0.0-3.0-1.105","","key","null","16.665999999999904","720","351.5","","","","","","","",""
"864.4000000022352","arrowright","psychophysics","218","324796","0.0-3.0-0.106","","key","arrowright","16.66600000000029","720","351.5","107","4","-1","26","35","25","35","false"
"null","null","psychophysics","219","325798","0.0-3.0-1.106","","key","null","16.665999999999904","720","351.5","","","","","","","",""
"772.6000000014901","arrowleft","psychophysics","220","326573","0.0-3.0-0.107","","key","arrowleft","16.666000000000672","720","351.5","108","4","-1","26","35","25","35","true"
"null","null","psychophysics","221","327575","0.0-3.0-1.107","","key","null","16.66600000000035","720","351.5","","","","","","","",""
"969.4000000022352","arrowleft","psychophysics","222","328550","0.0-3.0-0.108","","key","arrowleft","16.67059649122785","720","351.5","109","4","1","20","15","25","35","false"
"null","null","psychophysics","223","329553","0.0-3.0-1.108","","key","null","16.665999999999904","720","351.5","","","","","","","",""
"440.20000000298023","arrowleft","psychophysics","224","329996","0.0-3.0-0.109","","key","arrowleft","16.665999999999677","720","351.5","110","4","1","26","15","25","35","false"
"null","null","psychophysics","225","330997","0.0-3.0-1.109","","key","null","16.665999999999904","720","351.5","","","","","","","",""
"757.2000000029802","arrowright","psychophysics","226","331757","0.0-3.0-0.110","","key","arrowright","16.666000000000086","720","351.5","111","4","1","20","15","25","35","true"
"null","null","psychophysics","227","332758","0.0-3.0-1.110","","key","null","16.665999999999904","720","351.5","","","","","","","",""
"772.8999999985099","arrowleft","psychophysics","228","333536","0.0-3.0-0.111","","key","arrowleft","16.66599999999997","720","351.5","112","5","1","20","35","25","35","false"
"null","null","psychophysics","229","334541","0.0-3.0-1.111","","key","null","16.665999999999904","720","351.5","","","","","","","",""
"27509.699999999255","arrowright","html-keyboard-response","230","362061","0.0-3.0-2.111-0.111","<div style=""color: white; text-align: center; vertical-align: top; display: inline-block; width: 800px; margin: auto""><p>You have completed 40% of the trials. You are on block 5 of 10. <br>Good job! Take a break if you need to.</p><p>Press any key to continue the experiment.</p></div>","","","","","","","","","","","","",""
"769.2999999970198","arrowright","psychophysics","231","363838","0.0-3.0-0.112","","key","arrowright","16.6853913043489","720","351.5","113","5","-1","20","15","25","35","false"
"null","null","psychophysics","232","364840","0.0-3.0-1.112","","key","null","16.665999999999904","720","351.5","","","","","","","",""
"620.5","arrowright","psychophysics","233","365464","0.0-3.0-0.113","","key","arrowright","16.665999999999055","720","351.5","114","5","1","27","15","25","35","true"
"null","null","psychophysics","234","366467","0.0-3.0-1.113","","key","null","16.665999999999904","720","351.5","","","","","","","",""
"493.1000000014901","arrowright","psychophysics","235","366964","0.0-3.0-0.114","","key","arrowright","16.666000000000448","720","351.5","115","5","1","30","15","25","35","true"
"null","null","psychophysics","236","367966","0.0-3.0-1.114","","key","null","16.66599999999938","720","351.5","","","","","","","",""
"594.6000000014901","arrowright","psychophysics","237","368566","0.0-3.0-0.115","","key","arrowright","16.665999999999933","720","351.5","116","5","1","27","35","25","35","true"
"null","null","psychophysics","238","369568","0.0-3.0-1.115","","key","null","16.665999999999904","720","351.5","","","","","","","",""
"640.4000000059605","arrowright","psychophysics","239","370211","0.0-3.0-0.116","","key","arrowright","16.665999999999798","720","351.5","117","5","1","27","15","25","35","true"
"null","null","psychophysics","240","371213","0.0-3.0-1.116","","key","null","16.665999999999904","720","351.5","","","","","","","",""
"680.8999999985099","arrowleft","psychophysics","241","371896","0.0-3.0-0.117","","key","arrowleft","16.66600000000035","720","351.5","118","5","1","20","15","25","35","false"
"null","null","psychophysics","242","372899","0.0-3.0-1.117","","key","null","16.670457627118164","720","351.5","","","","","","","",""
"628","arrowright","psychophysics","243","373536","0.0-3.0-0.118","","key","arrowright","16.6660000000005","720","351.5","119","5","1","25","15","25","35","true"
"null","null","psychophysics","244","374537","0.0-3.0-1.118","","key","null","16.665999999999904","720","351.5","","","","","","","",""
"709.1999999955297","arrowright","psychophysics","245","375251","0.0-3.0-0.119","","key","arrowright","16.665999999999567","720","351.5","120","5","1","23","15","25","35","true"
"null","null","psychophysics","246","376252","0.0-3.0-1.119","","key","null","16.66599999999938","720","351.5","","","","","","","",""
"575.0999999940395","arrowleft","psychophysics","247","376829","0.0-3.0-0.120","","key","arrowleft","16.666000000000086","720","351.5","121","5","-1","30","15","25","35","true"
"null","null","psychophysics","248","377830","0.0-3.0-1.120","","key","null","16.665999999999904","720","351.5","","","","","","","",""
"465","arrowleft","psychophysics","249","378298","0.0-3.0-0.121","","key","arrowleft","16.666000000000672","720","351.5","122","5","-1","27","15","25","35","true"
"null","null","psychophysics","250","379300","0.0-3.0-1.121","","key","null","16.665999999999904","720","351.5","","","","","","","",""
"926.2999999970198","arrowleft","psychophysics","251","380231","0.0-3.0-0.122","","key","arrowleft","16.666000000000086","720","351.5","123","5","1","20","35","25","35","false"
"null","null","psychophysics","252","381236","0.0-3.0-1.122","","key","null","16.66600000000035","720","351.5","","","","","","","",""
"475.79999999701977","arrowleft","psychophysics","253","381714","0.0-3.0-0.123","","key","arrowleft","16.666000000000672","720","351.5","124","5","1","20","15","25","35","false"
"null","null","psychophysics","254","382716","0.0-3.0-1.123","","key","null","16.6704406779658","720","351.5","","","","","","","",""
"681.8000000044703","arrowright","psychophysics","255","383403","0.0-3.0-0.124","","key","arrowright","16.666000000000988","720","351.5","125","5","1","25","35","25","35","true"
"null","null","psychophysics","256","384404","0.0-3.0-1.124","","key","null","16.665999999999904","720","351.5","","","","","","","",""
"592","arrowleft","psychophysics","257","384998","0.0-3.0-0.125","","key","arrowleft","16.66599999999915","720","351.5","126","5","1","20","35","25","35","false"
"null","null","psychophysics","258","386000","0.0-3.0-1.125","","key","null","16.665999999999904","720","351.5","","","","","","","",""
"604.7999999970198","arrowleft","psychophysics","259","386617","0.0-3.0-0.126","","key","arrowleft","16.665999999999055","720","351.5","127","5","1","20","35","25","35","false"
"null","null","psychophysics","260","387618","0.0-3.0-1.126","","key","null","16.66599999999938","720","351.5","","","","","","","",""
"564.2999999970198","arrowright","psychophysics","261","388186","0.0-3.0-0.127","","key","arrowright","16.666000000000086","720","351.5","128","5","1","26","35","25","35","true"
"null","null","psychophysics","262","389187","0.0-3.0-1.127","","key","null","16.666000000000892","720","351.5","","","","","","","",""
"665.5","arrowright","psychophysics","263","389855","0.0-3.0-0.128","","key","arrowright","16.665999999999677","720","351.5","129","5","1","26","15","25","35","true"
"null","null","psychophysics","264","390856","0.0-3.0-1.128","","key","null","16.665999999999904","720","351.5","","","","","","","",""
"556","arrowright","psychophysics","265","391414","0.0-3.0-0.129","","key","arrowright","16.666000000001077","720","351.5","130","5","-1","20","35","25","35","false"
"null","null","psychophysics","266","392417","0.0-3.0-1.129","","key","null","16.67045762711915","720","351.5","","","","","","","",""
"775.0999999940395","arrowleft","psychophysics","267","393200","0.0-3.0-0.130","","key","arrowleft","16.66599999999997","720","351.5","131","5","-1","24","15","25","35","true"
"null","null","psychophysics","268","394201","0.0-3.0-1.130","","key","null","16.665999999999904","720","351.5","","","","","","","",""
"567.3999999985099","arrowright","psychophysics","269","394773","0.0-3.0-0.131","","key","arrowright","16.66599999999915","720","351.5","132","5","1","30","15","25","35","true"
"null","null","psychophysics","270","395774","0.0-3.0-1.131","","key","null","16.665999999999904","720","351.5","","","","","","","",""
"592.1000000014901","arrowleft","psychophysics","271","396369","0.0-3.0-0.132","","key","arrowleft","16.665999999999933","720","351.5","133","5","-1","26","15","25","35","true"
"null","null","psychophysics","272","397371","0.0-3.0-1.132","","key","null","16.665999999999904","720","351.5","","","","","","","",""
"542","arrowleft","psychophysics","273","397915","0.0-3.0-0.133","","key","arrowleft","16.665999999998377","720","351.5","134","5","-1","26","15","25","35","true"
"null","null","psychophysics","274","398917","0.0-3.0-1.133","","key","null","16.665999999999904","720","351.5","","","","","","","",""
"640.5","arrowright","psychophysics","275","399565","0.0-3.0-0.134","","key","arrowright","16.66599999999897","720","351.5","135","5","1","23","15","25","35","true"
"null","null","psychophysics","276","400567","0.0-3.0-1.134","","key","null","16.665999999999904","720","351.5","","","","","","","",""
"477.5","arrowleft","psychophysics","277","401049","0.0-3.0-0.135","","key","arrowleft","16.666000000001596","720","351.5","136","5","-1","27","15","25","35","true"
"null","null","psychophysics","278","402051","0.0-3.0-1.135","","key","null","16.665999999999904","720","351.5","","","","","","","",""
"499.20000000298023","arrowright","psychophysics","279","402554","0.0-3.0-0.136","","key","arrowright","16.67473333333231","720","351.5","137","5","1","26","15","25","35","true"
"null","null","psychophysics","280","403556","0.0-3.0-1.136","","key","null","16.665999999999904","720","351.5","","","","","","","",""
"1146.2000000029802","arrowright","psychophysics","281","404704","0.0-3.0-0.137","","key","arrowright","16.666000000000007","720","351.5","138","5","1","23","15","25","35","true"
"null","null","psychophysics","282","405709","0.0-3.0-1.137","","key","null","16.665999999999904","720","351.5","","","","","","","",""
"562.1000000014901","arrowleft","psychophysics","283","406274","0.0-3.0-0.138","","key","arrowleft","16.666000000000086","720","351.5","139","5","1","24","35","25","35","false"
"null","null","psychophysics","284","407276","0.0-3.0-1.138","","key","null","16.665999999999904","720","351.5","","","","","","","",""
"538.3000000044703","arrowright","psychophysics","285","407817","0.0-3.0-0.139","","key","arrowright","16.666000000000256","720","351.5","140","6","-1","20","35","25","35","false"
"null","null","psychophysics","286","408819","0.0-3.0-1.139","","key","null","16.665999999999904","720","351.5","","","","","","","",""
"1321.1000000014901","arrowright","html-keyboard-response","287","410141","0.0-3.0-2.139-0.139","<div style=""color: white; text-align: center; vertical-align: top; display: inline-block; width: 800px; margin: auto""><p>You have completed 50% of the trials. You are on block 6 of 10. <br>Good job! Take a break if you need to.</p><p>Press any key to continue the experiment.</p></div>","","","","","","","","","","","","",""
"568.8999999985099","arrowleft","psychophysics","288","411720","0.0-3.0-0.140","","key","arrowleft","16.665999999999933","720","351.5","141","6","-1","30","35","25","35","true"
"null","null","psychophysics","289","412726","0.0-3.0-1.140","","key","null","16.67045762711915","720","351.5","","","","","","","",""
"587.2999999970198","arrowleft","psychophysics","290","413322","0.0-3.0-0.141","","key","arrowleft","16.665999999999933","720","351.5","142","6","1","20","35","25","35","false"
"null","null","psychophysics","291","414324","0.0-3.0-1.141","","key","null","16.665999999999904","720","351.5","","","","","","","",""
"783.1000000014901","arrowright","psychophysics","292","415110","0.0-3.0-0.142","","key","arrowright","16.66599999999997","720","351.5","143","6","-1","23","35","25","35","false"
"null","null","psychophysics","293","416113","0.0-3.0-1.142","","key","null","16.665999999999904","720","351.5","","","","","","","",""
"573.5999999940395","arrowright","psychophysics","294","416689","0.0-3.0-0.143","","key","arrowright","16.66599999999915","720","351.5","144","6","1","27","15","25","35","true"
"null","null","psychophysics","295","417691","0.0-3.0-1.143","","key","null","16.665999999999904","720","351.5","","","","","","","",""
"476.8999999985099","arrowright","psychophysics","296","418177","0.0-3.0-0.144","","key","arrowright","16.666000000001596","720","351.5","145","6","1","30","35","25","35","true"
"null","null","psychophysics","297","419178","0.0-3.0-1.144","","key","null","16.665999999999904","720","351.5","","","","","","","",""
"461.69999999552965","arrowleft","psychophysics","298","419643","0.0-3.0-0.145","","key","arrowleft","16.665999999998515","720","351.5","146","6","-1","25","15","25","35","true"
"null","null","psychophysics","299","420644","0.0-3.0-1.145","","key","null","16.665999999999904","720","351.5","","","","","","","",""
"509.90000000596046","arrowright","psychophysics","300","421157","0.0-3.0-0.146","","key","arrowright","16.66599999999938","720","351.5","147","6","1","25","15","25","35","true"
"null","null","psychophysics","301","422159","0.0-3.0-1.146","","key","null","16.666000000000892","720","351.5","","","","","","","",""
"580.8999999985099","arrowright","psychophysics","302","422742","0.0-3.0-0.147","","key","arrowright","16.67370588235345","720","351.5","148","6","1","26","15","25","35","true"
"null","null","psychophysics","303","423745","0.0-3.0-1.147","","key","null","16.665999999999904","720","351.5","","","","","","","",""
"754.2000000029802","arrowright","psychophysics","304","424502","0.0-3.0-0.148","","key","arrowright","16.666000000000086","720","351.5","149","6","-1","24","35","25","35","false"
"null","null","psychophysics","305","425508","0.0-3.0-1.148","","key","null","16.66600000000035","720","351.5","","","","","","","",""
"651.8999999985099","arrowright","psychophysics","306","426162","0.0-3.0-0.149","","key","arrowright","16.66599999999897","720","351.5","150","6","-1","24","35","25","35","false"
"null","null","psychophysics","307","427164","0.0-3.0-1.149","","key","null","16.665999999999904","720","351.5","","","","","","","",""
"637","arrowright","psychophysics","308","427804","0.0-3.0-0.150","","key","arrowright","16.66599999999897","720","351.5","151","6","1","25","15","25","35","true"
"null","null","psychophysics","309","428806","0.0-3.0-1.150","","key","null","16.665999999999904","720","351.5","","","","","","","",""
"777.0999999940395","arrowleft","psychophysics","310","429585","0.0-3.0-0.151","","key","arrowleft","16.666000000000672","720","351.5","152","6","-1","25","15","25","35","true"
"null","null","psychophysics","311","430587","0.0-3.0-1.151","","key","null","16.66600000000035","720","351.5","","","","","","","",""
"537.1999999955297","arrowright","psychophysics","312","431131","0.0-3.0-0.152","","key","arrowright","16.665999999998377","720","351.5","153","6","1","26","15","25","35","true"
"null","null","psychophysics","313","432134","0.0-3.0-1.152","","key","null","16.665999999999904","720","351.5","","","","","","","",""
"538.1000000014901","arrowleft","psychophysics","314","432675","0.0-3.0-0.153","","key","arrowleft","16.67418749999888","720","351.5","154","6","-1","23","15","25","35","true"
"null","null","psychophysics","315","433677","0.0-3.0-1.153","","key","null","16.665999999999904","720","351.5","","","","","","","",""
"712","arrowleft","psychophysics","316","434392","0.0-3.0-0.154","","key","arrowleft","16.66600000000021","720","351.5","155","6","1","25","35","25","35","false"
"null","null","psychophysics","317","435394","0.0-3.0-1.154","","key","null","16.665999999999904","720","351.5","","","","","","","",""
"487","arrowright","psychophysics","318","435884","0.0-3.0-0.155","","key","arrowright","16.666000000001596","720","351.5","156","6","-1","24","15","25","35","false"
"null","null","psychophysics","319","436886","0.0-3.0-1.155","","key","null","16.66600000000035","720","351.5","","","","","","","",""
"552.5999999940395","arrowright","psychophysics","320","437445","0.0-3.0-0.156","","key","arrowright","16.666000000001077","720","351.5","157","6","-1","24","35","25","35","false"
"null","null","psychophysics","321","438448","0.0-3.0-1.156","","key","null","16.665999999999904","720","351.5","","","","","","","",""
"612.6000000014901","arrowright","psychophysics","322","439064","0.0-3.0-0.157","","key","arrowright","16.666000000000672","720","351.5","158","6","1","30","35","25","35","true"
"null","null","psychophysics","323","440068","0.0-3.0-1.157","","key","null","16.665999999999904","720","351.5","","","","","","","",""
"2006.6999999955297","arrowright","psychophysics","324","442079","0.0-3.0-0.158","","key","arrowright","16.665999999999865","720","351.5","159","6","-1","20","15","25","35","false"
"null","null","psychophysics","325","443081","0.0-3.0-1.158","","key","null","16.670457627118164","720","351.5","","","","","","","",""
"1046.8000000044703","arrowright","psychophysics","326","444137","0.0-3.0-0.159","","key","arrowright","16.665999999999748","720","351.5","160","6","1","26","35","25","35","true"
"null","null","psychophysics","327","445139","0.0-3.0-1.159","","key","null","16.666000000000892","720","351.5","","","","","","","",""
"786.7000000029802","arrowleft","psychophysics","328","445928","0.0-3.0-0.160","","key","arrowleft","16.66599999999997","720","351.5","161","6","-1","26","35","25","35","true"
"null","null","psychophysics","329","446929","0.0-3.0-1.160","","key","null","16.665999999999904","720","351.5","","","","","","","",""
"506.6000000014901","arrowleft","psychophysics","330","447439","0.0-3.0-0.161","","key","arrowleft","16.66600000000132","720","351.5","162","6","-1","30","35","25","35","true"
"null","null","psychophysics","331","448441","0.0-3.0-1.161","","key","null","16.665999999999904","720","351.5","","","","","","","",""
"733.6000000014901","arrowright","psychophysics","332","449176","0.0-3.0-0.162","","key","arrowright","16.66599999999947","720","351.5","163","6","-1","23","35","25","35","false"
"null","null","psychophysics","333","450184","0.0-3.0-1.162","","key","null","16.665999999999904","720","351.5","","","","","","","",""
"2931.39999999851","arrowright","psychophysics","334","453120","0.0-3.0-0.163","","key","arrowright","16.667488636363654","720","351.5","164","6","1","23","15","25","35","true"
"null","null","psychophysics","335","454122","0.0-3.0-1.163","","key","null","16.665999999999904","720","351.5","","","","","","","",""
"752.6000000014901","arrowright","psychophysics","336","454877","0.0-3.0-0.164","","key","arrowright","16.66599999999876","720","351.5","165","6","1","27","15","25","35","true"
"null","null","psychophysics","337","455879","0.0-3.0-1.164","","key","null","16.665999999999904","720","351.5","","","","","","","",""
"1499.8999999985099","arrowright","psychophysics","338","457387","0.0-3.0-0.165","","key","arrowright","16.666000000000025","720","351.5","166","6","1","25","15","25","35","true"
"null","null","psychophysics","339","458389","0.0-3.0-1.165","","key","null","16.665999999999904","720","351.5","","","","","","","",""
"597.3999999985099","arrowleft","psychophysics","340","458988","0.0-3.0-0.166","","key","arrowleft","16.665999999999933","720","351.5","167","6","-1","30","15","25","35","true"
"null","null","psychophysics","341","459990","0.0-3.0-1.166","","key","null","16.665999999999904","720","351.5","","","","","","","",""
"678.7000000029802","arrowleft","psychophysics","342","460670","0.0-3.0-0.167","","key","arrowleft","16.66600000000035","720","351.5","168","7","-1","25","15","25","35","true"
"null","null","psychophysics","343","461672","0.0-3.0-1.167","","key","null","16.665999999999904","720","351.5","","","","","","","",""
"9178.60000000149","arrowright","html-keyboard-response","344","470856","0.0-3.0-2.167-0.167","<div style=""color: white; text-align: center; vertical-align: top; display: inline-block; width: 800px; margin: auto""><p>You have completed 60% of the trials. You are on block 7 of 10. <br>Good job! Take a break if you need to.</p><p>Press any key to continue the experiment.</p></div>","","","","","","","","","","","","",""
"713.3999999985099","arrowright","psychophysics","345","472579","0.0-3.0-0.168","","key","arrowright","16.677255813952883","720","351.5","169","7","1","30","35","25","35","true"
"null","null","psychophysics","346","473585","0.0-3.0-1.168","","key","null","16.665999999999904","720","351.5","","","","","","","",""
"612.7999999970198","arrowright","psychophysics","347","474202","0.0-3.0-0.169","","key","arrowright","16.666000000000672","720","351.5","170","7","1","25","15","25","35","true"
"null","null","psychophysics","348","475203","0.0-3.0-1.169","","key","null","16.665999999999904","720","351.5","","","","","","","",""
"506.29999999701977","arrowright","psychophysics","349","475714","0.0-3.0-0.170","","key","arrowright","16.66599999999938","720","351.5","171","7","-1","23","35","25","35","false"
"null","null","psychophysics","350","476718","0.0-3.0-1.170","","key","null","16.665999999999904","720","351.5","","","","","","","",""
"534","arrowright","psychophysics","351","477256","0.0-3.0-0.171","","key","arrowright","16.665999999999258","720","351.5","172","7","1","27","35","25","35","true"
"null","null","psychophysics","352","478258","0.0-3.0-1.171","","key","null","16.665999999999904","720","351.5","","","","","","","",""
"629.3999999985099","arrowleft","psychophysics","353","478890","0.0-3.0-0.172","","key","arrowleft","16.665999999999798","720","351.5","173","7","-1","30","35","25","35","true"
"null","null","psychophysics","354","479897","0.0-3.0-1.172","","key","null","16.665999999999904","720","351.5","","","","","","","",""
"516.7000000029802","arrowright","psychophysics","355","480416","0.0-3.0-0.173","","key","arrowright","16.66599999999938","720","351.5","174","7","-1","26","15","25","35","false"
"null","null","psychophysics","356","481418","0.0-3.0-1.173","","key","null","16.670440677966788","720","351.5","","","","","","","",""
"647.8999999985099","arrowright","psychophysics","357","482071","0.0-3.0-0.174","","key","arrowright","16.66600000000117","720","351.5","175","7","1","25","35","25","35","true"
"null","null","psychophysics","358","483072","0.0-3.0-1.174","","key","null","16.665999999999904","720","351.5","","","","","","","",""
"530.7000000029802","arrowright","psychophysics","359","483605","0.0-3.0-0.175","","key","arrowright","16.666000000000256","720","351.5","176","7","1","26","35","25","35","true"
"null","null","psychophysics","360","484606","0.0-3.0-1.175","","key","null","16.665999999999904","720","351.5","","","","","","","",""
"670.5","arrowright","psychophysics","361","485284","0.0-3.0-0.176","","key","arrowright","16.665999999999677","720","351.5","177","7","-1","24","35","25","35","false"
"null","null","psychophysics","362","486290","0.0-3.0-1.176","","key","null","16.66599999999938","720","351.5","","","","","","","",""
"454.09999999403954","arrowleft","psychophysics","363","486747","0.0-3.0-0.177","","key","arrowleft","16.665999999999677","720","351.5","178","7","-1","26","15","25","35","true"
"null","null","psychophysics","364","487749","0.0-3.0-1.177","","key","null","16.665999999999904","720","351.5","","","","","","","",""
"443.80000000447035","arrowleft","psychophysics","365","488195","0.0-3.0-0.178","","key","arrowleft","16.665999999999677","720","351.5","179","7","-1","30","15","25","35","true"
"null","null","psychophysics","366","489197","0.0-3.0-1.178","","key","null","16.665999999999904","720","351.5","","","","","","","",""
"468.5","arrowright","psychophysics","367","489668","0.0-3.0-0.179","","key","arrowright","16.666000000000672","720","351.5","180","7","1","27","15","25","35","true"
"null","null","psychophysics","368","490670","0.0-3.0-1.179","","key","null","16.66599999999938","720","351.5","","","","","","","",""
"544.7000000029802","arrowright","psychophysics","369","491217","0.0-3.0-0.180","","key","arrowright","16.67448387096726","720","351.5","181","7","1","27","15","25","35","true"
"null","null","psychophysics","370","492222","0.0-3.0-1.180","","key","null","16.66599999999938","720","351.5","","","","","","","",""
"488.3999999985099","arrowright","psychophysics","371","492714","0.0-3.0-0.181","","key","arrowright","16.665999999999517","720","351.5","182","7","1","30","35","25","35","true"
"null","null","psychophysics","372","493716","0.0-3.0-1.181","","key","null","16.665999999999904","720","351.5","","","","","","","",""
"495.1000000014901","arrowright","psychophysics","373","494214","0.0-3.0-0.182","","key","arrowright","16.666000000000448","720","351.5","183","7","-1","24","35","25","35","false"
"null","null","psychophysics","374","495216","0.0-3.0-1.182","","key","null","16.666000000000892","720","351.5","","","","","","","",""
"586.5","arrowright","psychophysics","375","495805","0.0-3.0-0.183","","key","arrowright","16.665999999999933","720","351.5","184","7","1","26","15","25","35","true"
"null","null","psychophysics","376","496807","0.0-3.0-1.183","","key","null","16.665999999999904","720","351.5","","","","","","","",""
"816.3000000044703","arrowleft","psychophysics","377","497630","0.0-3.0-0.184","","key","arrowleft","16.665999999999865","720","351.5","185","7","1","25","35","25","35","false"
"null","null","psychophysics","378","498634","0.0-3.0-1.184","","key","null","16.665999999999904","720","351.5","","","","","","","",""
"974.1000000014901","arrowleft","psychophysics","379","499613","0.0-3.0-0.185","","key","arrowleft","16.665999999999446","720","351.5","186","7","1","24","35","25","35","false"
"null","null","psychophysics","380","500614","0.0-3.0-1.185","","key","null","16.665999999999904","720","351.5","","","","","","","",""
"736.2000000029802","arrowright","psychophysics","381","501352","0.0-3.0-0.186","","key","arrowright","16.672093023256355","720","351.5","187","7","-1","23","35","25","35","false"
"null","null","psychophysics","382","502354","0.0-3.0-1.186","","key","null","16.665999999999904","720","351.5","","","","","","","",""
"871","arrowleft","psychophysics","383","503229","0.0-3.0-0.187","","key","arrowleft","16.665999999999677","720","351.5","188","7","-1","27","35","25","35","true"
"null","null","psychophysics","384","504235","0.0-3.0-1.187","","key","null","16.665999999999904","720","351.5","","","","","","","",""
"943.6000000014901","arrowleft","psychophysics","385","505183","0.0-3.0-0.188","","key","arrowleft","16.665999999999517","720","351.5","189","7","1","23","15","25","35","false"
"null","null","psychophysics","386","506185","0.0-3.0-1.188","","key","null","16.665999999999904","720","351.5","","","","","","","",""
"790.8999999985099","arrowright","psychophysics","387","506980","0.0-3.0-0.189","","key","arrowright","16.666000000000533","720","351.5","190","7","-1","20","15","25","35","false"
"null","null","psychophysics","388","507984","0.0-3.0-1.189","","key","null","16.665999999999904","720","351.5","","","","","","","",""
"659.1000000014901","arrowright","psychophysics","389","508647","0.0-3.0-0.190","","key","arrowright","16.665999999999677","720","351.5","191","7","-1","20","35","25","35","false"
"null","null","psychophysics","390","509649","0.0-3.0-1.190","","key","null","16.665999999999904","720","351.5","","","","","","","",""
"518","arrowright","psychophysics","391","510175","0.0-3.0-0.191","","key","arrowright","16.666000000000256","720","351.5","192","7","1","27","15","25","35","true"
"null","null","psychophysics","392","511177","0.0-3.0-1.191","","key","null","16.670457627118164","720","351.5","","","","","","","",""
"511.80000000447035","arrowright","psychophysics","393","511691","0.0-3.0-0.192","","key","arrowright","16.66599999999938","720","351.5","193","7","1","25","35","25","35","true"
"null","null","psychophysics","394","512693","0.0-3.0-1.192","","key","null","16.665999999999904","720","351.5","","","","","","","",""
"699.8999999985099","arrowleft","psychophysics","395","513395","0.0-3.0-0.193","","key","arrowleft","16.666000000000988","720","351.5","194","7","-1","25","35","25","35","true"
"null","null","psychophysics","396","514397","0.0-3.0-1.193","","key","null","16.665999999999904","720","351.5","","","","","","","",""
"725.1000000014901","arrowleft","psychophysics","397","515125","0.0-3.0-0.194","","key","arrowleft","16.66599999999947","720","351.5","195","7","1","25","35","25","35","false"
"null","null","psychophysics","398","516126","0.0-3.0-1.194","","key","null","16.665999999999904","720","351.5","","","","","","","",""
"468.29999999701977","arrowleft","psychophysics","399","516601","0.0-3.0-0.195","","key","arrowleft","16.666000000000672","720","351.5","196","8","-1","27","15","25","35","true"
"null","null","psychophysics","400","517604","0.0-3.0-1.195","","key","null","16.665999999999904","720","351.5","","","","","","","",""
"6538.29999999702","arrowright","html-keyboard-response","401","524149","0.0-3.0-2.195-0.195","<div style=""color: white; text-align: center; vertical-align: top; display: inline-block; width: 800px; margin: auto""><p>You have completed 70% of the trials. You are on block 8 of 10. <br>Good job! Take a break if you need to.</p><p>Press any key to continue the experiment.</p></div>","","","","","","","","","","","","",""
"552.6000000014901","arrowright","psychophysics","402","525714","0.0-3.0-0.196","","key","arrowright","16.67642424242204","720","351.5","197","8","1","30","35","25","35","true"
"null","null","psychophysics","403","526717","0.0-3.0-1.196","","key","null","16.665999999999904","720","351.5","","","","","","","",""
"450.20000000298023","arrowright","psychophysics","404","527172","0.0-3.0-0.197","","key","arrowright","16.665999999998515","720","351.5","198","8","-1","24","15","25","35","false"
"null","null","psychophysics","405","528173","0.0-3.0-1.197","","key","null","16.665999999999904","720","351.5","","","","","","","",""
"638.9000000059605","arrowright","psychophysics","406","528815","0.0-3.0-0.198","","key","arrowright","16.665999999999798","720","351.5","199","8","1","23","15","25","35","true"
"null","null","psychophysics","407","529816","0.0-3.0-1.198","","key","null","16.665999999999904","720","351.5","","","","","","","",""
"608.5999999940395","arrowleft","psychophysics","408","530427","0.0-3.0-0.199","","key","arrowleft","16.66599999999744","720","351.5","200","8","-1","25","35","25","35","true"
"null","null","psychophysics","409","531434","0.0-3.0-1.199","","key","null","16.665999999999904","720","351.5","","","","","","","",""
"595.5999999940395","arrowleft","psychophysics","410","532034","0.0-3.0-0.200","","key","arrowleft","16.666000000001596","720","351.5","201","8","1","27","35","25","35","false"
"null","null","psychophysics","411","533035","0.0-3.0-1.200","","key","null","16.665999999999904","720","351.5","","","","","","","",""
"491.1000000014901","arrowleft","psychophysics","412","533531","0.0-3.0-0.201","","key","arrowleft","16.666000000000448","720","351.5","202","8","1","23","35","25","35","false"
"null","null","psychophysics","413","534534","0.0-3.0-1.201","","key","null","16.67045762711915","720","351.5","","","","","","","",""
"462.3999999985099","arrowleft","psychophysics","414","535001","0.0-3.0-0.202","","key","arrowleft","16.66600000000283","720","351.5","203","8","-1","24","15","25","35","true"
"null","null","psychophysics","415","536004","0.0-3.0-1.202","","key","null","16.665999999999904","720","351.5","","","","","","","",""
"428.29999999701977","arrowleft","psychophysics","416","536442","0.0-3.0-0.203","","key","arrowleft","16.665999999999677","720","351.5","204","8","-1","25","15","25","35","true"
"null","null","psychophysics","417","537444","0.0-3.0-1.203","","key","null","16.665999999999904","720","351.5","","","","","","","",""
"685.3999999985099","arrowleft","psychophysics","418","538132","0.0-3.0-0.204","","key","arrowleft","16.66600000000035","720","351.5","205","8","-1","23","15","25","35","true"
"null","null","psychophysics","419","539134","0.0-3.0-1.204","","key","null","16.665999999999904","720","351.5","","","","","","","",""
"478.19999999552965","arrowleft","psychophysics","420","539614","0.0-3.0-0.205","","key","arrowleft","16.666000000001596","720","351.5","206","8","-1","25","15","25","35","true"
"null","null","psychophysics","421","540618","0.0-3.0-1.205","","key","null","16.665999999999904","720","351.5","","","","","","","",""
"483.29999999701977","arrowleft","psychophysics","422","541105","0.0-3.0-0.206","","key","arrowleft","16.666000000000448","720","351.5","207","8","-1","26","15","25","35","true"
"null","null","psychophysics","423","542106","0.0-3.0-1.206","","key","null","16.665999999999904","720","351.5","","","","","","","",""
"578.7999999970198","arrowright","psychophysics","424","542692","0.0-3.0-0.207","","key","arrowright","16.66599999999915","720","351.5","208","8","-1","20","35","25","35","false"
"null","null","psychophysics","425","543694","0.0-3.0-1.207","","key","null","16.665999999999904","720","351.5","","","","","","","",""
"477.69999999552965","arrowleft","psychophysics","426","544175","0.0-3.0-0.208","","key","arrowleft","16.666000000001596","720","351.5","209","8","-1","27","15","25","35","true"
"null","null","psychophysics","427","545177","0.0-3.0-1.208","","key","null","16.6704406779658","720","351.5","","","","","","","",""
"991.1999999955297","arrowleft","psychophysics","428","546171","0.0-3.0-0.209","","key","arrowleft","16.665999999999904","720","351.5","210","8","1","25","35","25","35","false"
"null","null","psychophysics","429","547172","0.0-3.0-1.209","","key","null","16.665999999999904","720","351.5","","","","","","","",""
"1034.6000000014901","arrowleft","psychophysics","430","548209","0.0-3.0-0.210","","key","arrowleft","16.66599999999887","720","351.5","211","8","-1","23","15","25","35","true"
"null","null","psychophysics","431","549215","0.0-3.0-1.210","","key","null","16.665999999999904","720","351.5","","","","","","","",""
"512","arrowleft","psychophysics","432","549729","0.0-3.0-0.211","","key","arrowleft","16.66599999999938","720","351.5","212","8","-1","25","15","25","35","true"
"null","null","psychophysics","433","550731","0.0-3.0-1.211","","key","null","16.665999999999904","720","351.5","","","","","","","",""
"464.6000000014901","arrowleft","psychophysics","434","551198","0.0-3.0-0.212","","key","arrowleft","16.665999999998515","720","351.5","213","8","-1","26","35","25","35","true"
"null","null","psychophysics","435","552201","0.0-3.0-1.212","","key","null","16.66600000000188","720","351.5","","","","","","","",""
"385.29999999701977","arrowleft","psychophysics","436","552591","0.0-3.0-0.213","","key","arrowleft","16.665999999998704","720","351.5","214","8","1","24","35","25","35","false"
"null","null","psychophysics","437","553593","0.0-3.0-1.213","","key","null","16.665999999999904","720","351.5","","","","","","","",""
"446.29999999701977","arrowleft","psychophysics","438","554042","0.0-3.0-0.214","","key","arrowleft","16.665999999999677","720","351.5","215","8","1","27","35","25","35","false"
"null","null","psychophysics","439","555043","0.0-3.0-1.214","","key","null","16.67045762711915","720","351.5","","","","","","","",""
"483.1000000014901","arrowleft","psychophysics","440","555534","0.0-3.0-0.215","","key","arrowleft","16.666000000001596","720","351.5","216","8","-1","23","15","25","35","true"
"null","null","psychophysics","441","556536","0.0-3.0-1.215","","key","null","16.665999999999904","720","351.5","","","","","","","",""
"435.40000000596046","arrowleft","psychophysics","442","556976","0.0-3.0-0.216","","key","arrowleft","16.665999999999677","720","351.5","217","8","-1","25","35","25","35","true"
"null","null","psychophysics","443","557977","0.0-3.0-1.216","","key","null","16.665999999999904","720","351.5","","","","","","","",""
"616.0999999940395","arrowleft","psychophysics","444","558596","0.0-3.0-0.217","","key","arrowleft","16.666000000000672","720","351.5","218","8","1","30","35","25","35","false"
"null","null","psychophysics","445","559598","0.0-3.0-1.217","","key","null","16.665999999999904","720","351.5","","","","","","","",""
"488.19999999552965","arrowleft","psychophysics","446","560089","0.0-3.0-0.218","","key","arrowleft","16.666000000000448","720","351.5","219","8","-1","30","15","25","35","true"
"null","null","psychophysics","447","561090","0.0-3.0-1.218","","key","null","16.665999999999904","720","351.5","","","","","","","",""
"499","arrowleft","psychophysics","448","561597","0.0-3.0-0.219","","key","arrowleft","16.666000000000448","720","351.5","220","8","-1","26","35","25","35","true"
"null","null","psychophysics","449","562601","0.0-3.0-1.219","","key","null","16.665999999999904","720","351.5","","","","","","","",""
"407.09999999403954","arrowleft","psychophysics","450","563010","0.0-3.0-0.220","","key","arrowleft","16.66600000000229","720","351.5","221","8","-1","27","35","25","35","true"
"null","null","psychophysics","451","564012","0.0-3.0-1.220","","key","null","16.665999999999904","720","351.5","","","","","","","",""
"737.6999999955297","arrowright","psychophysics","452","564752","0.0-3.0-0.221","","key","arrowright","16.672093023256355","720","351.5","222","8","-1","23","35","25","35","false"
"null","null","psychophysics","453","565753","0.0-3.0-1.221","","key","null","16.66600000000132","720","351.5","","","","","","","",""
"593.7000000029802","arrowleft","psychophysics","454","566350","0.0-3.0-0.222","","key","arrowleft","16.66599999999915","720","351.5","223","8","-1","25","15","25","35","true"
"null","null","psychophysics","455","567352","0.0-3.0-1.222","","key","null","16.665999999999904","720","351.5","","","","","","","",""
"379.29999999701977","arrowleft","psychophysics","456","567742","0.0-3.0-0.223","","key","arrowleft","16.665999999998704","720","351.5","224","9","-1","27","35","25","35","true"
"null","null","psychophysics","457","568744","0.0-3.0-1.223","","key","null","16.665999999999904","720","351.5","","","","","","","",""
"922.1999999955297","arrowright","html-keyboard-response","458","569668","0.0-3.0-2.223-0.223","<div style=""color: white; text-align: center; vertical-align: top; display: inline-block; width: 800px; margin: auto""><p>You have completed 80% of the trials. You are on block 9 of 10. <br>Good job! Take a break if you need to.</p><p>Press any key to continue the experiment.</p></div>","","","","","","","","","","","","",""
"546.4000000059605","arrowright","psychophysics","459","571220","0.0-3.0-0.224","","key","arrowright","16.666000000001077","720","351.5","225","9","-1","23","15","25","35","false"
"null","null","psychophysics","460","572221","0.0-3.0-1.224","","key","null","16.66599999999938","720","351.5","","","","","","","",""
"501.70000000298023","arrowright","psychophysics","461","572726","0.0-3.0-0.225","","key","arrowright","16.665999999996437","720","351.5","226","9","-1","20","15","25","35","false"
"null","null","psychophysics","462","573728","0.0-3.0-1.225","","key","null","16.665999999999904","720","351.5","","","","","","","",""
"606","arrowright","psychophysics","463","574344","0.0-3.0-0.226","","key","arrowright","16.666000000000672","720","351.5","227","9","-1","23","35","25","35","false"
"null","null","psychophysics","464","575346","0.0-3.0-1.226","","key","null","16.67045762711915","720","351.5","","","","","","","",""
"478.40000000596046","arrowleft","psychophysics","465","575828","0.0-3.0-0.227","","key","arrowleft","16.666000000001596","720","351.5","228","9","-1","27","15","25","35","true"
"null","null","psychophysics","466","576829","0.0-3.0-1.227","","key","null","16.665999999999904","720","351.5","","","","","","","",""
"591.7000000029802","arrowleft","psychophysics","467","577424","0.0-3.0-0.228","","key","arrowleft","16.666000000001596","720","351.5","229","9","1","25","35","25","35","false"
"null","null","psychophysics","468","578426","0.0-3.0-1.228","","key","null","16.665999999999904","720","351.5","","","","","","","",""
"1343.7000000029802","arrowleft","psychophysics","469","579772","0.0-3.0-0.229","","key","arrowleft","16.66600000000035","720","351.5","230","9","1","24","35","25","35","false"
"null","null","psychophysics","470","580779","0.0-3.0-1.229","","key","null","16.665999999999904","720","351.5","","","","","","","",""
"605.1000000014901","arrowright","psychophysics","471","581387","0.0-3.0-0.230","","key","arrowright","16.666000000000672","720","351.5","231","9","1","25","15","25","35","true"
"null","null","psychophysics","472","582389","0.0-3.0-1.230","","key","null","16.665999999999904","720","351.5","","","","","","","",""
"595","arrowleft","psychophysics","473","582986","0.0-3.0-0.231","","key","arrowleft","16.66599999999915","720","351.5","232","9","1","20","15","25","35","false"
"null","null","psychophysics","474","583987","0.0-3.0-1.231","","key","null","16.66599999999938","720","351.5","","","","","","","",""
"961","arrowright","psychophysics","475","584951","0.0-3.0-0.232","","key","arrowright","16.670678571429953","720","351.5","233","9","1","27","35","25","35","true"
"null","null","psychophysics","476","585952","0.0-3.0-1.232","","key","null","16.665999999999904","720","351.5","","","","","","","",""
"455.8999999985099","arrowleft","psychophysics","477","586418","0.0-3.0-0.233","","key","arrowleft","16.66600000000283","720","351.5","234","9","-1","30","15","25","35","true"
"null","null","psychophysics","478","587426","0.0-3.0-1.233","","key","null","16.66599999999938","720","351.5","","","","","","","",""
"736.0999999940395","arrowleft","psychophysics","479","588164","0.0-3.0-0.234","","key","arrowleft","16.666000000000825","720","351.5","235","9","1","23","35","25","35","false"
"null","null","psychophysics","480","589166","0.0-3.0-1.234","","key","null","16.665999999999904","720","351.5","","","","","","","",""
"1726.0999999940395","arrowleft","psychophysics","481","590895","0.0-3.0-0.235","","key","arrowleft","16.665999999999983","720","351.5","236","9","-1","26","35","25","35","true"
"null","null","psychophysics","482","591897","0.0-3.0-1.235","","key","null","16.665999999999904","720","351.5","","","","","","","",""
"614.5","arrowleft","psychophysics","483","592522","0.0-3.0-0.236","","key","arrowleft","16.665999999999798","720","351.5","237","9","-1","27","35","25","35","true"
"null","null","psychophysics","484","593523","0.0-3.0-1.236","","key","null","16.665999999999904","720","351.5","","","","","","","",""
"577.8999999985099","arrowleft","psychophysics","485","594103","0.0-3.0-0.237","","key","arrowleft","16.666000000000086","720","351.5","238","9","-1","26","15","25","35","true"
"null","null","psychophysics","486","595104","0.0-3.0-1.237","","key","null","16.6703833333333","720","351.5","","","","","","","",""
"865.7999999970198","arrowleft","psychophysics","487","595973","0.0-3.0-0.238","","key","arrowleft","16.66600000000029","720","351.5","239","9","1","25","35","25","35","false"
"null","null","psychophysics","488","596975","0.0-3.0-1.238","","key","null","16.665999999999904","720","351.5","","","","","","","",""
"730.8999999985099","arrowright","psychophysics","489","597707","0.0-3.0-0.239","","key","arrowright","16.666000000000825","720","351.5","240","9","1","27","15","25","35","true"
"null","null","psychophysics","490","598714","0.0-3.0-1.239","","key","null","16.665999999999904","720","351.5","","","","","","","",""
"792.2999999970198","arrowright","psychophysics","491","599510","0.0-3.0-0.240","","key","arrowright","16.666000000000533","720","351.5","241","9","-1","23","35","25","35","false"
"null","null","psychophysics","492","600512","0.0-3.0-1.240","","key","null","16.665999999999904","720","351.5","","","","","","","",""
"665.2999999970198","arrowleft","psychophysics","493","601180","0.0-3.0-0.241","","key","arrowleft","16.665999999998185","720","351.5","242","9","-1","24","15","25","35","true"
"null","null","psychophysics","494","602181","0.0-3.0-1.241","","key","null","16.66600000000188","720","351.5","","","","","","","",""
"671.6999999955297","arrowright","psychophysics","495","602856","0.0-3.0-0.242","","key","arrowright","16.66600000000035","720","351.5","243","9","1","30","35","25","35","true"
"null","null","psychophysics","496","603858","0.0-3.0-1.242","","key","null","16.665999999999904","720","351.5","","","","","","","",""
"485.40000000596046","arrowright","psychophysics","497","604352","0.0-3.0-0.243","","key","arrowright","16.666000000001596","720","351.5","244","9","1","26","35","25","35","true"
"null","null","psychophysics","498","605353","0.0-3.0-1.243","","key","null","16.6704406779658","720","351.5","","","","","","","",""
"566","arrowright","psychophysics","499","605923","0.0-3.0-0.244","","key","arrowright","16.66599999999915","720","351.5","245","9","1","26","35","25","35","true"
"null","null","psychophysics","500","606924","0.0-3.0-1.244","","key","null","16.665999999999904","720","351.5","","","","","","","",""
"498.20000000298023","arrowleft","psychophysics","501","607425","0.0-3.0-0.245","","key","arrowleft","16.666000000000448","720","351.5","246","9","-1","30","15","25","35","true"
"null","null","psychophysics","502","608427","0.0-3.0-1.245","","key","null","16.665999999999904","720","351.5","","","","","","","",""
"747.2999999970198","arrowright","psychophysics","503","609177","0.0-3.0-0.246","","key","arrowright","16.666000000000086","720","351.5","247","9","1","23","35","25","35","true"
"null","null","psychophysics","504","610179","0.0-3.0-1.246","","key","null","16.665999999999904","720","351.5","","","","","","","",""
"507.6000000014901","arrowleft","psychophysics","505","610698","0.0-3.0-0.247","","key","arrowleft","16.666000000003258","720","351.5","248","9","1","23","35","25","35","false"
"null","null","psychophysics","506","611701","0.0-3.0-1.247","","key","null","16.665999999999904","720","351.5","","","","","","","",""
"851.7000000029802","arrowleft","psychophysics","507","612555","0.0-3.0-0.248","","key","arrowleft","16.66600000000029","720","351.5","249","9","-1","23","15","25","35","true"
"null","null","psychophysics","508","613557","0.0-3.0-1.248","","key","null","16.665999999999904","720","351.5","","","","","","","",""
"704.3999999985099","arrowleft","psychophysics","509","614263","0.0-3.0-0.249","","key","arrowleft","16.665999999999567","720","351.5","250","9","-1","25","35","25","35","true"
"null","null","psychophysics","510","615266","0.0-3.0-1.249","","key","null","16.6704406779658","720","351.5","","","","","","","",""
"534.7000000029802","arrowleft","psychophysics","511","615803","0.0-3.0-0.250","","key","arrowleft","16.665999999998377","720","351.5","251","9","-1","25","35","25","35","true"
"null","null","psychophysics","512","616804","0.0-3.0-1.250","","key","null","16.66600000000132","720","351.5","","","","","","","",""
"594.2000000029802","arrowright","psychophysics","513","617406","0.0-3.0-0.251","","key","arrowright","16.66599999999827","720","351.5","252","10","1","24","15","25","35","true"
"null","null","psychophysics","514","618408","0.0-3.0-1.251","","key","null","16.665999999999904","720","351.5","","","","","","","",""
"866.1000000014901","arrowright","html-keyboard-response","515","619275","0.0-3.0-2.251-0.251","<div style=""color: white; text-align: center; vertical-align: top; display: inline-block; width: 800px; margin: auto""><p>You have completed 90% of the trials. You are on block 10 of 10. <br>Good job! Take a break if you need to.</p><p>Press any key to continue the experiment.</p></div>","","","","","","","","","","","","",""
"689.1000000014901","arrowright","psychophysics","516","620971","0.0-3.0-0.252","","key","arrowright","16.665999999999567","720","351.5","253","10","-1","20","35","25","35","false"
"null","null","psychophysics","517","621972","0.0-3.0-1.252","","key","null","16.66599999999938","720","351.5","","","","","","","",""
"554.8000000044703","arrowleft","psychophysics","518","622529","0.0-3.0-0.253","","key","arrowleft","16.666000000001077","720","351.5","254","10","-1","30","35","25","35","true"
"null","null","psychophysics","519","623531","0.0-3.0-1.253","","key","null","16.665999999999904","720","351.5","","","","","","","",""
"436.6000000014901","arrowright","psychophysics","520","623978","0.0-3.0-0.254","","key","arrowright","16.666000000004153","720","351.5","255","10","1","30","15","25","35","true"
"null","null","psychophysics","521","624981","0.0-3.0-1.254","","key","null","16.67045762711915","720","351.5","","","","","","","",""
"751.6000000014901","arrowright","psychophysics","522","625736","0.0-3.0-0.255","","key","arrowright","16.666000000000086","720","351.5","256","10","1","24","15","25","35","true"
"null","null","psychophysics","523","626737","0.0-3.0-1.255","","key","null","16.665999999999904","720","351.5","","","","","","","",""
"583.7999999970198","arrowright","psychophysics","524","627329","0.0-3.0-0.256","","key","arrowright","16.666000000001596","720","351.5","257","10","1","27","15","25","35","true"
"null","null","psychophysics","525","628331","0.0-3.0-1.256","","key","null","16.665999999999904","720","351.5","","","","","","","",""
"596.8000000044703","arrowleft","psychophysics","526","628931","0.0-3.0-0.257","","key","arrowleft","16.666000000001596","720","351.5","258","10","-1","25","15","25","35","true"
"null","null","psychophysics","527","629933","0.0-3.0-1.257","","key","null","16.665999999999904","720","351.5","","","","","","","",""
"1016","arrowright","psychophysics","528","630959","0.0-3.0-0.258","","key","arrowright","16.66599999999887","720","351.5","259","10","1","27","35","25","35","true"
"null","null","psychophysics","529","631961","0.0-3.0-1.258","","key","null","16.665999999999904","720","351.5","","","","","","","",""
"529.2000000029802","arrowleft","psychophysics","530","632493","0.0-3.0-0.259","","key","arrowleft","16.665999999998377","720","351.5","260","10","1","20","15","25","35","false"
"null","null","psychophysics","531","633495","0.0-3.0-1.259","","key","null","16.66600000000188","720","351.5","","","","","","","",""
"695.5999999940395","arrowright","psychophysics","532","634194","0.0-3.0-0.260","","key","arrowright","16.665999999999567","720","351.5","261","10","-1","20","35","25","35","false"
"null","null","psychophysics","533","635195","0.0-3.0-1.260","","key","null","16.6704406779658","720","351.5","","","","","","","",""
"655.5999999940395","arrowleft","psychophysics","534","635853","0.0-3.0-0.261","","key","arrowleft","16.66599999999897","720","351.5","262","10","-1","24","15","25","35","true"
"null","null","psychophysics","535","636855","0.0-3.0-1.261","","key","null","16.66600000000132","720","351.5","","","","","","","",""
"615.2999999970198","arrowleft","psychophysics","536","637479","0.0-3.0-0.262","","key","arrowleft","16.666000000000672","720","351.5","263","10","1","23","35","25","35","false"
"null","null","psychophysics","537","638481","0.0-3.0-1.262","","key","null","16.665999999999904","720","351.5","","","","","","","",""
"687.8999999985099","arrowleft","psychophysics","538","639172","0.0-3.0-0.263","","key","arrowleft","16.665999999999567","720","351.5","264","10","-1","27","15","25","35","true"
"null","null","psychophysics","539","640174","0.0-3.0-1.263","","key","null","16.665999999999904","720","351.5","","","","","","","",""
"967.7999999970198","arrowleft","psychophysics","540","641144","0.0-3.0-0.264","","key","arrowleft","16.66599999999897","720","351.5","265","10","1","24","35","25","35","false"
"null","null","psychophysics","541","642146","0.0-3.0-1.264","","key","null","16.665999999999904","720","351.5","","","","","","","",""
"402.5","arrowleft","psychophysics","542","642552","0.0-3.0-0.265","","key","arrowleft","16.665999999998704","720","351.5","266","10","-1","27","35","25","35","true"
"null","null","psychophysics","543","643553","0.0-3.0-1.265","","key","null","16.665999999999904","720","351.5","","","","","","","",""
"580.6000000014901","arrowleft","psychophysics","544","644143","0.0-3.0-0.266","","key","arrowleft","16.66599999999827","720","351.5","267","10","-1","30","35","25","35","true"
"null","null","psychophysics","545","645146","0.0-3.0-1.266","","key","null","16.670457627117177","720","351.5","","","","","","","",""
"656.1000000014901","arrowright","psychophysics","546","645805","0.0-3.0-0.267","","key","arrowright","16.665999999998185","720","351.5","268","10","1","27","35","25","35","true"
"null","null","psychophysics","547","646806","0.0-3.0-1.267","","key","null","16.665999999999904","720","351.5","","","","","","","",""
"585.5","arrowleft","psychophysics","548","647394","0.0-3.0-0.268","","key","arrowleft","16.66599999999915","720","351.5","269","10","-1","26","15","25","35","true"
"null","null","psychophysics","549","648396","0.0-3.0-1.268","","key","null","16.665999999999904","720","351.5","","","","","","","",""
"693.2999999970198","arrowright","psychophysics","550","649092","0.0-3.0-0.269","","key","arrowright","16.665999999999567","720","351.5","270","10","1","27","35","25","35","true"
"null","null","psychophysics","551","650094","0.0-3.0-1.269","","key","null","16.665999999999904","720","351.5","","","","","","","",""
"598.6999999955297","arrowright","psychophysics","552","650702","0.0-3.0-0.270","","key","arrowright","16.66599999999827","720","351.5","271","10","1","30","15","25","35","true"
"null","null","psychophysics","553","651704","0.0-3.0-1.270","","key","null","16.665999999999904","720","351.5","","","","","","","",""
"979.2999999970198","arrowleft","psychophysics","554","652687","0.0-3.0-0.271","","key","arrowleft","16.66599999999844","720","351.5","272","10","1","23","15","25","35","false"
"null","null","psychophysics","555","653688","0.0-3.0-1.271","","key","null","16.66599999999938","720","351.5","","","","","","","",""
"634.8999999985099","arrowleft","psychophysics","556","654325","0.0-3.0-0.272","","key","arrowleft","16.665999999999798","720","351.5","273","10","-1","25","35","25","35","true"
"null","null","psychophysics","557","655327","0.0-3.0-1.272","","key","null","16.6704406779658","720","351.5","","","","","","","",""
"1241.8999999985099","arrowright","psychophysics","558","656571","0.0-3.0-0.273","","key","arrowright","16.665999999999798","720","351.5","274","10","-1","24","35","25","35","false"
"null","null","psychophysics","559","657580","0.0-3.0-1.273","","key","null","16.665999999999904","720","351.5","","","","","","","",""
"1171.3999999985099","arrowright","psychophysics","560","658756","0.0-3.0-0.274","","key","arrowright","16.665999999999933","720","351.5","275","10","1","24","15","25","35","true"
"null","null","psychophysics","561","659758","0.0-3.0-1.274","","key","null","16.665999999999904","720","351.5","","","","","","","",""
"1065.5","arrowleft","psychophysics","562","660826","0.0-3.0-0.275","","key","arrowleft","16.666000000001596","720","351.5","276","10","1","26","35","25","35","false"
"null","null","psychophysics","563","661827","0.0-3.0-1.275","","key","null","16.665999999999904","720","351.5","","","","","","","",""
"707.3999999985099","arrowright","psychophysics","564","662537","0.0-3.0-0.276","","key","arrowright","16.665999999999567","720","351.5","277","10","1","30","15","25","35","true"
"null","null","psychophysics","565","663538","0.0-3.0-1.276","","key","null","16.66599999999938","720","351.5","","","","","","","",""
"657.7000000029802","arrowleft","psychophysics","566","664205","0.0-3.0-0.277","","key","arrowleft","16.66600000000117","720","351.5","278","10","1","20","35","25","35","false"
"null","null","psychophysics","567","665207","0.0-3.0-1.277","","key","null","16.67045762711915","720","351.5","","","","","","","",""
"750.5","arrowright","psychophysics","568","665960","0.0-3.0-0.278","","key","arrowright","16.666000000000086","720","351.5","279","10","1","26","15","25","35","true"
"null","null","psychophysics","569","666962","0.0-3.0-1.278","","key","null","16.665999999999904","720","351.5","","","","","","","",""
"786.2000000029802","arrowleft","psychophysics","570","667752","0.0-3.0-0.279","","key","arrowleft","16.665999999998704","720","351.5","280","11","1","27","35","25","35","false"
"null","null","psychophysics","571","668754","0.0-3.0-1.279","","key","null","16.665999999999904","720","351.5","","","","","","","",""
