"rt","response","trial_type","trial_index","time_elapsed","internal_node_id","stimulus","response_type","key_press","avg_frame_time","center_x","center_y","trial","block","test_pos","test_inner_radius","test_outer_radius","ref_inner_radius","ref_outer_radius","test_bigger"
"7894","{""p_id"":""5945"",""age"":""19"",""handedness"":""right"",""sex"":""male"",""other_sex"":""""}","survey-html-form","0","7896","0.0-0.0","","","","","","","","","","","","","",""
"5649"," ","html-keyboard-response","1","13548","0.0-1.0","<p style=""color: white"">Welcome to the Size Judgment Experiment. <br>There will be 10 blocks in this experiment. <br>There will be 28 trials in each block. <br>You will be given a chance to take a break between blocks. <br>Press any key to start the experiment.</p>","","","","","","","","","","","","",""
"7075.89999999851"," ","psychophysics","2","20659","0.0-2.0","","key"," ","16.705779342723005","960","468.5","","","","","","","",""
"2553.8000000044703","arrowleft","psychophysics","3","23224","0.0-3.0-0.0","","key","arrowleft","16.667542483660142","960","468.5","1","1","1","23","15","25","35","false"
"null","null","psychophysics","4","24231","0.0-3.0-1.0","","key","null","16.66206779661014","960","468.5","","","","","","","",""
"2655.39999999851","arrowleft","psychophysics","5","26891","0.0-3.0-0.1","","key","arrowleft","16.666308176100625","960","468.5","2","1","1","24","35","25","35","false"
"null","null","psychophysics","6","27906","0.0-3.0-1.1","","key","null","16.66444067796612","960","468.5","","","","","","","",""
"3589.1999999955297","arrowright","psychophysics","7","31504","0.0-3.0-0.2","","key","arrowright","16.665400000000005","960","468.5","3","1","-1","24","35","25","35","false"
"null","null","psychophysics","8","32508","0.0-3.0-1.2","","key","null","16.6698166666667","960","468.5","","","","","","","",""
"1133.8999999985099","arrowleft","psychophysics","9","33648","0.0-3.0-0.3","","key","arrowleft","16.671820895522426","960","468.5","4","1","1","20","35","25","35","false"
"null","null","psychophysics","10","34655","0.0-3.0-1.3","","key","null","16.667033898305014","960","468.5","","","","","","","",""
"1032.2000000029802","arrowright","psychophysics","11","35695","0.0-3.0-0.4","","key","arrowright","16.66827419354846","960","468.5","5","1","1","25","15","25","35","true"
"null","null","psychophysics","12","36698","0.0-3.0-1.4","","key","null","16.667610169491574","960","468.5","","","","","","","",""
"935.8000000044703","arrowleft","psychophysics","13","37637","0.0-3.0-0.5","","key","arrowleft","16.669254545454567","960","468.5","6","1","1","20","35","25","35","false"
"null","null","psychophysics","14","38640","0.0-3.0-1.5","","key","null","16.669283333333322","960","468.5","","","","","","","",""
"918.0999999940395","arrowright","psychophysics","15","39564","0.0-3.0-0.6","","key","arrowright","16.67238888888891","960","468.5","7","1","-1","23","35","25","35","false"
"null","null","psychophysics","16","40572","0.0-3.0-1.6","","key","null","16.669322033898272","960","468.5","","","","","","","",""
"790.3000000044703","arrowright","psychophysics","17","41369","0.0-3.0-0.7","","key","arrowright","16.665446808510595","960","468.5","8","1","1","24","15","25","35","true"
"null","null","psychophysics","18","42372","0.0-3.0-1.7","","key","null","16.66893220338978","960","468.5","","","","","","","",""
"836.5999999940395","arrowright","psychophysics","19","43217","0.0-3.0-0.8","","key","arrowright","16.66775999999998","960","468.5","9","1","1","30","15","25","35","true"
"null","null","psychophysics","20","44222","0.0-3.0-1.8","","key","null","16.66559322033893","960","468.5","","","","","","","",""
"607.3999999985099","arrowleft","psychophysics","21","44841","0.0-3.0-0.9","","key","arrowleft","16.66243243243249","960","468.5","10","1","-1","27","35","25","35","true"
"null","null","psychophysics","22","45847","0.0-3.0-1.9","","key","null","16.666694915254222","960","468.5","","","","","","","",""
"611.9000000059605","arrowright","psychophysics","23","46464","0.0-3.0-0.10","","key","arrowright","16.669444444444405","960","468.5","11","1","1","20","15","25","35","true"
"null","null","psychophysics","24","47471","0.0-3.0-1.10","","key","null","16.66874576271196","960","468.5","","","","","","","",""
"641.7000000029802","arrowleft","psychophysics","25","48129","0.0-3.0-0.11","","key","arrowleft","16.671743589743503","960","468.5","12","1","-1","26","35","25","35","true"
"null","null","psychophysics","26","49138","0.0-3.0-1.11","","key","null","16.667288135593264","960","468.5","","","","","","","",""
"597.2999999970198","arrowleft","psychophysics","27","49741","0.0-3.0-0.12","","key","arrowleft","16.65713888888907","960","468.5","13","1","-1","24","15","25","35","true"
"null","null","psychophysics","28","50746","0.0-3.0-1.12","","key","null","16.667135593220415","960","468.5","","","","","","","",""
"5421.60000000149","arrowleft","psychophysics","29","56169","0.0-3.0-0.13","","key","arrowleft","16.66698148148148","960","468.5","14","1","-1","26","35","25","35","true"
"null","null","psychophysics","30","57173","0.0-3.0-1.13","","key","null","16.66921666666664","960","468.5","","","","","","","",""
"607.1000000014901","arrowright","psychophysics","31","57787","0.0-3.0-0.14","","key","arrowright","16.670457142857153","960","468.5","15","1","1","30","15","25","35","true"
"null","null","psychophysics","32","58790","0.0-3.0-1.14","","key","null","16.66963333333333","960","468.5","","","","","","","",""
"569.7000000029802","arrowleft","psychophysics","33","59363","0.0-3.0-0.15","","key","arrowleft","16.666727272727286","960","468.5","16","1","-1","25","15","25","35","true"
"null","null","psychophysics","34","60371","0.0-3.0-1.15","","key","null","16.666491525423673","960","468.5","","","","","","","",""
"1026.0999999940395","arrowleft","psychophysics","35","61400","0.0-3.0-0.16","","key","arrowleft","16.66529508196719","960","468.5","17","1","1","26","35","25","35","false"
"null","null","psychophysics","36","62404","0.0-3.0-1.16","","key","null","16.664864406779643","960","468.5","","","","","","","",""
"678.7999999970198","arrowleft","psychophysics","37","63090","0.0-3.0-0.17","","key","arrowleft","16.667512195121827","960","468.5","18","1","-1","26","15","25","35","true"
"null","null","psychophysics","38","64103","0.0-3.0-1.17","","key","null","16.669305084745787","960","468.5","","","","","","","",""
"510.8999999985099","arrowright","psychophysics","39","64620","0.0-3.0-0.18","","key","arrowright","16.66976666666645","960","468.5","19","1","1","25","15","25","35","true"
"null","null","psychophysics","40","65623","0.0-3.0-1.18","","key","null","16.66903333333321","960","468.5","","","","","","","",""
"817.6000000014901","arrowleft","psychophysics","41","66446","0.0-3.0-0.19","","key","arrowleft","16.667854166666682","960","468.5","20","1","1","25","35","25","35","false"
"null","null","psychophysics","42","67455","0.0-3.0-1.19","","key","null","16.665779661016995","960","468.5","","","","","","","",""
"594.2999999970198","arrowright","psychophysics","43","68056","0.0-3.0-0.20","","key","arrowright","16.661111111111193","960","468.5","21","1","1","25","15","25","35","true"
"null","null","psychophysics","44","69063","0.0-3.0-1.20","","key","null","16.669661016949064","960","468.5","","","","","","","",""
"590.9000000059605","arrowleft","psychophysics","45","69658","0.0-3.0-0.21","","key","arrowleft","16.664371428571343","960","468.5","22","1","-1","20","35","25","35","true"
"null","null","psychophysics","46","70669","0.0-3.0-1.21","","key","null","16.667491525423937","960","468.5","","","","","","","",""
"562.3999999985099","arrowleft","psychophysics","47","71233","0.0-3.0-0.22","","key","arrowleft","16.677666666667033","960","468.5","23","1","-1","25","15","25","35","true"
"null","null","psychophysics","48","72238","0.0-3.0-1.22","","key","null","16.66747457627133","960","468.5","","","","","","","",""
"604.3999999985099","arrowleft","psychophysics","49","72849","0.0-3.0-0.23","","key","arrowleft","16.662111111110992","960","468.5","24","1","-1","24","15","25","35","true"
"null","null","psychophysics","50","73855","0.0-3.0-1.23","","key","null","16.66908474576263","960","468.5","","","","","","","",""
"3339.5999999940395","arrowright","psychophysics","51","77212","0.0-3.0-0.24","","key","arrowright","16.66714427860692","960","468.5","25","1","-1","26","35","25","35","false"
"null","null","psychophysics","52","78222","0.0-3.0-1.24","","key","null","16.668983050847476","960","468.5","","","","","","","",""
"523.2999999970198","arrowright","psychophysics","53","78753","0.0-3.0-0.25","","key","arrowright","16.662387096774182","960","468.5","26","1","1","24","15","25","35","true"
"null","null","psychophysics","54","79754","0.0-3.0-1.25","","key","null","16.665779661016995","960","468.5","","","","","","","",""
"619","arrowleft","psychophysics","55","80376","0.0-3.0-0.26","","key","arrowleft","16.66967567567583","960","468.5","27","1","-1","30","35","25","35","true"
"null","null","psychophysics","56","81380","0.0-3.0-1.26","","key","null","16.666830508474714","960","468.5","","","","","","","",""
"609.1000000014901","arrowleft","psychophysics","57","81994","0.0-3.0-0.27","","key","arrowleft","16.657694444444335","960","468.5","28","2","1","20","35","25","35","false"
"null","null","psychophysics","58","83002","0.0-3.0-1.27","","key","null","16.66979661016943","960","468.5","","","","","","","",""
"3258.89999999851","arrowleft","html-keyboard-response","59","86268","0.0-3.0-2.27-0.27","<div style=""color: white; text-align: center; vertical-align: top; display: inline-block; width: 800px; margin: auto""><p>You have completed 10% of the trials. You are on block 2 of 10. <br>Good job! Take a break if you need to.</p><p>Press any key to continue the experiment.</p></div>","","","","","","","","","","","","",""
"614.2999999970198","arrowright","psychophysics","60","87899","0.0-3.0-0.28","","key","arrowright","16.663567567567462","960","468.5","29","2","1","25","15","25","35","true"
"null","null","psychophysics","61","88902","0.0-3.0-1.28","","key","null","16.667711864406847","960","468.5","","","","","","","",""
"980","arrowleft","psychophysics","62","89885","0.0-3.0-0.29","","key","arrowleft","16.671189655172228","960","468.5","30","2","-1","26","35","25","35","true"
"null","null","psychophysics","63","90887","0.0-3.0-1.29","","key","null","16.668813559322142","960","468.5","","","","","","","",""
"469.5","arrowright","psychophysics","64","91365","0.0-3.0-0.30","","key","arrowright","16.665071428571537","960","468.5","31","2","1","20","15","25","35","true"
"null","null","psychophysics","65","92367","0.0-3.0-1.30","","key","null","16.66769491525424","960","468.5","","","","","","","",""
"637","arrowright","psychophysics","66","93008","0.0-3.0-0.31","","key","arrowright","16.670447368421407","960","468.5","32","2","1","26","15","25","35","true"
"null","null","psychophysics","67","94011","0.0-3.0-1.31","","key","null","16.669271186440817","960","468.5","","","","","","","",""
"580","arrowleft","psychophysics","68","94596","0.0-3.0-0.32","","key","arrowleft","16.666529411764607","960","468.5","33","2","1","20","35","25","35","false"
"null","null","psychophysics","69","95604","0.0-3.0-1.32","","key","null","16.668457627118617","960","468.5","","","","","","","",""
"588.8000000044703","arrowleft","psychophysics","70","96201","0.0-3.0-0.33","","key","arrowleft","16.667857142857144","960","468.5","34","2","1","25","35","25","35","false"
"null","null","psychophysics","71","97203","0.0-3.0-1.33","","key","null","16.66738983050854","960","468.5","","","","","","","",""
"492.6000000014901","arrowleft","psychophysics","72","97711","0.0-3.0-0.34","","key","arrowleft","16.665899999999965","960","468.5","35","2","-1","23","15","25","35","true"
"null","null","psychophysics","73","98712","0.0-3.0-1.34","","key","null","16.66654237288137","960","468.5","","","","","","","",""
"1250.5","arrowright","psychophysics","74","99965","0.0-3.0-0.35","","key","arrowright","16.66958108108107","960","468.5","36","2","1","27","35","25","35","true"
"null","null","psychophysics","75","100973","0.0-3.0-1.35","","key","null","16.665983333333376","960","468.5","","","","","","","",""
"458.59999999403954","arrowleft","psychophysics","76","101435","0.0-3.0-0.36","","key","arrowleft","16.67753846153825","960","468.5","37","2","-1","20","15","25","35","true"
"null","null","psychophysics","77","102437","0.0-3.0-1.36","","key","null","16.66208474576287","960","468.5","","","","","","","",""
"1598.2999999970198","arrowright","psychophysics","78","104039","0.0-3.0-0.37","","key","arrowright","16.66766666666672","960","468.5","38","2","-1","20","35","25","35","false"
"null","null","psychophysics","79","105042","0.0-3.0-1.37","","key","null","16.661932203389895","960","468.5","","","","","","","",""
"659.3999999985099","arrowright","psychophysics","80","105704","0.0-3.0-0.38","","key","arrowright","16.660315789473795","960","468.5","39","2","1","26","15","25","35","true"
"null","null","psychophysics","81","106705","0.0-3.0-1.38","","key","null","16.667750000000037","960","468.5","","","","","","","",""
"627.6999999955297","arrowright","psychophysics","82","107335","0.0-3.0-0.39","","key","arrowright","16.670416666666924","960","468.5","40","2","1","26","15","25","35","true"
"null","null","psychophysics","83","108338","0.0-3.0-1.39","","key","null","16.669898305084583","960","468.5","","","","","","","",""
"491.1000000014901","arrowleft","psychophysics","84","108837","0.0-3.0-0.40","","key","arrowleft","16.666172413793213","960","468.5","41","2","-1","26","15","25","35","true"
"null","null","psychophysics","85","109840","0.0-3.0-1.40","","key","null","16.668716666666782","960","468.5","","","","","","","",""
"522.5","arrowleft","psychophysics","86","110367","0.0-3.0-0.41","","key","arrowleft","16.67530000000018","960","468.5","42","2","-1","30","15","25","35","true"
"null","null","psychophysics","87","111369","0.0-3.0-1.41","","key","null","16.662881355932214","960","468.5","","","","","","","",""
"579","arrowright","psychophysics","88","111953","0.0-3.0-0.42","","key","arrowright","16.676764705882626","960","468.5","43","2","1","30","15","25","35","true"
"null","null","psychophysics","89","112955","0.0-3.0-1.42","","key","null","16.668610169491593","960","468.5","","","","","","","",""
"712.2000000029802","arrowright","psychophysics","90","113681","0.0-3.0-0.43","","key","arrowright","16.661837209302384","960","468.5","44","2","-1","24","35","25","35","false"
"null","null","psychophysics","91","114682","0.0-3.0-1.43","","key","null","16.66335593220325","960","468.5","","","","","","","",""
"476.69999999552965","arrowleft","psychophysics","92","115161","0.0-3.0-0.44","","key","arrowleft","16.674357142857065","960","468.5","45","2","-1","25","15","25","35","true"
"null","null","psychophysics","93","116162","0.0-3.0-1.44","","key","null","16.671610169491526","960","468.5","","","","","","","",""
"743.2999999970198","arrowleft","psychophysics","94","116908","0.0-3.0-0.45","","key","arrowleft","16.66690909090903","960","468.5","46","2","-1","23","15","25","35","true"
"null","null","psychophysics","95","117912","0.0-3.0-1.45","","key","null","16.66967796610167","960","468.5","","","","","","","",""
"464.8999999985099","arrowleft","psychophysics","96","118380","0.0-3.0-0.46","","key","arrowleft","16.678999999999952","960","468.5","47","2","-1","24","15","25","35","true"
"null","null","psychophysics","97","119383","0.0-3.0-1.46","","key","null","16.66576271186439","960","468.5","","","","","","","",""
"629.3999999985099","arrowright","psychophysics","98","120016","0.0-3.0-0.47","","key","arrowright","16.663432432432593","960","468.5","48","2","1","23","15","25","35","true"
"null","null","psychophysics","99","121019","0.0-3.0-1.47","","key","null","16.66625423728828","960","468.5","","","","","","","",""
"569.7000000029802","arrowright","psychophysics","100","121591","0.0-3.0-0.48","","key","arrowright","16.664558823529447","960","468.5","49","2","-1","25","35","25","35","false"
"null","null","psychophysics","101","122592","0.0-3.0-1.48","","key","null","16.664830508474427","960","468.5","","","","","","","",""
"1480.7000000029802","arrowleft","psychophysics","102","124082","0.0-3.0-0.49","","key","arrowleft","16.66688636363638","960","468.5","50","2","-1","27","35","25","35","true"
"null","null","psychophysics","103","125084","0.0-3.0-1.49","","key","null","16.66686440677968","960","468.5","","","","","","","",""
"581.8999999985099","arrowleft","psychophysics","104","125671","0.0-3.0-0.50","","key","arrowleft","16.6662352941177","960","468.5","51","2","-1","26","15","25","35","true"
"null","null","psychophysics","105","126672","0.0-3.0-1.50","","key","null","16.664533333333384","960","468.5","","","","","","","",""
"455.19999999552965","arrowleft","psychophysics","106","127130","0.0-3.0-0.51","","key","arrowleft","16.67096153846125","960","468.5","52","2","-1","26","15","25","35","true"
"null","null","psychophysics","107","128134","0.0-3.0-1.51","","key","null","16.668033898305158","960","468.5","","","","","","","",""
"734.7999999970198","arrowright","psychophysics","108","128876","0.0-3.0-0.52","","key","arrowright","16.667999999999832","960","468.5","53","2","-1","23","35","25","35","false"
"null","null","psychophysics","109","129877","0.0-3.0-1.52","","key","null","16.66615254237288","960","468.5","","","","","","","",""
"421.29999999701977","arrowleft","psychophysics","110","130301","0.0-3.0-0.53","","key","arrowleft","16.66974999999972","960","468.5","54","2","-1","24","15","25","35","true"
"null","null","psychophysics","111","131303","0.0-3.0-1.53","","key","null","16.667423728813507","960","468.5","","","","","","","",""
"699.8000000044703","arrowright","psychophysics","112","132011","0.0-3.0-0.54","","key","arrowright","16.669523809524392","960","468.5","55","2","-1","30","35","25","35","false"
"null","null","psychophysics","113","133013","0.0-3.0-1.54","","key","null","16.666932203389617","960","468.5","","","","","","","",""
"700.1000000014901","arrowright","psychophysics","114","133718","0.0-3.0-0.55","","key","arrowright","16.66204878048781","960","468.5","56","3","-1","20","35","25","35","false"
"null","null","psychophysics","115","134720","0.0-3.0-1.55","","key","null","16.668152542372916","960","468.5","","","","","","","",""
"141515.30000000447","arrowleft","html-keyboard-response","116","276239","0.0-3.0-2.55-0.55","<div style=""color: white; text-align: center; vertical-align: top; display: inline-block; width: 800px; margin: auto""><p>You have completed 20% of the trials. You are on block 3 of 10. <br>Good job! Take a break if you need to.</p><p>Press any key to continue the experiment.</p></div>","","","","","","","","","","","","",""
"830.2999999970198","arrowright","psychophysics","117","278088","0.0-3.0-0.56","","key","arrowright","16.666204081633254","960","468.5","57","3","-1","23","35","25","35","false"
"null","null","psychophysics","118","279090","0.0-3.0-1.56","","key","null","16.666499999999846","960","468.5","","","","","","","",""
"677.6000000014901","arrowright","psychophysics","119","279772","0.0-3.0-0.57","","key","arrowright","16.669800000000397","960","468.5","58","3","1","23","15","25","35","true"
"null","null","psychophysics","120","280775","0.0-3.0-1.57","","key","null","16.666932203389617","960","468.5","","","","","","","",""
"467","arrowleft","psychophysics","121","281244","0.0-3.0-0.58","","key","arrowleft","16.669666666666874","960","468.5","59","3","-1","23","15","25","35","true"
"null","null","psychophysics","122","282245","0.0-3.0-1.58","","key","null","16.66818644067813","960","468.5","","","","","","","",""
"575","arrowleft","psychophysics","123","282825","0.0-3.0-0.59","","key","arrowleft","16.671735294117003","960","468.5","60","3","1","24","35","25","35","false"
"null","null","psychophysics","124","283826","0.0-3.0-1.59","","key","null","16.6704406779658","960","468.5","","","","","","","",""
"674.2000000029802","arrowleft","psychophysics","125","284502","0.0-3.0-0.60","","key","arrowleft","16.669205128206297","960","468.5","61","3","1","26","35","25","35","false"
"null","null","psychophysics","126","285504","0.0-3.0-1.60","","key","null","16.670186440678417","960","468.5","","","","","","","",""
"562.7999999970198","arrowleft","psychophysics","127","286081","0.0-3.0-0.61","","key","arrowleft","16.666029411765255","960","468.5","62","3","-1","20","35","25","35","true"
"null","null","psychophysics","128","287084","0.0-3.0-1.61","","key","null","16.66662711864416","960","468.5","","","","","","","",""
"887.7999999970198","arrowleft","psychophysics","129","287980","0.0-3.0-0.62","","key","arrowleft","16.670415094339745","960","468.5","63","3","-1","26","35","25","35","true"
"null","null","psychophysics","130","288994","0.0-3.0-1.62","","key","null","16.667816666666962","960","468.5","","","","","","","",""
"515.6999999955297","arrowright","psychophysics","131","289515","0.0-3.0-0.63","","key","arrowright","16.6695000000007","960","468.5","64","3","1","26","15","25","35","true"
"null","null","psychophysics","132","290518","0.0-3.0-1.63","","key","null","16.66813559322105","960","468.5","","","","","","","",""
"719.3000000044703","arrowleft","psychophysics","133","291251","0.0-3.0-0.64","","key","arrowleft","16.662325581394917","960","468.5","65","3","1","25","35","25","35","false"
"null","null","psychophysics","134","292253","0.0-3.0-1.64","","key","null","16.667762711865166","960","468.5","","","","","","","",""
"748.3000000044703","arrowleft","psychophysics","135","293009","0.0-3.0-0.65","","key","arrowleft","16.66726666666671","960","468.5","66","3","-1","26","35","25","35","true"
"null","null","psychophysics","136","294012","0.0-3.0-1.65","","key","null","16.663372881355365","960","468.5","","","","","","","",""
"584.2999999970198","arrowleft","psychophysics","137","294612","0.0-3.0-0.66","","key","arrowleft","16.668000000000134","960","468.5","67","3","-1","27","35","25","35","true"
"null","null","psychophysics","138","295616","0.0-3.0-1.66","","key","null","16.670084745762278","960","468.5","","","","","","","",""
"474.5","arrowright","psychophysics","139","296095","0.0-3.0-0.67","","key","arrowright","16.665428571427974","960","468.5","68","3","1","20","15","25","35","true"
"null","null","psychophysics","140","297098","0.0-3.0-1.67","","key","null","16.671593220339165","960","468.5","","","","","","","",""
"639.5","arrowright","psychophysics","141","297743","0.0-3.0-0.68","","key","arrowright","16.666947368420598","960","468.5","69","3","-1","20","15","25","35","false"
"null","null","psychophysics","142","298745","0.0-3.0-1.68","","key","null","16.664881355932252","960","468.5","","","","","","","",""
"461.8999999985099","arrowleft","psychophysics","143","299211","0.0-3.0-0.69","","key","arrowleft","16.664703703703168","960","468.5","70","3","-1","25","15","25","35","true"
"null","null","psychophysics","144","300214","0.0-3.0-1.69","","key","null","16.659813559322096","960","468.5","","","","","","","",""
"567","arrowleft","psychophysics","145","300785","0.0-3.0-0.70","","key","arrowleft","16.666757575756602","960","468.5","71","3","-1","27","15","25","35","true"
"null","null","psychophysics","146","301787","0.0-3.0-1.70","","key","null","16.666533333332822","960","468.5","","","","","","","",""
"867.2000000029802","arrowright","psychophysics","147","302656","0.0-3.0-0.71","","key","arrowright","16.666352941176406","960","468.5","72","3","1","25","15","25","35","true"
"null","null","psychophysics","148","303658","0.0-3.0-1.71","","key","null","16.66627118644064","960","468.5","","","","","","","",""
"1010.1000000014901","arrowright","psychophysics","149","304671","0.0-3.0-0.72","","key","arrowright","16.667050000000746","960","468.5","73","3","-1","23","15","25","35","false"
"null","null","psychophysics","150","305672","0.0-3.0-1.72","","key","null","16.66711864406756","960","468.5","","","","","","","",""
"582.5","arrowleft","psychophysics","151","306258","0.0-3.0-0.73","","key","arrowleft","16.66638235294137","960","468.5","74","3","-1","26","15","25","35","true"
"null","null","psychophysics","152","307259","0.0-3.0-1.73","","key","null","16.66652542372901","960","468.5","","","","","","","",""
"1169.3999999985099","arrowright","psychophysics","153","308432","0.0-3.0-0.74","","key","arrowright","16.669289855072208","960","468.5","75","3","1","30","35","25","35","true"
"null","null","psychophysics","154","309434","0.0-3.0-1.74","","key","null","16.666033898304626","960","468.5","","","","","","","",""
"1340.3000000044703","arrowright","psychophysics","155","310776","0.0-3.0-0.75","","key","arrowright","16.665975000000618","960","468.5","76","3","1","26","35","25","35","true"
"null","null","psychophysics","156","311779","0.0-3.0-1.75","","key","null","16.665254237288135","960","468.5","","","","","","","",""
"687","arrowright","psychophysics","157","312474","0.0-3.0-0.76","","key","arrowright","16.67124390243922","960","468.5","77","3","1","27","15","25","35","true"
"null","null","psychophysics","158","313476","0.0-3.0-1.76","","key","null","16.6642881355937","960","468.5","","","","","","","",""
"1042.3999999985099","arrowright","psychophysics","159","314521","0.0-3.0-0.77","","key","arrowright","16.667754098360778","960","468.5","78","3","-1","24","15","25","35","false"
"null","null","psychophysics","160","315523","0.0-3.0-1.77","","key","null","16.667116666666697","960","468.5","","","","","","","",""
"536.7999999970198","arrowleft","psychophysics","161","316064","0.0-3.0-0.78","","key","arrowleft","16.661290322580644","960","468.5","79","3","-1","24","15","25","35","true"
"null","null","psychophysics","162","317067","0.0-3.0-1.78","","key","null","16.666864406779187","960","468.5","","","","","","","",""
"638.7000000029802","arrowright","psychophysics","163","317713","0.0-3.0-0.79","","key","arrowright","16.6624736842105","960","468.5","80","3","-1","20","15","25","35","false"
"null","null","psychophysics","164","318716","0.0-3.0-1.79","","key","null","16.667271186440782","960","468.5","","","","","","","",""
"638.1999999955297","arrowleft","psychophysics","165","319357","0.0-3.0-0.80","","key","arrowleft","16.67094736842065","960","468.5","81","3","1","20","35","25","35","false"
"null","null","psychophysics","166","320359","0.0-3.0-1.80","","key","null","16.663644067797083","960","468.5","","","","","","","",""
"725.2000000029802","arrowleft","psychophysics","167","321088","0.0-3.0-0.81","","key","arrowleft","16.662238095238404","960","468.5","82","3","1","23","35","25","35","false"
"null","null","psychophysics","168","322090","0.0-3.0-1.81","","key","null","16.668433333332846","960","468.5","","","","","","","",""
"644.8999999985099","arrowright","psychophysics","169","322739","0.0-3.0-0.82","","key","arrowright","16.660684210525545","960","468.5","83","3","1","23","15","25","35","true"
"null","null","psychophysics","170","323742","0.0-3.0-1.82","","key","null","16.66469491525431","960","468.5","","","","","","","",""
"638.8000000044703","arrowleft","psychophysics","171","324388","0.0-3.0-0.83","","key","arrowleft","16.670351351350167","960","468.5","84","4","-1","25","35","25","35","true"
"null","null","psychophysics","172","325390","0.0-3.0-1.83","","key","null","16.66893333333331","960","468.5","","","","","","","",""
"2587.7999999970198","arrowleft","html-keyboard-response","173","327980","0.0-3.0-2.83-0.83","<div style=""color: white; text-align: center; vertical-align: top; display: inline-block; width: 800px; margin: auto""><p>You have completed 30% of the trials. You are on block 4 of 10. <br>Good job! Take a break if you need to.</p><p>Press any key to continue the experiment.</p></div>","","","","","","","","","","","","",""
"1160.1999999955297","arrowleft","psychophysics","174","330153","0.0-3.0-0.84","","key","arrowleft","16.666478260869894","960","468.5","85","4","1","24","35","25","35","false"
"null","null","psychophysics","175","331159","0.0-3.0-1.84","","key","null","16.667333333332984","960","468.5","","","","","","","",""
"604.7999999970198","arrowleft","psychophysics","176","331767","0.0-3.0-0.85","","key","arrowleft","16.674428571428038","960","468.5","86","4","-1","27","15","25","35","true"
"null","null","psychophysics","177","332769","0.0-3.0-1.85","","key","null","16.66430508474606","960","468.5","","","","","","","",""
"1836.6999999955297","arrowright","psychophysics","178","334614","0.0-3.0-0.86","","key","arrowright","16.668490909090774","960","468.5","87","4","1","26","35","25","35","true"
"null","null","psychophysics","179","335616","0.0-3.0-1.86","","key","null","16.667847457627957","960","468.5","","","","","","","",""
"413.1000000014901","arrowleft","psychophysics","180","336039","0.0-3.0-0.87","","key","arrowleft","16.67152000000002","960","468.5","88","4","1","20","15","25","35","false"
"null","null","psychophysics","181","337041","0.0-3.0-1.87","","key","null","16.668220338982852","960","468.5","","","","","","","",""
"286.1000000014901","arrowleft","psychophysics","182","337331","0.0-3.0-0.88","","key","arrowleft","16.654499999996915","960","468.5","89","4","1","20","15","25","35","false"
"null","null","psychophysics","183","338333","0.0-3.0-1.88","","key","null","16.664508474575378","960","468.5","","","","","","","",""
"361.5","arrowright","psychophysics","184","338699","0.0-3.0-0.89","","key","arrowright","16.657761904763035","960","468.5","90","4","-1","26","15","25","35","false"
"null","null","psychophysics","185","339701","0.0-3.0-1.89","","key","null","16.66420338983091","960","468.5","","","","","","","",""
"572.5","arrowleft","psychophysics","186","340275","0.0-3.0-0.90","","key","arrowleft","16.67661764705896","960","468.5","91","4","1","30","35","25","35","false"
"null","null","psychophysics","187","341278","0.0-3.0-1.90","","key","null","16.66150847457594","960","468.5","","","","","","","",""
"1002.2000000029802","arrowright","psychophysics","188","342286","0.0-3.0-0.91","","key","arrowright","16.672999999999913","960","468.5","92","4","1","25","35","25","35","true"
"null","null","psychophysics","189","343288","0.0-3.0-1.91","","key","null","16.670118644067987","960","468.5","","","","","","","",""
"1594.5999999940395","arrowleft","psychophysics","190","344890","0.0-3.0-0.92","","key","arrowleft","16.66811458333359","960","468.5","93","4","1","23","35","25","35","false"
"null","null","psychophysics","191","345892","0.0-3.0-1.92","","key","null","16.66737288135593","960","468.5","","","","","","","",""
"554.6000000014901","arrowleft","psychophysics","192","346451","0.0-3.0-0.93","","key","arrowleft","16.662281250000888","960","468.5","94","4","-1","27","15","25","35","true"
"null","null","psychophysics","193","347453","0.0-3.0-1.93","","key","null","16.671525423728735","960","468.5","","","","","","","",""
"560.3999999985099","arrowright","psychophysics","194","348034","0.0-3.0-0.94","","key","arrowright","16.66638235294137","960","468.5","95","4","1","24","15","25","35","true"
"null","null","psychophysics","195","349038","0.0-3.0-1.94","","key","null","16.668355932203713","960","468.5","","","","","","","",""
"587","arrowright","psychophysics","196","349631","0.0-3.0-0.95","","key","arrowright","16.664428571428704","960","468.5","96","4","1","24","15","25","35","true"
"null","null","psychophysics","197","350638","0.0-3.0-1.95","","key","null","16.672525423728878","960","468.5","","","","","","","",""
"763.8000000044703","arrowleft","psychophysics","198","351410","0.0-3.0-0.96","","key","arrowleft","16.66641304347887","960","468.5","97","4","1","24","35","25","35","false"
"null","null","psychophysics","199","352415","0.0-3.0-1.96","","key","null","16.668016949152552","960","468.5","","","","","","","",""
"604.8999999985099","arrowleft","psychophysics","200","353025","0.0-3.0-0.97","","key","arrowleft","16.665361111110542","960","468.5","98","4","1","23","35","25","35","false"
"null","null","psychophysics","201","354037","0.0-3.0-1.97","","key","null","16.663796610169317","960","468.5","","","","","","","",""
"678.7999999970198","arrowright","psychophysics","202","354718","0.0-3.0-0.98","","key","arrowright","16.672125000000232","960","468.5","99","4","-1","20","15","25","35","false"
"null","null","psychophysics","203","355721","0.0-3.0-1.98","","key","null","16.66708474576284","960","468.5","","","","","","","",""
"680.3000000044703","arrowright","psychophysics","204","356407","0.0-3.0-0.99","","key","arrowright","16.66348780487897","960","468.5","100","4","1","27","15","25","35","true"
"null","null","psychophysics","205","357421","0.0-3.0-1.99","","key","null","16.66949152542373","960","468.5","","","","","","","",""
"1385.1000000014901","arrowright","psychophysics","206","358812","0.0-3.0-0.100","","key","arrowright","16.664156626506024","960","468.5","101","4","-1","20","35","25","35","false"
"null","null","psychophysics","207","359823","0.0-3.0-1.100","","key","null","16.668616666667123","960","468.5","","","","","","","",""
"563.6000000014901","arrowleft","psychophysics","208","360393","0.0-3.0-0.101","","key","arrowleft","16.663848484848682","960","468.5","102","4","-1","30","35","25","35","true"
"null","null","psychophysics","209","361403","0.0-3.0-1.101","","key","null","16.67032203389829","960","468.5","","","","","","","",""
"578.2999999970198","arrowright","psychophysics","210","361994","0.0-3.0-0.102","","key","arrowright","16.66688571428614","960","468.5","103","4","1","27","15","25","35","true"
"null","null","psychophysics","211","363002","0.0-3.0-1.102","","key","null","16.66620338983021","960","468.5","","","","","","","",""
"1235.8000000044703","arrowleft","psychophysics","212","364240","0.0-3.0-0.103","","key","arrowleft","16.66686486486484","960","468.5","104","4","1","24","35","25","35","false"
"null","null","psychophysics","213","365252","0.0-3.0-1.103","","key","null","16.66311864406798","960","468.5","","","","","","","",""
"611.7999999970198","arrowleft","psychophysics","214","365880","0.0-3.0-0.104","","key","arrowleft","16.665999999999798","960","468.5","105","4","1","23","35","25","35","false"
"null","null","psychophysics","215","366885","0.0-3.0-1.104","","key","null","16.66947457627137","960","468.5","","","","","","","",""
"553","arrowright","psychophysics","216","367449","0.0-3.0-0.105","","key","arrowright","16.67099999999945","960","468.5","106","4","1","27","15","25","35","true"
"null","null","psychophysics","217","368455","0.0-3.0-1.105","","key","null","16.66876271186432","960","468.5","","","","","","","",""
"746.3000000044703","arrowright","psychophysics","218","369207","0.0-3.0-0.106","","key","arrowright","16.6674000000012","960","468.5","107","4","1","26","15","25","35","true"
"null","null","psychophysics","219","370211","0.0-3.0-1.106","","key","null","16.664915254236973","960","468.5","","","","","","","",""
"358.1000000014901","arrowright","psychophysics","220","370573","0.0-3.0-0.107","","key","arrowright","16.6598095238109","960","468.5","108","4","1","20","35","25","35","true"
"null","null","psychophysics","221","371586","0.0-3.0-1.107","","key","null","16.666288135593987","960","468.5","","","","","","","",""
"529.7999999970198","arrowleft","psychophysics","222","372125","0.0-3.0-0.108","","key","arrowleft","16.665999999999258","960","468.5","109","4","-1","27","35","25","35","true"
"null","null","psychophysics","223","373130","0.0-3.0-1.108","","key","null","16.66394915254155","960","468.5","","","","","","","",""
"560","arrowleft","psychophysics","224","373695","0.0-3.0-0.109","","key","arrowleft","16.660575757575728","960","468.5","110","4","-1","27","35","25","35","true"
"null","null","psychophysics","225","374704","0.0-3.0-1.109","","key","null","16.668271186440922","960","468.5","","","","","","","",""
"544.5","arrowleft","psychophysics","226","375252","0.0-3.0-0.110","","key","arrowleft","16.672343750000437","960","468.5","111","4","1","23","15","25","35","false"
"null","null","psychophysics","227","376254","0.0-3.0-1.110","","key","null","16.66632203389871","960","468.5","","","","","","","",""
"579.1000000014901","arrowleft","psychophysics","228","376836","0.0-3.0-0.111","","key","arrowleft","16.668941176470767","960","468.5","112","5","1","26","35","25","35","false"
"null","null","psychophysics","229","377838","0.0-3.0-1.111","","key","null","16.670016949151847","960","468.5","","","","","","","",""
"280.20000000298023","arrowleft","html-keyboard-response","230","378131","0.0-3.0-2.111-0.111","<div style=""color: white; text-align: center; vertical-align: top; display: inline-block; width: 800px; margin: auto""><p>You have completed 40% of the trials. You are on block 5 of 10. <br>Good job! Take a break if you need to.</p><p>Press any key to continue the experiment.</p></div>","","","","","","","","","","","","",""
"806.1000000014901","arrowleft","psychophysics","231","379955","0.0-3.0-0.112","","key","arrowleft","16.665729166667006","960","468.5","113","5","1","23","35","25","35","false"
"null","null","psychophysics","232","380957","0.0-3.0-1.112","","key","null","16.66813333333315","960","468.5","","","","","","","",""
"1080.5","arrowright","psychophysics","233","382042","0.0-3.0-0.113","","key","arrowright","16.667093750000276","960","468.5","114","5","1","30","35","25","35","true"
"null","null","psychophysics","234","383044","0.0-3.0-1.113","","key","null","16.669627118643604","960","468.5","","","","","","","",""
"761.1999999955297","arrowright","psychophysics","235","383808","0.0-3.0-0.114","","key","arrowright","16.6664888888895","960","468.5","115","5","-1","23","35","25","35","false"
"null","null","psychophysics","236","384816","0.0-3.0-1.114","","key","null","16.667644067796665","960","468.5","","","","","","","",""
"571.3000000044703","arrowleft","psychophysics","237","385392","0.0-3.0-0.115","","key","arrowleft","16.665852941175483","960","468.5","116","5","-1","30","35","25","35","true"
"null","null","psychophysics","238","386393","0.0-3.0-1.115","","key","null","16.66784745762697","960","468.5","","","","","","","",""
"720.6999999955297","arrowleft","psychophysics","239","387115","0.0-3.0-0.116","","key","arrowleft","16.66940476190454","960","468.5","117","5","1","20","15","25","35","false"
"null","null","psychophysics","240","388119","0.0-3.0-1.116","","key","null","16.667745762711817","960","468.5","","","","","","","",""
"635.0999999940395","arrowright","psychophysics","241","388761","0.0-3.0-0.117","","key","arrowright","16.66744736842137","960","468.5","118","5","1","27","15","25","35","true"
"null","null","psychophysics","242","389764","0.0-3.0-1.117","","key","null","16.66983050847489","960","468.5","","","","","","","",""
"715.5","arrowleft","psychophysics","243","390488","0.0-3.0-0.118","","key","arrowleft","16.6707142857139","960","468.5","119","5","-1","23","35","25","35","true"
"null","null","psychophysics","244","391490","0.0-3.0-1.118","","key","null","16.665149999999752","960","468.5","","","","","","","",""
"781.7000000029802","arrowleft","psychophysics","245","392275","0.0-3.0-0.119","","key","arrowleft","16.67086956521709","960","468.5","120","5","-1","23","35","25","35","true"
"null","null","psychophysics","246","393277","0.0-3.0-1.119","","key","null","16.666864406779187","960","468.5","","","","","","","",""
"607.7000000029802","arrowleft","psychophysics","247","393887","0.0-3.0-0.120","","key","arrowleft","16.669342857143576","960","468.5","121","5","-1","26","15","25","35","true"
"null","null","psychophysics","248","394889","0.0-3.0-1.120","","key","null","16.666716666667103","960","468.5","","","","","","","",""
"763.1000000014901","arrowright","psychophysics","249","395657","0.0-3.0-0.121","","key","arrowright","16.665622222221767","960","468.5","122","5","-1","25","35","25","35","false"
"null","null","psychophysics","250","396665","0.0-3.0-1.121","","key","null","16.666745762711674","960","468.5","","","","","","","",""
"473","arrowright","psychophysics","251","397141","0.0-3.0-0.122","","key","arrowright","16.677785714285815","960","468.5","123","5","-1","20","15","25","35","false"
"null","null","psychophysics","252","398144","0.0-3.0-1.122","","key","null","16.66557627118694","960","468.5","","","","","","","",""
"417.1000000014901","arrowleft","psychophysics","253","398565","0.0-3.0-0.123","","key","arrowleft","16.667583333333216","960","468.5","124","5","-1","27","15","25","35","true"
"null","null","psychophysics","254","399569","0.0-3.0-1.123","","key","null","16.666762711865022","960","468.5","","","","","","","",""
"506.6000000014901","arrowright","psychophysics","255","400083","0.0-3.0-0.124","","key","arrowright","16.662899999999595","960","468.5","125","5","-1","20","35","25","35","false"
"null","null","psychophysics","256","401084","0.0-3.0-1.124","","key","null","16.67127118644135","960","468.5","","","","","","","",""
"376.6000000014901","arrowleft","psychophysics","257","401468","0.0-3.0-0.125","","key","arrowleft","16.659454545453297","960","468.5","126","5","-1","24","35","25","35","true"
"null","null","psychophysics","258","402473","0.0-3.0-1.125","","key","null","16.671649999999985","960","468.5","","","","","","","",""
"505.1000000014901","arrowleft","psychophysics","259","402983","0.0-3.0-0.126","","key","arrowleft","16.653689655172236","960","468.5","127","5","1","20","35","25","35","false"
"null","null","psychophysics","260","403984","0.0-3.0-1.126","","key","null","16.670203389830778","960","468.5","","","","","","","",""
"556.1000000014901","arrowleft","psychophysics","261","404545","0.0-3.0-0.127","","key","arrowleft","16.665212121211823","960","468.5","128","5","-1","26","15","25","35","true"
"null","null","psychophysics","262","405547","0.0-3.0-1.127","","key","null","16.663745762712235","960","468.5","","","","","","","",""
"567.7999999970198","arrowright","psychophysics","263","406118","0.0-3.0-0.128","","key","arrowright","16.6723030303044","960","468.5","129","5","1","25","15","25","35","true"
"null","null","psychophysics","264","407121","0.0-3.0-1.128","","key","null","16.669627118644588","960","468.5","","","","","","","",""
"489.6000000014901","arrowleft","psychophysics","265","407629","0.0-3.0-0.129","","key","arrowleft","16.666966666667335","960","468.5","130","5","-1","30","15","25","35","true"
"null","null","psychophysics","266","408638","0.0-3.0-1.129","","key","null","16.6642881355937","960","468.5","","","","","","","",""
"555.2000000029802","arrowleft","psychophysics","267","409201","0.0-3.0-0.130","","key","arrowleft","16.66609090909002","960","468.5","131","5","-1","30","15","25","35","true"
"null","null","psychophysics","268","410205","0.0-3.0-1.130","","key","null","16.666745762711674","960","468.5","","","","","","","",""
"714.5","arrowleft","psychophysics","269","410925","0.0-3.0-0.131","","key","arrowleft","16.66960465116291","960","468.5","132","5","-1","27","15","25","35","true"
"null","null","psychophysics","270","411938","0.0-3.0-1.131","","key","null","16.66642372881386","960","468.5","","","","","","","",""
"543","arrowright","psychophysics","271","412486","0.0-3.0-0.132","","key","arrowright","16.66925000000083","960","468.5","133","5","1","26","15","25","35","true"
"null","null","psychophysics","272","413488","0.0-3.0-1.132","","key","null","16.66937288135523","960","468.5","","","","","","","",""
"443.30000000447035","arrowleft","psychophysics","273","413940","0.0-3.0-0.133","","key","arrowleft","16.664148148149252","960","468.5","134","5","1","25","15","25","35","false"
"null","null","psychophysics","274","414948","0.0-3.0-1.133","","key","null","16.665220338983413","960","468.5","","","","","","","",""
"904.9000000059605","arrowleft","psychophysics","275","415858","0.0-3.0-0.134","","key","arrowleft","16.66227777777843","960","468.5","135","5","-1","26","35","25","35","true"
"null","null","psychophysics","276","416867","0.0-3.0-1.134","","key","null","16.671661016949596","960","468.5","","","","","","","",""
"1167.3999999985099","arrowleft","psychophysics","277","418039","0.0-3.0-0.135","","key","arrowleft","16.664257142857448","960","468.5","136","5","-1","26","35","25","35","true"
"null","null","psychophysics","278","419040","0.0-3.0-1.135","","key","null","16.667694915253747","960","468.5","","","","","","","",""
"667.8999999985099","arrowright","psychophysics","279","419711","0.0-3.0-0.136","","key","arrowright","16.662128205129054","960","468.5","137","5","1","25","15","25","35","true"
"null","null","psychophysics","280","420721","0.0-3.0-1.136","","key","null","16.66735593220357","960","468.5","","","","","","","",""
"647.7999999970198","arrowleft","psychophysics","281","421371","0.0-3.0-0.137","","key","arrowleft","16.669026315789733","960","468.5","138","5","1","27","35","25","35","false"
"null","null","psychophysics","282","422373","0.0-3.0-1.137","","key","null","16.669916666666783","960","468.5","","","","","","","",""
"590.1999999955297","arrowright","psychophysics","283","422968","0.0-3.0-0.138","","key","arrowright","16.66697058823432","960","468.5","139","5","1","24","15","25","35","true"
"null","null","psychophysics","284","423972","0.0-3.0-1.138","","key","null","16.667864406780318","960","468.5","","","","","","","",""
"512.3999999985099","arrowleft","psychophysics","285","424491","0.0-3.0-0.139","","key","arrowleft","16.66406451612936","960","468.5","140","6","-1","30","15","25","35","true"
"null","null","psychophysics","286","425503","0.0-3.0-1.139","","key","null","16.663508474576222","960","468.5","","","","","","","",""
"2712.60000000149","arrowleft","html-keyboard-response","287","428230","0.0-3.0-2.139-0.139","<div style=""color: white; text-align: center; vertical-align: top; display: inline-block; width: 800px; margin: auto""><p>You have completed 50% of the trials. You are on block 6 of 10. <br>Good job! Take a break if you need to.</p><p>Press any key to continue the experiment.</p></div>","","","","","","","","","","","","",""
"1227.7999999970198","arrowleft","psychophysics","288","430473","0.0-3.0-0.140","","key","arrowleft","16.66510810810802","960","468.5","141","6","1","23","35","25","35","false"
"null","null","psychophysics","289","431476","0.0-3.0-1.140","","key","null","16.666779661017383","960","468.5","","","","","","","",""
"759.0999999940395","arrowright","psychophysics","290","432240","0.0-3.0-0.141","","key","arrowright","16.670555555555296","960","468.5","142","6","1","30","35","25","35","true"
"null","null","psychophysics","291","433243","0.0-3.0-1.141","","key","null","16.66708474576284","960","468.5","","","","","","","",""
"534.1000000014901","arrowleft","psychophysics","292","433782","0.0-3.0-0.142","","key","arrowleft","16.667903225806977","960","468.5","143","6","-1","25","15","25","35","true"
"null","null","psychophysics","293","434784","0.0-3.0-1.142","","key","null","16.665830508474325","960","468.5","","","","","","","",""
"587.2000000029802","arrowleft","psychophysics","294","435387","0.0-3.0-0.143","","key","arrowleft","16.67114285714259","960","468.5","144","6","-1","20","15","25","35","true"
"null","null","psychophysics","295","436389","0.0-3.0-1.143","","key","null","16.66628333333356","960","468.5","","","","","","","",""
"496.80000000447035","arrowleft","psychophysics","296","436890","0.0-3.0-0.144","","key","arrowleft","16.653689655172236","960","468.5","145","6","-1","25","15","25","35","true"
"null","null","psychophysics","297","437892","0.0-3.0-1.144","","key","null","16.669949152542404","960","468.5","","","","","","","",""
"450.6000000014901","arrowright","psychophysics","298","438352","0.0-3.0-0.145","","key","arrowright","16.67080769230737","960","468.5","146","6","1","30","15","25","35","true"
"null","null","psychophysics","299","439353","0.0-3.0-1.145","","key","null","16.669372881356217","960","468.5","","","","","","","",""
"437.3999999985099","arrowleft","psychophysics","300","439798","0.0-3.0-0.146","","key","arrowleft","16.674884615385402","960","468.5","147","6","-1","30","15","25","35","true"
"null","null","psychophysics","301","440801","0.0-3.0-1.146","","key","null","16.668237288135213","960","468.5","","","","","","","",""
"526.6000000014901","arrowright","psychophysics","302","441330","0.0-3.0-0.147","","key","arrowright","16.670451612902745","960","468.5","148","6","1","24","15","25","35","true"
"null","null","psychophysics","303","442331","0.0-3.0-1.147","","key","null","16.668372881356074","960","468.5","","","","","","","",""
"435.30000000447035","arrowleft","psychophysics","304","442770","0.0-3.0-0.148","","key","arrowleft","16.66967999999877","960","468.5","149","6","-1","30","35","25","35","true"
"null","null","psychophysics","305","443773","0.0-3.0-1.148","","key","null","16.665483333332425","960","468.5","","","","","","","",""
"364.79999999701977","arrowleft","psychophysics","306","444153","0.0-3.0-0.149","","key","arrowleft","16.660523809523077","960","468.5","150","6","-1","20","35","25","35","true"
"null","null","psychophysics","307","445154","0.0-3.0-1.149","","key","null","16.673033898304634","960","468.5","","","","","","","",""
"852.2999999970198","arrowright","psychophysics","308","446013","0.0-3.0-0.150","","key","arrowright","16.66286274509769","960","468.5","151","6","-1","20","15","25","35","false"
"null","null","psychophysics","309","447015","0.0-3.0-1.150","","key","null","16.66947457627137","960","468.5","","","","","","","",""
"621.1000000014901","arrowleft","psychophysics","310","447640","0.0-3.0-0.151","","key","arrowleft","16.665324324325066","960","468.5","152","6","1","30","35","25","35","false"
"null","null","psychophysics","311","448642","0.0-3.0-1.151","","key","null","16.669033898305052","960","468.5","","","","","","","",""
"529.8999999985099","arrowleft","psychophysics","312","449176","0.0-3.0-0.152","","key","arrowleft","16.666903225806422","960","468.5","153","6","-1","24","35","25","35","true"
"null","null","psychophysics","313","450177","0.0-3.0-1.152","","key","null","16.66720338983035","960","468.5","","","","","","","",""
"472.8999999985099","arrowleft","psychophysics","314","450659","0.0-3.0-0.153","","key","arrowleft","16.675464285714302","960","468.5","154","6","1","23","15","25","35","false"
"null","null","psychophysics","315","451663","0.0-3.0-1.153","","key","null","16.6725593220336","960","468.5","","","","","","","",""
"570.3999999985099","arrowright","psychophysics","316","452238","0.0-3.0-0.154","","key","arrowright","16.673575757575843","960","468.5","155","6","1","30","35","25","35","true"
"null","null","psychophysics","317","453241","0.0-3.0-1.154","","key","null","16.66673333333359","960","468.5","","","","","","","",""
"477.79999999701977","arrowleft","psychophysics","318","453720","0.0-3.0-0.155","","key","arrowleft","16.666629629630027","960","468.5","156","6","-1","24","15","25","35","true"
"null","null","psychophysics","319","454722","0.0-3.0-1.155","","key","null","16.666399999999946","960","468.5","","","","","","","",""
"639.6000000014901","arrowleft","psychophysics","320","455364","0.0-3.0-0.156","","key","arrowleft","16.673054054055388","960","468.5","157","6","-1","23","15","25","35","true"
"null","null","psychophysics","321","456367","0.0-3.0-1.156","","key","null","16.66654237288137","960","468.5","","","","","","","",""
"643","arrowleft","psychophysics","322","457027","0.0-3.0-0.157","","key","arrowleft","16.66812820512897","960","468.5","158","6","-1","26","35","25","35","true"
"null","null","psychophysics","323","458030","0.0-3.0-1.157","","key","null","16.662542372880804","960","468.5","","","","","","","",""
"546.8000000044703","arrowright","psychophysics","324","458582","0.0-3.0-0.158","","key","arrowright","16.666312500001368","960","468.5","159","6","1","30","15","25","35","true"
"null","null","psychophysics","325","459583","0.0-3.0-1.158","","key","null","16.66867796610153","960","468.5","","","","","","","",""
"497.6000000014901","arrowleft","psychophysics","326","460083","0.0-3.0-0.159","","key","arrowleft","16.669586206896728","960","468.5","160","6","-1","30","15","25","35","true"
"null","null","psychophysics","327","461084","0.0-3.0-1.159","","key","null","16.66867796610153","960","468.5","","","","","","","",""
"642","arrowright","psychophysics","328","461739","0.0-3.0-0.160","","key","arrowright","16.66653846153834","960","468.5","161","6","1","27","15","25","35","true"
"null","null","psychophysics","329","462740","0.0-3.0-1.160","","key","null","16.66783050847461","960","468.5","","","","","","","",""
"640.8999999985099","arrowleft","psychophysics","330","463390","0.0-3.0-0.161","","key","arrowleft","16.67097368420984","960","468.5","162","6","1","25","15","25","35","false"
"null","null","psychophysics","331","464393","0.0-3.0-1.161","","key","null","16.6690508474584","960","468.5","","","","","","","",""
"654.1000000014901","arrowleft","psychophysics","332","465051","0.0-3.0-0.162","","key","arrowleft","16.669789473683952","960","468.5","163","6","-1","27","35","25","35","true"
"null","null","psychophysics","333","466054","0.0-3.0-1.162","","key","null","16.668423728813156","960","468.5","","","","","","","",""
"260.8999999985099","arrowleft","psychophysics","334","466320","0.0-3.0-0.163","","key","arrowleft","16.66019999999941","960","468.5","164","6","1","24","35","25","35","false"
"null","null","psychophysics","335","467323","0.0-3.0-1.163","","key","null","16.669433333333775","960","468.5","","","","","","","",""
"509.29999999701977","arrowleft","psychophysics","336","467837","0.0-3.0-0.164","","key","arrowleft","16.66686206896476","960","468.5","165","6","-1","25","15","25","35","true"
"null","null","psychophysics","337","468840","0.0-3.0-1.164","","key","null","16.666233333333125","960","468.5","","","","","","","",""
"527.8999999985099","arrowright","psychophysics","338","469381","0.0-3.0-0.165","","key","arrowright","16.676322580645643","960","468.5","166","6","-1","25","35","25","35","false"
"null","null","psychophysics","339","470384","0.0-3.0-1.165","","key","null","16.666864406779187","960","468.5","","","","","","","",""
"1103","arrowright","psychophysics","340","471495","0.0-3.0-0.166","","key","arrowright","16.66907575757553","960","468.5","167","6","-1","30","35","25","35","false"
"null","null","psychophysics","341","472498","0.0-3.0-1.166","","key","null","16.664152542372843","960","468.5","","","","","","","",""
"573.8000000044703","arrowleft","psychophysics","342","473076","0.0-3.0-0.167","","key","arrowleft","16.666705882353092","960","468.5","168","7","-1","25","15","25","35","true"
"null","null","psychophysics","343","474079","0.0-3.0-1.167","","key","null","16.66388135593211","960","468.5","","","","","","","",""
"1082.2000000029802","arrowleft","html-keyboard-response","344","475166","0.0-3.0-2.167-0.167","<div style=""color: white; text-align: center; vertical-align: top; display: inline-block; width: 800px; margin: auto""><p>You have completed 60% of the trials. You are on block 7 of 10. <br>Good job! Take a break if you need to.</p><p>Press any key to continue the experiment.</p></div>","","","","","","","","","","","","",""
"636.0999999940395","arrowleft","psychophysics","345","476836","0.0-3.0-0.168","","key","arrowleft","16.673157894735738","960","468.5","169","7","-1","23","15","25","35","true"
"null","null","psychophysics","346","477838","0.0-3.0-1.168","","key","null","16.664491525424005","960","468.5","","","","","","","",""
"652","arrowleft","psychophysics","347","478495","0.0-3.0-0.169","","key","arrowleft","16.66933333333313","960","468.5","170","7","-1","23","15","25","35","true"
"null","null","psychophysics","348","479498","0.0-3.0-1.169","","key","null","16.665983050847544","960","468.5","","","","","","","",""
"444.20000000298023","arrowright","psychophysics","349","479946","0.0-3.0-0.170","","key","arrowright","16.658576923075508","960","468.5","171","7","1","23","15","25","35","true"
"null","null","psychophysics","350","480947","0.0-3.0-1.170","","key","null","16.666932203389617","960","468.5","","","","","","","",""
"923.7999999970198","arrowleft","psychophysics","351","481874","0.0-3.0-0.171","","key","arrowleft","16.66590909090909","960","468.5","172","7","-1","24","35","25","35","true"
"null","null","psychophysics","352","482884","0.0-3.0-1.171","","key","null","16.671694915254317","960","468.5","","","","","","","",""
"812.1000000014901","arrowleft","psychophysics","353","483700","0.0-3.0-0.172","","key","arrowleft","16.667145833334263","960","468.5","173","7","1","23","35","25","35","false"
"null","null","psychophysics","354","484701","0.0-3.0-1.172","","key","null","16.666101694915056","960","468.5","","","","","","","",""
"578.4000000059605","arrowleft","psychophysics","355","485282","0.0-3.0-0.173","","key","arrowleft","16.67191176470506","960","468.5","174","7","-1","27","35","25","35","true"
"null","null","psychophysics","356","486285","0.0-3.0-1.173","","key","null","16.667508474575804","960","468.5","","","","","","","",""
"634.5","arrowright","psychophysics","357","486933","0.0-3.0-0.174","","key","arrowright","16.671605263158103","960","468.5","175","7","1","30","35","25","35","true"
"null","null","psychophysics","358","487936","0.0-3.0-1.174","","key","null","16.6657966101696","960","468.5","","","","","","","",""
"665.3000000044703","arrowleft","psychophysics","359","488620","0.0-3.0-0.175","","key","arrowleft","16.669075000000884","960","468.5","176","7","-1","20","35","25","35","true"
"null","null","psychophysics","360","489623","0.0-3.0-1.175","","key","null","16.669066666666186","960","468.5","","","","","","","",""
"518.8999999985099","arrowright","psychophysics","361","490148","0.0-3.0-0.176","","key","arrowright","16.666800000000514","960","468.5","177","7","1","23","15","25","35","true"
"null","null","psychophysics","362","491150","0.0-3.0-1.176","","key","null","16.667000000000048","960","468.5","","","","","","","",""
"484.70000000298023","arrowleft","psychophysics","363","491637","0.0-3.0-0.177","","key","arrowleft","16.664999999999832","960","468.5","178","7","-1","30","35","25","35","true"
"null","null","psychophysics","364","492640","0.0-3.0-1.177","","key","null","16.669216666666518","960","468.5","","","","","","","",""
"490","arrowright","psychophysics","365","493134","0.0-3.0-0.178","","key","arrowright","16.663928571429487","960","468.5","179","7","-1","20","35","25","35","false"
"null","null","psychophysics","366","494138","0.0-3.0-1.178","","key","null","16.666847457626826","960","468.5","","","","","","","",""
"1004.6000000014901","arrowright","psychophysics","367","495147","0.0-3.0-0.179","","key","arrowright","16.67223333333386","960","468.5","180","7","1","27","15","25","35","true"
"null","null","psychophysics","368","496150","0.0-3.0-1.179","","key","null","16.664322033898422","960","468.5","","","","","","","",""
"1047.3999999985099","arrowleft","psychophysics","369","497203","0.0-3.0-0.180","","key","arrowleft","16.66862903225739","960","468.5","181","7","1","27","35","25","35","false"
"null","null","psychophysics","370","498205","0.0-3.0-1.180","","key","null","16.666949152542966","960","468.5","","","","","","","",""
"905.1000000014901","arrowleft","psychophysics","371","499117","0.0-3.0-0.181","","key","arrowleft","16.668925925925443","960","468.5","182","7","1","24","15","25","35","false"
"null","null","psychophysics","372","500119","0.0-3.0-1.181","","key","null","16.669898305084335","960","468.5","","","","","","","",""
"653.3999999985099","arrowleft","psychophysics","373","500782","0.0-3.0-0.182","","key","arrowleft","16.665589743589337","960","468.5","183","7","-1","30","15","25","35","true"
"null","null","psychophysics","374","501786","0.0-3.0-1.182","","key","null","16.664271186440356","960","468.5","","","","","","","",""
"747.2000000029802","arrowright","psychophysics","375","502540","0.0-3.0-0.183","","key","arrowright","16.667666666666303","960","468.5","184","7","1","26","35","25","35","true"
"null","null","psychophysics","376","503543","0.0-3.0-1.183","","key","null","16.66976271186446","960","468.5","","","","","","","",""
"591.8999999985099","arrowright","psychophysics","377","504139","0.0-3.0-0.184","","key","arrowright","16.655971428572332","960","468.5","185","7","1","26","15","25","35","true"
"null","null","psychophysics","378","505140","0.0-3.0-1.184","","key","null","16.667423728814","960","468.5","","","","","","","",""
"700.8999999985099","arrowleft","psychophysics","379","505846","0.0-3.0-0.185","","key","arrowleft","16.66458536585418","960","468.5","186","7","1","24","35","25","35","false"
"null","null","psychophysics","380","506848","0.0-3.0-1.185","","key","null","16.665694915254452","960","468.5","","","","","","","",""
"818.3000000044703","arrowleft","psychophysics","381","507673","0.0-3.0-0.186","","key","arrowleft","16.666142857142923","960","468.5","187","7","-1","23","15","25","35","true"
"null","null","psychophysics","382","508675","0.0-3.0-1.186","","key","null","16.66783050847461","960","468.5","","","","","","","",""
"869.8999999985099","arrowright","psychophysics","383","509548","0.0-3.0-0.187","","key","arrowright","16.67337254901969","960","468.5","188","7","1","27","15","25","35","true"
"null","null","psychophysics","384","510551","0.0-3.0-1.187","","key","null","16.66944067796566","960","468.5","","","","","","","",""
"756.3999999985099","arrowright","psychophysics","385","511315","0.0-3.0-0.188","","key","arrowright","16.662577777777592","960","468.5","189","7","1","23","15","25","35","true"
"null","null","psychophysics","386","512317","0.0-3.0-1.188","","key","null","16.663779661016957","960","468.5","","","","","","","",""
"732.1000000014901","arrowleft","psychophysics","387","513054","0.0-3.0-0.189","","key","arrowleft","16.66316279069775","960","468.5","190","7","1","25","35","25","35","false"
"null","null","psychophysics","388","514061","0.0-3.0-1.189","","key","null","16.670900000000255","960","468.5","","","","","","","",""
"621.7999999970198","arrowright","psychophysics","389","514688","0.0-3.0-0.190","","key","arrowright","16.65747222222207","960","468.5","191","7","1","20","15","25","35","true"
"null","null","psychophysics","390","515688","0.0-3.0-1.190","","key","null","16.666783333334024","960","468.5","","","","","","","",""
"422.20000000298023","arrowleft","psychophysics","391","516114","0.0-3.0-0.191","","key","arrowleft","16.673333333332266","960","468.5","192","7","1","27","35","25","35","false"
"null","null","psychophysics","392","517117","0.0-3.0-1.191","","key","null","16.66622033898257","960","468.5","","","","","","","",""
"487.8999999985099","arrowright","psychophysics","393","517610","0.0-3.0-0.192","","key","arrowright","16.6659655172422","960","468.5","193","7","1","30","35","25","35","true"
"null","null","psychophysics","394","518611","0.0-3.0-1.192","","key","null","16.66871186440724","960","468.5","","","","","","","",""
"547.6000000014901","arrowright","psychophysics","395","519164","0.0-3.0-0.193","","key","arrowright","16.666281249999884","960","468.5","194","7","1","27","35","25","35","true"
"null","null","psychophysics","396","520185","0.0-3.0-1.193","","key","null","16.6670166666668","960","468.5","","","","","","","",""
"534.5","arrowleft","psychophysics","397","520727","0.0-3.0-0.194","","key","arrowleft","16.667500000001382","960","468.5","195","7","-1","30","15","25","35","true"
"null","null","psychophysics","398","521728","0.0-3.0-1.194","","key","null","16.666966101695326","960","468.5","","","","","","","",""
"416.20000000298023","arrowright","psychophysics","399","522146","0.0-3.0-0.195","","key","arrowright","16.672041666667308","960","468.5","196","8","-1","25","35","25","35","false"
"null","null","psychophysics","400","523149","0.0-3.0-1.195","","key","null","16.661898305084186","960","468.5","","","","","","","",""
"593.1000000014901","arrowright","html-keyboard-response","401","523744","0.0-3.0-2.195-0.195","<div style=""color: white; text-align: center; vertical-align: top; display: inline-block; width: 800px; margin: auto""><p>You have completed 70% of the trials. You are on block 8 of 10. <br>Good job! Take a break if you need to.</p><p>Press any key to continue the experiment.</p></div>","","","","","","","","","","","","",""
"580.6000000014901","arrowright","psychophysics","402","525343","0.0-3.0-0.196","","key","arrowright","16.665371428573106","960","468.5","197","8","1","30","15","25","35","true"
"null","null","psychophysics","403","526362","0.0-3.0-1.196","","key","null","16.663549999999425","960","468.5","","","","","","","",""
"480.3999999985099","arrowleft","psychophysics","404","526844","0.0-3.0-0.197","","key","arrowleft","16.667321428573423","960","468.5","198","8","-1","30","15","25","35","true"
"null","null","psychophysics","405","527845","0.0-3.0-1.197","","key","null","16.670728813558895","960","468.5","","","","","","","",""
"810.2999999970198","arrowleft","psychophysics","406","528661","0.0-3.0-0.198","","key","arrowleft","16.665833333332557","960","468.5","199","8","-1","26","15","25","35","true"
"null","null","psychophysics","407","529662","0.0-3.0-1.198","","key","null","16.66696610169335","960","468.5","","","","","","","",""
"516.6999999955297","arrowright","psychophysics","408","530181","0.0-3.0-0.199","","key","arrowright","16.6781333333347","960","468.5","200","8","-1","24","15","25","35","false"
"null","null","psychophysics","409","531185","0.0-3.0-1.199","","key","null","16.66830508474466","960","468.5","","","","","","","",""
"549.3999999985099","arrowright","psychophysics","410","531741","0.0-3.0-0.200","","key","arrowright","16.664545454547007","960","468.5","201","8","1","30","15","25","35","true"
"null","null","psychophysics","411","532750","0.0-3.0-1.200","","key","null","16.6679152542374","960","468.5","","","","","","","",""
"2437.60000000149","arrowright","psychophysics","412","535191","0.0-3.0-0.201","","key","arrowright","16.667698630136567","960","468.5","202","8","1","26","35","25","35","true"
"null","null","psychophysics","413","536195","0.0-3.0-1.201","","key","null","16.666949152541978","960","468.5","","","","","","","",""
"575.3999999985099","arrowleft","psychophysics","414","536775","0.0-3.0-0.202","","key","arrowleft","16.66735294117825","960","468.5","203","8","-1","30","35","25","35","true"
"null","null","psychophysics","415","537777","0.0-3.0-1.202","","key","null","16.66755932203486","960","468.5","","","","","","","",""
"781.3999999985099","arrowright","psychophysics","416","538565","0.0-3.0-0.203","","key","arrowright","16.669999999998886","960","468.5","204","8","1","24","35","25","35","true"
"null","null","psychophysics","417","539568","0.0-3.0-1.203","","key","null","16.670830508475035","960","468.5","","","","","","","",""
"631.8999999985099","arrowright","psychophysics","418","540207","0.0-3.0-0.204","","key","arrowright","16.66876315789628","960","468.5","205","8","-1","20","15","25","35","false"
"null","null","psychophysics","419","541210","0.0-3.0-1.204","","key","null","16.666661016948883","960","468.5","","","","","","","",""
"696.6000000014901","arrowright","psychophysics","420","541911","0.0-3.0-0.205","","key","arrowright","16.67387804878228","960","468.5","206","8","1","26","15","25","35","true"
"null","null","psychophysics","421","542914","0.0-3.0-1.205","","key","null","16.669983050849098","960","468.5","","","","","","","",""
"521.1000000014901","arrowleft","psychophysics","422","543439","0.0-3.0-0.206","","key","arrowleft","16.6633548387101","960","468.5","207","8","-1","23","15","25","35","true"
"null","null","psychophysics","423","544440","0.0-3.0-1.206","","key","null","16.667762711865166","960","468.5","","","","","","","",""
"715.4000000059605","arrowleft","psychophysics","424","545174","0.0-3.0-0.207","","key","arrowleft","16.668790697675135","960","468.5","208","8","1","25","35","25","35","false"
"null","null","psychophysics","425","546177","0.0-3.0-1.207","","key","null","16.66949152542373","960","468.5","","","","","","","",""
"632.5","arrowleft","psychophysics","426","546814","0.0-3.0-0.208","","key","arrowleft","16.6681081081105","960","468.5","209","8","-1","23","15","25","35","true"
"null","null","psychophysics","427","547818","0.0-3.0-1.208","","key","null","16.66308474576227","960","468.5","","","","","","","",""
"886.8999999985099","arrowleft","psychophysics","428","548707","0.0-3.0-0.209","","key","arrowleft","16.667641509434137","960","468.5","210","8","1","25","35","25","35","false"
"null","null","psychophysics","429","549708","0.0-3.0-1.209","","key","null","16.670779661016965","960","468.5","","","","","","","",""
"820.8999999985099","arrowleft","psychophysics","430","550532","0.0-3.0-0.210","","key","arrowleft","16.66729166666725","960","468.5","211","8","1","20","35","25","35","false"
"null","null","psychophysics","431","551538","0.0-3.0-1.210","","key","null","16.667766666666527","960","468.5","","","","","","","",""
"1350.8000000044703","arrowright","psychophysics","432","552891","0.0-3.0-0.211","","key","arrowright","16.66578750000044","960","468.5","212","8","-1","25","35","25","35","false"
"null","null","psychophysics","433","553895","0.0-3.0-1.211","","key","null","16.664508474574394","960","468.5","","","","","","","",""
"4957.80000000447","arrowright","psychophysics","434","558856","0.0-3.0-0.212","","key","arrowright","16.66636026936022","960","468.5","213","8","1","27","35","25","35","true"
"null","null","psychophysics","435","559871","0.0-3.0-1.212","","key","null","16.669118644067844","960","468.5","","","","","","","",""
"968.7000000029802","arrowleft","psychophysics","436","560847","0.0-3.0-0.213","","key","arrowleft","16.66648275862199","960","468.5","214","8","-1","30","15","25","35","true"
"null","null","psychophysics","437","561850","0.0-3.0-1.213","","key","null","16.66662711864416","960","468.5","","","","","","","",""
"921.3000000044703","arrowright","psychophysics","438","562779","0.0-3.0-0.214","","key","arrowright","16.667054545456036","960","468.5","215","8","-1","24","35","25","35","false"
"null","null","psychophysics","439","563782","0.0-3.0-1.214","","key","null","16.666966101695326","960","468.5","","","","","","","",""
"1070","arrowleft","psychophysics","440","564856","0.0-3.0-0.215","","key","arrowleft","16.667374999999083","960","468.5","216","8","1","20","35","25","35","false"
"null","null","psychophysics","441","565859","0.0-3.0-1.215","","key","null","16.664949152541695","960","468.5","","","","","","","",""
"1136.6000000014901","arrowright","psychophysics","442","567015","0.0-3.0-0.216","","key","arrowright","16.670058823527892","960","468.5","217","8","1","25","15","25","35","true"
"null","null","psychophysics","443","568018","0.0-3.0-1.216","","key","null","16.66789830508405","960","468.5","","","","","","","",""
"1639.9000000059605","arrowright","psychophysics","444","569666","0.0-3.0-0.217","","key","arrowright","16.66643877551007","960","468.5","218","8","-1","24","35","25","35","false"
"null","null","psychophysics","445","570667","0.0-3.0-1.217","","key","null","16.666050847456003","960","468.5","","","","","","","",""
"1349.5999999940395","arrowleft","psychophysics","446","572019","0.0-3.0-0.218","","key","arrowleft","16.67054999999964","960","468.5","219","8","-1","25","15","25","35","true"
"null","null","psychophysics","447","573036","0.0-3.0-1.218","","key","null","16.670633333333534","960","468.5","","","","","","","",""
"2123.3000000044703","arrowright","psychophysics","448","575167","0.0-3.0-0.219","","key","arrowright","16.667519685038638","960","468.5","220","8","1","27","35","25","35","true"
"null","null","psychophysics","449","576170","0.0-3.0-1.219","","key","null","16.6651016949159","960","468.5","","","","","","","",""
"1058.3999999985099","arrowleft","psychophysics","450","577236","0.0-3.0-0.220","","key","arrowleft","16.66903174603321","960","468.5","221","8","1","23","35","25","35","false"
"null","null","psychophysics","451","578239","0.0-3.0-1.220","","key","null","16.667583333332246","960","468.5","","","","","","","",""
"685.2999999970198","arrowleft","psychophysics","452","578945","0.0-3.0-0.221","","key","arrowleft","16.67317073170959","960","468.5","222","8","-1","30","35","25","35","true"
"null","null","psychophysics","453","579947","0.0-3.0-1.221","","key","null","16.667593220339583","960","468.5","","","","","","","",""
"1040.3000000044703","arrowleft","psychophysics","454","580991","0.0-3.0-0.222","","key","arrowleft","16.670999999999278","960","468.5","223","8","-1","27","15","25","35","true"
"null","null","psychophysics","455","581994","0.0-3.0-1.222","","key","null","16.666491525423304","960","468.5","","","","","","","",""
"885.9000000059605","arrowleft","psychophysics","456","582884","0.0-3.0-0.223","","key","arrowleft","16.66957692307635","960","468.5","224","9","1","20","35","25","35","false"
"null","null","psychophysics","457","583885","0.0-3.0-1.223","","key","null","16.672101694916897","960","468.5","","","","","","","",""
"678.8999999985099","arrowleft","html-keyboard-response","458","584567","0.0-3.0-2.223-0.223","<div style=""color: white; text-align: center; vertical-align: top; display: inline-block; width: 800px; margin: auto""><p>You have completed 80% of the trials. You are on block 9 of 10. <br>Good job! Take a break if you need to.</p><p>Press any key to continue the experiment.</p></div>","","","","","","","","","","","","",""
"1631.2000000029802","arrowright","psychophysics","459","587214","0.0-3.0-0.224","","key","arrowright","16.667357142856677","960","468.5","225","9","1","27","15","25","35","true"
"null","null","psychophysics","460","588217","0.0-3.0-1.224","","key","null","16.66211864406685","960","468.5","","","","","","","",""
"862.3999999985099","arrowleft","psychophysics","461","589081","0.0-3.0-0.225","","key","arrowleft","16.668862745099627","960","468.5","226","9","1","20","15","25","35","false"
"null","null","psychophysics","462","590084","0.0-3.0-1.225","","key","null","16.668508474576935","960","468.5","","","","","","","",""
"897","arrowright","psychophysics","463","590989","0.0-3.0-0.226","","key","arrowright","16.665981481481275","960","468.5","227","9","1","26","35","25","35","true"
"null","null","psychophysics","464","592006","0.0-3.0-1.226","","key","null","16.67015000000053","960","468.5","","","","","","","",""
"1000.2999999970198","arrowright","psychophysics","465","593013","0.0-3.0-0.227","","key","arrowright","16.66733898305121","960","468.5","228","9","1","30","35","25","35","true"
"null","null","psychophysics","466","594017","0.0-3.0-1.227","","key","null","16.667559322032886","960","468.5","","","","","","","",""
"610.7000000029802","arrowright","psychophysics","467","594631","0.0-3.0-0.228","","key","arrowright","16.67080555555488","960","468.5","229","9","1","26","35","25","35","true"
"null","null","psychophysics","468","595634","0.0-3.0-1.228","","key","null","16.668322033898004","960","468.5","","","","","","","",""
"1059.8999999985099","arrowleft","psychophysics","469","596701","0.0-3.0-0.229","","key","arrowleft","16.66620634920666","960","468.5","230","9","1","23","35","25","35","false"
"null","null","psychophysics","470","597702","0.0-3.0-1.229","","key","null","16.666898305085883","960","468.5","","","","","","","",""
"718.1000000014901","arrowright","psychophysics","471","598426","0.0-3.0-0.230","","key","arrowright","16.674255813953877","960","468.5","231","9","1","27","35","25","35","true"
"null","null","psychophysics","472","599429","0.0-3.0-1.230","","key","null","16.665999999999904","960","468.5","","","","","","","",""
"1422.2000000029802","arrowright","psychophysics","473","600855","0.0-3.0-0.231","","key","arrowright","16.665305882354048","960","468.5","232","9","-1","25","35","25","35","false"
"null","null","psychophysics","474","601857","0.0-3.0-1.231","","key","null","16.668389830507447","960","468.5","","","","","","","",""
"1118.7999999970198","arrowright","psychophysics","475","602978","0.0-3.0-0.232","","key","arrowright","16.667727272726495","960","468.5","233","9","-1","23","35","25","35","false"
"null","null","psychophysics","476","603979","0.0-3.0-1.232","","key","null","16.66662711864416","960","468.5","","","","","","","",""
"738.1000000014901","arrowright","psychophysics","477","604738","0.0-3.0-0.233","","key","arrowright","16.663733333333706","960","468.5","234","9","1","26","15","25","35","true"
"null","null","psychophysics","478","605739","0.0-3.0-1.233","","key","null","16.665322033899553","960","468.5","","","","","","","",""
"1005.6999999955297","arrowleft","psychophysics","479","606749","0.0-3.0-0.234","","key","arrowleft","16.659966101696305","960","468.5","235","9","1","23","35","25","35","false"
"null","null","psychophysics","480","607751","0.0-3.0-1.234","","key","null","16.664237288134647","960","468.5","","","","","","","",""
"800.1000000014901","arrowleft","psychophysics","481","608558","0.0-3.0-0.235","","key","arrowleft","16.66975000000093","960","468.5","236","9","-1","24","15","25","35","true"
"null","null","psychophysics","482","609560","0.0-3.0-1.235","","key","null","16.66306779660892","960","468.5","","","","","","","",""
"854.8999999985099","arrowright","psychophysics","483","610420","0.0-3.0-0.236","","key","arrowright","16.663560000001453","960","468.5","237","9","-1","24","35","25","35","false"
"null","null","psychophysics","484","611449","0.0-3.0-1.236","","key","null","16.66363934426164","960","468.5","","","","","","","",""
"1085.5","arrowleft","psychophysics","485","612537","0.0-3.0-0.237","","key","arrowleft","16.666187500000888","960","468.5","238","9","1","25","35","25","35","false"
"null","null","psychophysics","486","613539","0.0-3.0-1.237","","key","null","16.668400000000837","960","468.5","","","","","","","",""
"998.3000000044703","arrowright","psychophysics","487","614541","0.0-3.0-0.238","","key","arrowright","16.66825423728856","960","468.5","239","9","-1","20","15","25","35","false"
"null","null","psychophysics","488","615546","0.0-3.0-1.238","","key","null","16.666847457627814","960","468.5","","","","","","","",""
"590.2999999970198","arrowleft","psychophysics","489","616139","0.0-3.0-0.239","","key","arrowleft","16.66348571428763","960","468.5","240","9","1","23","15","25","35","false"
"null","null","psychophysics","490","617151","0.0-3.0-1.239","","key","null","16.66789830508405","960","468.5","","","","","","","",""
"671.6000000014901","arrowright","psychophysics","491","617832","0.0-3.0-0.240","","key","arrowright","16.667425000001096","960","468.5","241","9","1","26","15","25","35","true"
"null","null","psychophysics","492","618835","0.0-3.0-1.240","","key","null","16.666542372879398","960","468.5","","","","","","","",""
"765.1999999955297","arrowright","psychophysics","493","619605","0.0-3.0-0.241","","key","arrowright","16.665043478262227","960","468.5","242","9","-1","23","35","25","35","false"
"null","null","psychophysics","494","620609","0.0-3.0-1.241","","key","null","16.667796610169887","960","468.5","","","","","","","",""
"880.2999999970198","arrowleft","psychophysics","495","621493","0.0-3.0-0.242","","key","arrowleft","16.666596153847284","960","468.5","243","9","-1","20","15","25","35","true"
"null","null","psychophysics","496","622504","0.0-3.0-1.242","","key","null","16.66584745762767","960","468.5","","","","","","","",""
"1322.6000000014901","arrowleft","psychophysics","497","623835","0.0-3.0-0.243","","key","arrowleft","16.66837974683576","960","468.5","244","9","-1","27","35","25","35","true"
"null","null","psychophysics","498","624854","0.0-3.0-1.243","","key","null","16.663549999999425","960","468.5","","","","","","","",""
"1130.1999999955297","arrowleft","psychophysics","499","625987","0.0-3.0-0.244","","key","arrowleft","16.668328358209692","960","468.5","245","9","1","27","15","25","35","false"
"null","null","psychophysics","500","626998","0.0-3.0-1.244","","key","null","16.67013333333307","960","468.5","","","","","","","",""
"800.7999999970198","arrowright","psychophysics","501","627805","0.0-3.0-0.245","","key","arrowright","16.665770833334438","960","468.5","246","9","-1","25","35","25","35","false"
"null","null","psychophysics","502","628811","0.0-3.0-1.245","","key","null","16.66208474576213","960","468.5","","","","","","","",""
"969","arrowright","psychophysics","503","629782","0.0-3.0-0.246","","key","arrowright","16.669789473683444","960","468.5","247","9","-1","23","35","25","35","false"
"null","null","psychophysics","504","630787","0.0-3.0-1.246","","key","null","16.666220338983557","960","468.5","","","","","","","",""
"1491.3999999985099","arrowright","psychophysics","505","632289","0.0-3.0-0.247","","key","arrowright","16.663799999999657","960","468.5","248","9","1","24","15","25","35","true"
"null","null","psychophysics","506","633293","0.0-3.0-1.247","","key","null","16.670050847458544","960","468.5","","","","","","","",""
"1184.4000000059605","arrowright","psychophysics","507","634482","0.0-3.0-0.248","","key","arrowright","16.665242857141752","960","468.5","249","9","1","24","35","25","35","true"
"null","null","psychophysics","508","635487","0.0-3.0-1.248","","key","null","16.67184745762655","960","468.5","","","","","","","",""
"674.8999999985099","arrowright","psychophysics","509","636164","0.0-3.0-0.249","","key","arrowright","16.675","960","468.5","250","9","1","30","15","25","35","true"
"null","null","psychophysics","510","637171","0.0-3.0-1.249","","key","null","16.668355932202726","960","468.5","","","","","","","",""
"600.6000000014901","arrowleft","psychophysics","511","637784","0.0-3.0-0.250","","key","arrowleft","16.66894444444592","960","468.5","251","9","-1","27","15","25","35","true"
"null","null","psychophysics","512","638788","0.0-3.0-1.250","","key","null","16.668440677965517","960","468.5","","","","","","","",""
"723.1999999955297","arrowright","psychophysics","513","639517","0.0-3.0-0.251","","key","arrowright","16.666279069767985","960","468.5","252","10","-1","24","35","25","35","false"
"null","null","psychophysics","514","640521","0.0-3.0-1.251","","key","null","16.66711864406756","960","468.5","","","","","","","",""
"681.8999999985099","arrowright","html-keyboard-response","515","641205","0.0-3.0-2.251-0.251","<div style=""color: white; text-align: center; vertical-align: top; display: inline-block; width: 800px; margin: auto""><p>You have completed 90% of the trials. You are on block 10 of 10. <br>Good job! Take a break if you need to.</p><p>Press any key to continue the experiment.</p></div>","","","","","","","","","","","","",""
"826.7999999970198","arrowright","psychophysics","516","643040","0.0-3.0-0.252","","key","arrowright","16.672760000000707","960","468.5","253","10","-1","24","35","25","35","false"
"null","null","psychophysics","517","644042","0.0-3.0-1.252","","key","null","16.66988135593296","960","468.5","","","","","","","",""
"640.2999999970198","arrowright","psychophysics","518","644706","0.0-3.0-0.253","","key","arrowright","16.669384615385354","960","468.5","254","10","1","30","35","25","35","true"
"null","null","psychophysics","519","645708","0.0-3.0-1.253","","key","null","16.666271186441627","960","468.5","","","","","","","",""
"632.5","arrowright","psychophysics","520","646343","0.0-3.0-0.254","","key","arrowright","16.66954054054175","960","468.5","255","10","1","30","15","25","35","true"
"null","null","psychophysics","521","647354","0.0-3.0-1.254","","key","null","16.669576271186518","960","468.5","","","","","","","",""
"815.3999999985099","arrowleft","psychophysics","522","648175","0.0-3.0-0.255","","key","arrowleft","16.659285714284383","960","468.5","256","10","1","25","35","25","35","false"
"null","null","psychophysics","523","649176","0.0-3.0-1.255","","key","null","16.66655932203472","960","468.5","","","","","","","",""
"661.1999999955297","arrowleft","psychophysics","524","649842","0.0-3.0-0.256","","key","arrowleft","16.667410256409756","960","468.5","257","10","-1","25","15","25","35","true"
"null","null","psychophysics","525","650844","0.0-3.0-1.256","","key","null","16.660745762712796","960","468.5","","","","","","","",""
"558","arrowleft","psychophysics","526","651409","0.0-3.0-0.257","","key","arrowleft","16.676636363637183","960","468.5","258","10","-1","27","15","25","35","true"
"null","null","psychophysics","527","652412","0.0-3.0-1.257","","key","null","16.667000000000048","960","468.5","","","","","","","",""
"507.8999999985099","arrowright","psychophysics","528","652924","0.0-3.0-0.258","","key","arrowright","16.662733333336654","960","468.5","259","10","1","27","35","25","35","true"
"null","null","psychophysics","529","653925","0.0-3.0-1.258","","key","null","16.666745762711674","960","468.5","","","","","","","",""
"315.1000000014901","arrowleft","psychophysics","530","654245","0.0-3.0-0.259","","key","arrowleft","16.669555555550485","960","468.5","260","10","-1","25","35","25","35","true"
"null","null","psychophysics","531","655248","0.0-3.0-1.259","","key","null","16.66713559322091","960","468.5","","","","","","","",""
"302.20000000298023","arrowright","psychophysics","532","655557","0.0-3.0-0.260","","key","arrowright","16.664166666670805","960","468.5","261","10","-1","25","35","25","35","false"
"null","null","psychophysics","533","656560","0.0-3.0-1.260","","key","null","16.664254237287995","960","468.5","","","","","","","",""
"401.70000000298023","arrowleft","psychophysics","534","656965","0.0-3.0-0.261","","key","arrowleft","16.66530434782718","960","468.5","262","10","-1","26","15","25","35","true"
"null","null","psychophysics","535","657967","0.0-3.0-1.261","","key","null","16.66894915254226","960","468.5","","","","","","","",""
"1080.7000000029802","arrowleft","psychophysics","536","659058","0.0-3.0-0.262","","key","arrowleft","16.668769230768802","960","468.5","263","10","-1","23","35","25","35","true"
"null","null","psychophysics","537","660060","0.0-3.0-1.262","","key","null","16.668627118644448","960","468.5","","","","","","","",""
"521.8000000044703","arrowleft","psychophysics","538","660586","0.0-3.0-0.263","","key","arrowleft","16.66753333333181","960","468.5","264","10","-1","30","35","25","35","true"
"null","null","psychophysics","539","661587","0.0-3.0-1.263","","key","null","16.664949152543667","960","468.5","","","","","","","",""
"565.8999999985099","arrowleft","psychophysics","540","662157","0.0-3.0-0.264","","key","arrowleft","16.667882352940712","960","468.5","265","10","1","20","15","25","35","false"
"null","null","psychophysics","541","663160","0.0-3.0-1.264","","key","null","16.667644067797653","960","468.5","","","","","","","",""
"674.8999999985099","arrowright","psychophysics","542","663841","0.0-3.0-0.265","","key","arrowright","16.667725000000793","960","468.5","266","10","1","26","35","25","35","true"
"null","null","psychophysics","543","664843","0.0-3.0-1.265","","key","null","16.664033898304343","960","468.5","","","","","","","",""
"392.70000000298023","arrowleft","psychophysics","544","665257","0.0-3.0-0.266","","key","arrowleft","16.662333333331237","960","468.5","267","10","-1","27","35","25","35","true"
"null","null","psychophysics","545","666260","0.0-3.0-1.266","","key","null","16.664864406780875","960","468.5","","","","","","","",""
"818","arrowright","psychophysics","546","667081","0.0-3.0-0.267","","key","arrowright","16.67383333333176","960","468.5","268","10","1","24","15","25","35","true"
"null","null","psychophysics","547","668083","0.0-3.0-1.267","","key","null","16.66625423728828","960","468.5","","","","","","","",""
"722.7999999970198","arrowleft","psychophysics","548","668811","0.0-3.0-0.268","","key","arrowleft","16.667976744186003","960","468.5","269","10","1","24","15","25","35","false"
"null","null","psychophysics","549","669814","0.0-3.0-1.268","","key","null","16.66703389830477","960","468.5","","","","","","","",""
"738.6000000014901","arrowright","psychophysics","550","670557","0.0-3.0-0.269","","key","arrowright","16.66384090909163","960","468.5","270","10","1","27","35","25","35","true"
"null","null","psychophysics","551","671560","0.0-3.0-1.269","","key","null","16.665322033899553","960","468.5","","","","","","","",""
"754.2000000029802","arrowright","psychophysics","552","672327","0.0-3.0-0.270","","key","arrowright","16.671111111112662","960","468.5","271","10","1","30","15","25","35","true"
"null","null","psychophysics","553","673329","0.0-3.0-1.270","","key","null","16.665999999999904","960","468.5","","","","","","","",""
"609.2000000029802","arrowleft","psychophysics","554","673940","0.0-3.0-0.271","","key","arrowleft","16.668055555556847","960","468.5","272","10","-1","24","15","25","35","true"
"null","null","psychophysics","555","674943","0.0-3.0-1.271","","key","null","16.664728813560018","960","468.5","","","","","","","",""
"650.5","arrowleft","psychophysics","556","675598","0.0-3.0-0.272","","key","arrowleft","16.66502631578815","960","468.5","273","10","-1","27","15","25","35","true"
"null","null","psychophysics","557","676601","0.0-3.0-1.272","","key","null","16.66581355932295","960","468.5","","","","","","","",""
"852.6000000014901","arrowleft","psychophysics","558","677462","0.0-3.0-0.273","","key","arrowleft","16.664098039214664","960","468.5","274","10","-1","26","35","25","35","true"
"null","null","psychophysics","559","678463","0.0-3.0-1.273","","key","null","16.671830508475175","960","468.5","","","","","","","",""
"500.20000000298023","arrowright","psychophysics","560","678974","0.0-3.0-0.274","","key","arrowright","16.67646666666648","960","468.5","275","10","1","24","35","25","35","true"
"null","null","psychophysics","561","679978","0.0-3.0-1.274","","key","null","16.6662372881369","960","468.5","","","","","","","",""
"607.5","arrowleft","psychophysics","562","680590","0.0-3.0-0.275","","key","arrowleft","16.66652777777765","960","468.5","276","10","-1","27","35","25","35","true"
"null","null","psychophysics","563","681592","0.0-3.0-1.275","","key","null","16.666084745762696","960","468.5","","","","","","","",""
"398.1000000014901","arrowright","psychophysics","564","681992","0.0-3.0-0.276","","key","arrowright","16.66626086956619","960","468.5","277","10","-1","20","35","25","35","false"
"null","null","psychophysics","565","682993","0.0-3.0-1.276","","key","null","16.66391525423683","960","468.5","","","","","","","",""
"494.1000000014901","arrowleft","psychophysics","566","683490","0.0-3.0-0.277","","key","arrowleft","16.666793103450267","960","468.5","278","10","1","25","35","25","35","false"
"null","null","psychophysics","567","684493","0.0-3.0-1.277","","key","null","16.66900000000033","960","468.5","","","","","","","",""
"595.1000000014901","arrowleft","psychophysics","568","685093","0.0-3.0-0.278","","key","arrowleft","16.665399999999707","960","468.5","279","10","1","20","15","25","35","false"
"null","null","psychophysics","569","686099","0.0-3.0-1.278","","key","null","16.672322033898574","960","468.5","","","","","","","",""
"637.9000000059605","arrowleft","psychophysics","570","686742","0.0-3.0-0.279","","key","arrowleft","16.670078947368125","960","468.5","280","11","-1","27","15","25","35","true"
"null","null","psychophysics","571","687744","0.0-3.0-1.279","","key","null","16.664288135592717","960","468.5","","","","","","","",""
