rt,response,trial_type,trial_index,time_elapsed,internal_node_id,stimulus,response_type,key_press,avg_frame_time,center_x,center_y,trial,block,test_pos,test_inner_radius,test_outer_radius,ref_inner_radius,ref_outer_radius,test_bigger
8422.2,"{""p_id"":""1456"",""age"":""20"",""handedness"":""left"",""sex"":""female"",""other_sex"":""""}",survey-html-form,0,8434,0.0-0.0,,,,,,,,,,,,,,
4394.2, ,html-keyboard-response,1,12836,0.0-1.0,"<p style=""color: white"">Welcome to the Size Judgment Experiment. <br>There will be 10 blocks in this experiment. <br>There will be 28 trials in each block. <br>You will be given a chance to take a break between blocks. <br>Press any key to start the experiment.</p>",,,,,,,,,,,,,
9317.8,arrowleft,psychophysics,2,22184,0.0-2.0,,key,arrowleft,16.68871429,377,329,,,,,,,,
5522,arrowright,psychophysics,3,27714,0.0-3.0-0.0,,key,arrowright,16.666,377,329,1,1,-1,23,15,25,35,FALSE
null,null,psychophysics,4,28718,0.0-3.0-1.0,,key,null,16.66550847,377,329,,,,,,,,
956.7,arrowright,psychophysics,5,29683,0.0-3.0-0.1,,key,arrowright,16.666,377,329,2,1,-1,20,15,25,35,FALSE
null,null,psychophysics,6,30688,0.0-3.0-1.1,,key,null,16.666,377,329,,,,,,,,
1078.3,arrowleft,psychophysics,7,31797,0.0-3.0-0.2,,key,arrowleft,16.666,377,329,3,1,1,23,15,25,35,FALSE
null,null,psychophysics,8,32799,0.0-3.0-1.2,,key,null,16.666,377,329,,,,,,,,
662.5,arrowright,psychophysics,9,33468,0.0-3.0-0.3,,key,arrowright,16.666,377,329,4,1,-1,20,15,25,35,FALSE
null,null,psychophysics,10,34472,0.0-3.0-1.3,,key,null,16.666,377,329,,,,,,,,
1699.4,arrowleft,psychophysics,11,36176,0.0-3.0-0.4,,key,arrowleft,22.44354667,377,329,5,1,1,23,15,25,35,FALSE
null,null,psychophysics,12,37177,0.0-3.0-1.4,,key,null,16.95334483,377,329,,,,,,,,
661.6999999,arrowright,psychophysics,13,37844,0.0-3.0-0.5,,key,arrowright,16.666,377,329,6,1,-1,30,15,25,35,FALSE
null,null,psychophysics,14,38849,0.0-3.0-1.5,,key,null,16.52778333,377,329,,,,,,,,
904,arrowleft,psychophysics,15,39756,0.0-3.0-0.6,,key,arrowleft,16.666,377,329,7,1,1,26,15,25,35,FALSE
null,null,psychophysics,16,40763,0.0-3.0-1.6,,key,null,16.666,377,329,,,,,,,,
1069.6,arrowright,psychophysics,17,41836,0.0-3.0-0.7,,key,arrowright,16.666,377,329,8,1,-1,26,15,25,35,FALSE
null,null,psychophysics,18,42839,0.0-3.0-1.7,,key,null,16.666,377,329,,,,,,,,
741.2,arrowleft,psychophysics,19,43587,0.0-3.0-0.8,,key,arrowleft,16.666,377,329,9,1,1,20,15,25,35,FALSE
null,null,psychophysics,20,44589,0.0-3.0-1.8,,key,null,16.666,377,329,,,,,,,,
538,arrowright,psychophysics,21,45136,0.0-3.0-0.9,,key,arrowright,16.666,377,329,10,1,-1,30,15,25,35,FALSE
null,null,psychophysics,22,46138,0.0-3.0-1.9,,key,null,16.666,377,329,,,,,,,,
1121.6,arrowright,psychophysics,23,47265,0.0-3.0-0.10,,key,arrowright,16.666,377,329,11,1,-1,23,15,25,35,FALSE
null,null,psychophysics,24,48267,0.0-3.0-1.10,,key,null,16.666,377,329,,,,,,,,
2434.7,arrowleft,psychophysics,25,50704,0.0-3.0-0.11,,key,arrowleft,16.70636552,377,329,12,1,-1,24,35,25,35,TRUE
null,null,psychophysics,26,51706,0.0-3.0-1.11,,key,null,16.666,377,329,,,,,,,,
2780.8,arrowleft,psychophysics,27,54491,0.0-3.0-0.12,,key,arrowleft,16.666,377,329,13,1,-1,25,35,25,35,TRUE
null,null,psychophysics,28,55493,0.0-3.0-1.12,,key,null,16.666,377,329,,,,,,,,
1294.9,arrowleft,psychophysics,29,56790,0.0-3.0-0.13,,key,arrowleft,16.666,377,329,14,1,-1,24,35,25,35,TRUE
null,null,psychophysics,30,57793,0.0-3.0-1.13,,key,null,16.666,377,329,,,,,,,,
505,arrowright,psychophysics,31,58314,0.0-3.0-0.14,,key,arrowright,16.666,377,329,15,1,1,23,35,25,35,TRUE
null,null,psychophysics,32,59319,0.0-3.0-1.14,,key,null,17.01469492,377,329,,,,,,,,
812.6,arrowright,psychophysics,33,60134,0.0-3.0-0.15,,key,arrowright,16.666,377,329,16,1,-1,27,15,25,35,FALSE
null,null,psychophysics,34,61136,0.0-3.0-1.15,,key,null,16.666,377,329,,,,,,,,
668.6,arrowright,psychophysics,35,61808,0.0-3.0-0.16,,key,arrowright,16.666,377,329,17,1,-1,25,15,25,35,FALSE
null,null,psychophysics,36,62810,0.0-3.0-1.16,,key,null,16.666,377,329,,,,,,,,
709.5,arrowleft,psychophysics,37,63523,0.0-3.0-0.17,,key,arrowleft,16.666,377,329,18,1,1,23,15,25,35,FALSE
null,null,psychophysics,38,64528,0.0-3.0-1.17,,key,null,16.666,377,329,,,,,,,,
497.3,arrowleft,psychophysics,39,65027,0.0-3.0-0.18,,key,arrowleft,16.666,377,329,19,1,1,25,15,25,35,FALSE
null,null,psychophysics,40,66029,0.0-3.0-1.18,,key,null,16.666,377,329,,,,,,,,
549.2,arrowleft,psychophysics,41,66580,0.0-3.0-0.19,,key,arrowleft,16.666,377,329,20,1,1,25,15,25,35,FALSE
null,null,psychophysics,42,67584,0.0-3.0-1.19,,key,null,16.666,377,329,,,,,,,,
773.3000001,arrowleft,psychophysics,43,68366,0.0-3.0-0.20,,key,arrowleft,16.666,377,329,21,1,-1,27,35,25,35,TRUE
null,null,psychophysics,44,69370,0.0-3.0-1.20,,key,null,16.538,377,329,,,,,,,,
549.9,arrowright,psychophysics,45,69935,0.0-3.0-0.21,,key,arrowright,17.1868125,377,329,22,1,1,26,35,25,35,TRUE
null,null,psychophysics,46,70938,0.0-3.0-1.21,,key,null,16.666,377,329,,,,,,,,
432.6999999,arrowleft,psychophysics,47,71373,0.0-3.0-0.22,,key,arrowleft,16.666,377,329,23,1,1,26,15,25,35,FALSE
null,null,psychophysics,48,72384,0.0-3.0-1.22,,key,null,16.666,377,329,,,,,,,,
466.9000001,arrowright,psychophysics,49,72855,0.0-3.0-0.23,,key,arrowright,16.666,377,329,24,1,-1,23,35,25,35,FALSE
null,null,psychophysics,50,73856,0.0-3.0-1.23,,key,null,16.666,377,329,,,,,,,,
550.2,arrowleft,psychophysics,51,74416,0.0-3.0-0.24,,key,arrowleft,17.77706667,377,329,25,1,1,30,35,25,35,FALSE
null,null,psychophysics,52,75420,0.0-3.0-1.24,,key,null,16.666,377,329,,,,,,,,
489.2,arrowleft,psychophysics,53,75915,0.0-3.0-0.25,,key,arrowleft,18.05483333,377,329,26,1,-1,20,35,25,35,TRUE
null,null,psychophysics,54,76918,0.0-3.0-1.25,,key,null,16.666,377,329,,,,,,,,
375.9000001,arrowleft,psychophysics,55,77296,0.0-3.0-0.26,,key,arrowleft,16.666,377,329,27,1,-1,27,35,25,35,TRUE
null,null,psychophysics,56,78298,0.0-3.0-1.26,,key,null,16.666,377,329,,,,,,,,
567.1,arrowleft,psychophysics,57,78867,0.0-3.0-0.27,,key,arrowleft,16.55769697,377,329,28,2,-1,30,35,25,35,TRUE
null,null,psychophysics,58,79871,0.0-3.0-1.27,,key,null,16.666,377,329,,,,,,,,
3752.4, ,html-keyboard-response,59,83625,0.0-3.0-2.27-0.27,"<div style=""color: white; text-align: center; vertical-align: top; display: inline-block; width: 800px; margin: auto""><p>You have completed 10% of the trials. You are on block 2 of 10. <br>Good job! Take a break if you need to.</p><p>Press any key to continue the experiment.</p></div>",,,,,,,,,,,,,
581.5999999,arrowleft,psychophysics,60,85215,0.0-3.0-0.28,,key,arrowleft,16.666,377,329,29,2,-1,27,35,25,35,TRUE
null,null,psychophysics,61,86217,0.0-3.0-1.28,,key,null,16.666,377,329,,,,,,,,
344.3,arrowright,psychophysics,62,86564,0.0-3.0-0.29,,key,arrowright,16.666,377,329,30,2,-1,27,35,25,35,FALSE
null,null,psychophysics,63,87567,0.0-3.0-1.29,,key,null,16.666,377,329,,,,,,,,
341.2,arrowleft,psychophysics,64,87912,0.0-3.0-0.30,,key,arrowleft,16.666,377,329,31,2,1,23,35,25,35,FALSE
null,null,psychophysics,65,88914,0.0-3.0-1.30,,key,null,16.5982,377,329,,,,,,,,
380.6999999,arrowleft,psychophysics,66,89296,0.0-3.0-0.31,,key,arrowleft,16.666,377,329,32,2,1,23,15,25,35,FALSE
null,null,psychophysics,67,90301,0.0-3.0-1.31,,key,null,16.666,377,329,,,,,,,,
391.9,arrowright,psychophysics,68,90697,0.0-3.0-0.32,,key,arrowright,16.666,377,329,33,2,1,23,35,25,35,TRUE
null,null,psychophysics,69,91699,0.0-3.0-1.32,,key,null,16.666,377,329,,,,,,,,
550,arrowright,psychophysics,70,92257,0.0-3.0-0.33,,key,arrowright,18.96475862,377,329,34,2,1,26,35,25,35,TRUE
null,null,psychophysics,71,93259,0.0-3.0-1.33,,key,null,16.666,377,329,,,,,,,,
342.2,arrowleft,psychophysics,72,93604,0.0-3.0-0.34,,key,arrowleft,16.666,377,329,35,2,-1,25,35,25,35,TRUE
null,null,psychophysics,73,94606,0.0-3.0-1.34,,key,null,16.666,377,329,,,,,,,,
369.6,arrowleft,psychophysics,74,94979,0.0-3.0-0.35,,key,arrowleft,16.666,377,329,36,2,-1,26,15,25,35,TRUE
null,null,psychophysics,75,95982,0.0-3.0-1.35,,key,null,16.666,377,329,,,,,,,,
449.6,arrowright,psychophysics,76,96437,0.0-3.0-0.36,,key,arrowright,16.666,377,329,37,2,1,23,35,25,35,TRUE
null,null,psychophysics,77,97440,0.0-3.0-1.36,,key,null,16.666,377,329,,,,,,,,
535.6999999,arrowright,psychophysics,78,97978,0.0-3.0-0.37,,key,arrowright,16.666,377,329,38,2,-1,20,15,25,35,FALSE
null,null,psychophysics,79,98979,0.0-3.0-1.37,,key,null,16.75286441,377,329,,,,,,,,
479.4,arrowright,psychophysics,80,99461,0.0-3.0-0.38,,key,arrowright,16.666,377,329,39,2,-1,24,15,25,35,FALSE
null,null,psychophysics,81,100463,0.0-3.0-1.38,,key,null,16.666,377,329,,,,,,,,
402.2,arrowright,psychophysics,82,100870,0.0-3.0-0.39,,key,arrowright,16.666,377,329,40,2,-1,24,15,25,35,FALSE
null,null,psychophysics,83,101872,0.0-3.0-1.39,,key,null,16.666,377,329,,,,,,,,
366.5999999,arrowright,psychophysics,84,102244,0.0-3.0-0.40,,key,arrowright,16.666,377,329,41,2,1,23,35,25,35,TRUE
null,null,psychophysics,85,103246,0.0-3.0-1.40,,key,null,16.666,377,329,,,,,,,,
685.5999999,arrowleft,psychophysics,86,103934,0.0-3.0-0.41,,key,arrowleft,16.666,377,329,42,2,1,23,35,25,35,FALSE
null,null,psychophysics,87,104937,0.0-3.0-1.41,,key,null,16.666,377,329,,,,,,,,
531,arrowleft,psychophysics,88,105470,0.0-3.0-0.42,,key,arrowleft,16.666,377,329,43,2,1,27,15,25,35,FALSE
null,null,psychophysics,89,106472,0.0-3.0-1.42,,key,null,16.666,377,329,,,,,,,,
528.4,arrowleft,psychophysics,90,107004,0.0-3.0-0.43,,key,arrowleft,16.666,377,329,44,2,-1,23,35,25,35,TRUE
null,null,psychophysics,91,108006,0.0-3.0-1.43,,key,null,16.666,377,329,,,,,,,,
526.4,arrowright,psychophysics,92,108534,0.0-3.0-0.44,,key,arrowright,16.7025,377,329,45,2,-1,25,15,25,35,FALSE
null,null,psychophysics,93,109535,0.0-3.0-1.44,,key,null,16.666,377,329,,,,,,,,
727.3,arrowleft,psychophysics,94,110265,0.0-3.0-0.45,,key,arrowleft,16.666,377,329,46,2,-1,27,35,25,35,TRUE
null,null,psychophysics,95,111271,0.0-3.0-1.45,,key,null,16.666,377,329,,,,,,,,
353.3,arrowright,psychophysics,96,111629,0.0-3.0-0.46,,key,arrowright,16.666,377,329,47,2,-1,25,35,25,35,FALSE
null,null,psychophysics,97,112631,0.0-3.0-1.46,,key,null,16.666,377,329,,,,,,,,
487.9,arrowright,psychophysics,98,113124,0.0-3.0-0.47,,key,arrowright,16.666,377,329,48,2,-1,30,35,25,35,FALSE
null,null,psychophysics,99,114126,0.0-3.0-1.47,,key,null,16.666,377,329,,,,,,,,
373,arrowright,psychophysics,100,114502,0.0-3.0-0.48,,key,arrowright,16.666,377,329,49,2,1,20,35,25,35,TRUE
null,null,psychophysics,101,115505,0.0-3.0-1.48,,key,null,16.666,377,329,,,,,,,,
510.8,arrowleft,psychophysics,102,116019,0.0-3.0-0.49,,key,arrowleft,16.666,377,329,50,2,1,23,15,25,35,FALSE
null,null,psychophysics,103,117022,0.0-3.0-1.49,,key,null,16.666,377,329,,,,,,,,
576.1,arrowright,psychophysics,104,117601,0.0-3.0-0.50,,key,arrowright,16.666,377,329,51,2,1,20,35,25,35,TRUE
null,null,psychophysics,105,118603,0.0-3.0-1.50,,key,null,16.77033898,377,329,,,,,,,,
508.4,arrowleft,psychophysics,106,119117,0.0-3.0-0.51,,key,arrowleft,19.23,377,329,52,2,-1,20,35,25,35,TRUE
null,null,psychophysics,107,120118,0.0-3.0-1.51,,key,null,16.666,377,329,,,,,,,,
475.9,arrowleft,psychophysics,108,120597,0.0-3.0-0.52,,key,arrowleft,16.666,377,329,53,2,1,27,35,25,35,FALSE
null,null,psychophysics,109,121598,0.0-3.0-1.52,,key,null,16.666,377,329,,,,,,,,
555.9,arrowleft,psychophysics,110,122157,0.0-3.0-0.53,,key,arrowleft,16.666,377,329,54,2,1,25,35,25,35,FALSE
null,null,psychophysics,111,123158,0.0-3.0-1.53,,key,null,16.666,377,329,,,,,,,,
573.6,arrowright,psychophysics,112,123738,0.0-3.0-0.54,,key,arrowright,16.666,377,329,55,2,-1,25,15,25,35,FALSE
null,null,psychophysics,113,124740,0.0-3.0-1.54,,key,null,16.666,377,329,,,,,,,,
557.6,arrowright,psychophysics,114,125311,0.0-3.0-0.55,,key,arrowright,16.666,377,329,56,3,-1,23,15,25,35,FALSE
null,null,psychophysics,115,126316,0.0-3.0-1.55,,key,null,16.666,377,329,,,,,,,,
2173.5, ,html-keyboard-response,116,128491,0.0-3.0-2.55-0.55,"<div style=""color: white; text-align: center; vertical-align: top; display: inline-block; width: 800px; margin: auto""><p>You have completed 20% of the trials. You are on block 3 of 10. <br>Good job! Take a break if you need to.</p><p>Press any key to continue the experiment.</p></div>",,,,,,,,,,,,,
734.4,arrowleft,psychophysics,117,130232,0.0-3.0-0.56,,key,arrowleft,16.85686047,377,329,57,3,1,30,35,25,35,FALSE
null,null,psychophysics,118,131234,0.0-3.0-1.56,,key,null,16.666,377,329,,,,,,,,
562.1,arrowright,psychophysics,119,131799,0.0-3.0-0.57,,key,arrowright,16.666,377,329,58,3,-1,24,35,25,35,FALSE
null,null,psychophysics,120,132801,0.0-3.0-1.57,,key,null,16.666,377,329,,,,,,,,
706.7,arrowright,psychophysics,121,133510,0.0-3.0-0.58,,key,arrowright,16.666,377,329,59,3,-1,24,15,25,35,FALSE
null,null,psychophysics,122,134512,0.0-3.0-1.58,,key,null,16.666,377,329,,,,,,,,
518.1999999,arrowleft,psychophysics,123,135033,0.0-3.0-0.59,,key,arrowleft,16.666,377,329,60,3,1,27,15,25,35,FALSE
null,null,psychophysics,124,136034,0.0-3.0-1.59,,key,null,16.666,377,329,,,,,,,,
536.5,arrowright,psychophysics,125,136575,0.0-3.0-0.60,,key,arrowright,16.666,377,329,61,3,-1,20,15,25,35,FALSE
null,null,psychophysics,126,137576,0.0-3.0-1.60,,key,null,16.666,377,329,,,,,,,,
565.8000001,arrowright,psychophysics,127,138144,0.0-3.0-0.61,,key,arrowright,16.666,377,329,62,3,-1,20,15,25,35,FALSE
null,null,psychophysics,128,139147,0.0-3.0-1.61,,key,null,16.78159322,377,329,,,,,,,,
582.5,arrowleft,psychophysics,129,139732,0.0-3.0-0.62,,key,arrowleft,16.666,377,329,63,3,-1,30,35,25,35,TRUE
null,null,psychophysics,130,140734,0.0-3.0-1.62,,key,null,16.666,377,329,,,,,,,,
934.9,arrowright,psychophysics,131,141672,0.0-3.0-0.63,,key,arrowright,16.666,377,329,64,3,-1,24,35,25,35,FALSE
null,null,psychophysics,132,142677,0.0-3.0-1.63,,key,null,16.94847458,377,329,,,,,,,,
707.5,arrowleft,psychophysics,133,143387,0.0-3.0-0.64,,key,arrowleft,16.666,377,329,65,3,1,25,35,25,35,FALSE
null,null,psychophysics,134,144391,0.0-3.0-1.64,,key,null,16.666,377,329,,,,,,,,
728.8,arrowright,psychophysics,135,145124,0.0-3.0-0.65,,key,arrowright,16.666,377,329,66,3,-1,27,15,25,35,FALSE
null,null,psychophysics,136,146126,0.0-3.0-1.65,,key,null,16.666,377,329,,,,,,,,
413.7,arrowright,psychophysics,137,146542,0.0-3.0-0.66,,key,arrowright,16.666,377,329,67,3,-1,26,15,25,35,FALSE
null,null,psychophysics,138,147545,0.0-3.0-1.66,,key,null,16.666,377,329,,,,,,,,
443.4,arrowright,psychophysics,139,147994,0.0-3.0-0.67,,key,arrowright,16.666,377,329,68,3,-1,26,15,25,35,FALSE
null,null,psychophysics,140,148996,0.0-3.0-1.67,,key,null,16.752,377,329,,,,,,,,
599.6,arrowleft,psychophysics,141,149598,0.0-3.0-0.68,,key,arrowleft,16.666,377,329,69,3,1,20,35,25,35,FALSE
null,null,psychophysics,142,150601,0.0-3.0-1.68,,key,null,16.666,377,329,,,,,,,,
582.6,arrowright,psychophysics,143,151187,0.0-3.0-0.69,,key,arrowright,16.666,377,329,70,3,-1,26,35,25,35,FALSE
null,null,psychophysics,144,152199,0.0-3.0-1.69,,key,null,16.666,377,329,,,,,,,,
702.6,arrowleft,psychophysics,145,152905,0.0-3.0-0.70,,key,arrowleft,21.874125,377,329,71,3,1,27,15,25,35,FALSE
null,null,psychophysics,146,153908,0.0-3.0-1.70,,key,null,16.666,377,329,,,,,,,,
485.6,arrowleft,psychophysics,147,154403,0.0-3.0-0.71,,key,arrowleft,16.666,377,329,72,3,1,27,15,25,35,FALSE
null,null,psychophysics,148,155406,0.0-3.0-1.71,,key,null,16.666,377,329,,,,,,,,
824.9,arrowleft,psychophysics,149,156233,0.0-3.0-0.72,,key,arrowleft,16.666,377,329,73,3,1,26,15,25,35,FALSE
null,null,psychophysics,150,157235,0.0-3.0-1.72,,key,null,16.666,377,329,,,,,,,,
1182.7,arrowleft,psychophysics,151,158421,0.0-3.0-0.73,,key,arrowleft,16.666,377,329,74,3,-1,20,35,25,35,TRUE
null,null,psychophysics,152,159422,0.0-3.0-1.73,,key,null,16.55493333,377,329,,,,,,,,
639.1999999,arrowleft,psychophysics,153,160067,0.0-3.0-0.74,,key,arrowleft,16.666,377,329,75,3,-1,30,35,25,35,TRUE
null,null,psychophysics,154,161071,0.0-3.0-1.74,,key,null,16.666,377,329,,,,,,,,
378.1,arrowright,psychophysics,155,161451,0.0-3.0-0.75,,key,arrowright,16.666,377,329,76,3,1,23,35,25,35,TRUE
null,null,psychophysics,156,162454,0.0-3.0-1.75,,key,null,16.666,377,329,,,,,,,,
553.7,arrowleft,psychophysics,157,163010,0.0-3.0-0.76,,key,arrowleft,16.666,377,329,77,3,-1,23,35,25,35,TRUE
null,null,psychophysics,158,164011,0.0-3.0-1.76,,key,null,16.666,377,329,,,,,,,,
434,arrowright,psychophysics,159,164447,0.0-3.0-0.77,,key,arrowright,16.666,377,329,78,3,1,24,35,25,35,TRUE
null,null,psychophysics,160,165449,0.0-3.0-1.77,,key,null,16.666,377,329,,,,,,,,
404.8,arrowleft,psychophysics,161,165858,0.0-3.0-0.78,,key,arrowleft,16.666,377,329,79,3,-1,23,35,25,35,TRUE
null,null,psychophysics,162,166859,0.0-3.0-1.78,,key,null,16.666,377,329,,,,,,,,
651.6999999,arrowright,psychophysics,163,167515,0.0-3.0-0.79,,key,arrowright,16.666,377,329,80,3,-1,26,15,25,35,FALSE
null,null,psychophysics,164,168520,0.0-3.0-1.79,,key,null,21.27574468,377,329,,,,,,,,
534.4000001,arrowleft,psychophysics,165,169065,0.0-3.0-0.80,,key,arrowleft,17.66766667,377,329,81,3,1,26,15,25,35,FALSE
null,null,psychophysics,166,170071,0.0-3.0-1.80,,key,null,16.666,377,329,,,,,,,,
466.6,arrowleft,psychophysics,167,170541,0.0-3.0-0.81,,key,arrowleft,16.666,377,329,82,3,-1,23,35,25,35,TRUE
null,null,psychophysics,168,171559,0.0-3.0-1.81,,key,null,16.666,377,329,,,,,,,,
448.7,arrowright,psychophysics,169,172016,0.0-3.0-0.82,,key,arrowright,16.666,377,329,83,3,1,26,35,25,35,TRUE
null,null,psychophysics,170,173017,0.0-3.0-1.82,,key,null,16.666,377,329,,,,,,,,
414.0999999,arrowleft,psychophysics,171,173434,0.0-3.0-0.83,,key,arrowleft,16.666,377,329,84,4,-1,30,15,25,35,TRUE
null,null,psychophysics,172,174437,0.0-3.0-1.83,,key,null,19.93384314,377,329,,,,,,,,
1114.1, ,html-keyboard-response,173,175553,0.0-3.0-2.83-0.83,"<div style=""color: white; text-align: center; vertical-align: top; display: inline-block; width: 800px; margin: auto""><p>You have completed 30% of the trials. You are on block 4 of 10. <br>Good job! Take a break if you need to.</p><p>Press any key to continue the experiment.</p></div>",,,,,,,,,,,,,
589.6,arrowleft,psychophysics,174,177157,0.0-3.0-0.84,,key,arrowleft,17.15617647,377,329,85,4,-1,20,35,25,35,TRUE
null,null,psychophysics,175,178179,0.0-3.0-1.84,,key,null,16.94847458,377,329,,,,,,,,
541.5,arrowleft,psychophysics,176,178722,0.0-3.0-0.85,,key,arrowleft,16.666,377,329,86,4,1,24,15,25,35,FALSE
null,null,psychophysics,177,179725,0.0-3.0-1.85,,key,null,16.666,377,329,,,,,,,,
502.6,arrowleft,psychophysics,178,180231,0.0-3.0-0.86,,key,arrowleft,16.666,377,329,87,4,1,27,15,25,35,FALSE
null,null,psychophysics,179,181234,0.0-3.0-1.86,,key,null,16.95334483,377,329,,,,,,,,
541.1,arrowleft,psychophysics,180,181778,0.0-3.0-0.87,,key,arrowleft,16.666,377,329,88,4,1,30,35,25,35,FALSE
null,null,psychophysics,181,182780,0.0-3.0-1.87,,key,null,16.666,377,329,,,,,,,,
536.9000001,arrowright,psychophysics,182,183321,0.0-3.0-0.88,,key,arrowright,16.666,377,329,89,4,-1,30,35,25,35,FALSE
null,null,psychophysics,183,184324,0.0-3.0-1.88,,key,null,16.666,377,329,,,,,,,,
449.3000001,arrowleft,psychophysics,184,184777,0.0-3.0-0.89,,key,arrowleft,16.666,377,329,90,4,-1,20,35,25,35,TRUE
null,null,psychophysics,185,185779,0.0-3.0-1.89,,key,null,16.666,377,329,,,,,,,,
362.0999999,arrowright,psychophysics,186,186144,0.0-3.0-0.90,,key,arrowright,16.666,377,329,91,4,1,30,35,25,35,TRUE
null,null,psychophysics,187,187148,0.0-3.0-1.90,,key,null,16.666,377,329,,,,,,,,
544.2,arrowright,psychophysics,188,187695,0.0-3.0-0.91,,key,arrowright,16.666,377,329,92,4,-1,25,35,25,35,FALSE
null,null,psychophysics,189,188697,0.0-3.0-1.91,,key,null,16.666,377,329,,,,,,,,
566.2,arrowright,psychophysics,190,189272,0.0-3.0-0.92,,key,arrowright,16.48424242,377,329,93,4,-1,23,15,25,35,FALSE
null,null,psychophysics,191,190274,0.0-3.0-1.92,,key,null,16.666,377,329,,,,,,,,
537.5,arrowleft,psychophysics,192,190813,0.0-3.0-0.93,,key,arrowleft,16.666,377,329,94,4,-1,24,35,25,35,TRUE
null,null,psychophysics,193,191816,0.0-3.0-1.93,,key,null,16.666,377,329,,,,,,,,
496,arrowright,psychophysics,194,192315,0.0-3.0-0.94,,key,arrowright,16.666,377,329,95,4,-1,30,15,25,35,FALSE
null,null,psychophysics,195,193317,0.0-3.0-1.94,,key,null,16.666,377,329,,,,,,,,
527.8,arrowright,psychophysics,196,193848,0.0-3.0-0.95,,key,arrowright,16.666,377,329,96,4,-1,24,15,25,35,FALSE
null,null,psychophysics,197,194849,0.0-3.0-1.95,,key,null,17.25077193,377,329,,,,,,,,
534.6,arrowleft,psychophysics,198,195409,0.0-3.0-0.96,,key,arrowleft,17.74122581,377,329,97,4,1,24,35,25,35,FALSE
null,null,psychophysics,199,196411,0.0-3.0-1.96,,key,null,16.95334483,377,329,,,,,,,,
725.9,arrowleft,psychophysics,200,197139,0.0-3.0-0.97,,key,arrowleft,16.666,377,329,98,4,1,25,35,25,35,FALSE
null,null,psychophysics,201,198141,0.0-3.0-1.97,,key,null,16.666,377,329,,,,,,,,
390.8,arrowleft,psychophysics,202,198535,0.0-3.0-0.98,,key,arrowleft,16.666,377,329,99,4,-1,30,35,25,35,TRUE
null,null,psychophysics,203,199536,0.0-3.0-1.98,,key,null,16.66542373,377,329,,,,,,,,
386,arrowleft,psychophysics,204,199925,0.0-3.0-0.99,,key,arrowleft,16.666,377,329,100,4,1,25,35,25,35,FALSE
null,null,psychophysics,205,200927,0.0-3.0-1.99,,key,null,16.666,377,329,,,,,,,,
435.2,arrowleft,psychophysics,206,201368,0.0-3.0-0.100,,key,arrowleft,16.666,377,329,101,4,1,27,15,25,35,FALSE
null,null,psychophysics,207,202372,0.0-3.0-1.100,,key,null,16.666,377,329,,,,,,,,
487.6999999,arrowleft,psychophysics,208,202878,0.0-3.0-0.101,,key,arrowleft,16.666,377,329,102,4,1,27,35,25,35,FALSE
null,null,psychophysics,209,203882,0.0-3.0-1.101,,key,null,17.25077193,377,329,,,,,,,,
511.2,arrowleft,psychophysics,210,204397,0.0-3.0-0.102,,key,arrowleft,16.666,377,329,103,4,1,26,35,25,35,FALSE
null,null,psychophysics,211,205400,0.0-3.0-1.102,,key,null,16.666,377,329,,,,,,,,
479.4,arrowleft,psychophysics,212,205884,0.0-3.0-0.103,,key,arrowleft,16.666,377,329,104,4,1,30,15,25,35,FALSE
null,null,psychophysics,213,206885,0.0-3.0-1.103,,key,null,16.666,377,329,,,,,,,,
531.8,arrowleft,psychophysics,214,207423,0.0-3.0-0.104,,key,arrowleft,16.666,377,329,105,4,1,24,15,25,35,FALSE
null,null,psychophysics,215,208425,0.0-3.0-1.104,,key,null,16.666,377,329,,,,,,,,
520.6999999,arrowright,psychophysics,216,208951,0.0-3.0-0.105,,key,arrowright,16.8249,377,329,106,4,-1,26,15,25,35,FALSE
null,null,psychophysics,217,209955,0.0-3.0-1.105,,key,null,16.95334483,377,329,,,,,,,,
603.9,arrowleft,psychophysics,218,210563,0.0-3.0-0.106,,key,arrowleft,18.81645161,377,329,107,4,-1,25,35,25,35,TRUE
null,null,psychophysics,219,211565,0.0-3.0-1.106,,key,null,16.666,377,329,,,,,,,,
403.5999999,arrowright,psychophysics,220,211970,0.0-3.0-0.107,,key,arrowright,16.666,377,329,108,4,1,25,15,25,35,TRUE
null,null,psychophysics,221,212974,0.0-3.0-1.107,,key,null,18.18109091,377,329,,,,,,,,
294.9,arrowleft,psychophysics,222,213275,0.0-3.0-0.108,,key,arrowleft,16.666,377,329,109,4,1,20,15,25,35,FALSE
null,null,psychophysics,223,214276,0.0-3.0-1.108,,key,null,16.95334483,377,329,,,,,,,,
522.2,arrowleft,psychophysics,224,214801,0.0-3.0-0.109,,key,arrowleft,16.666,377,329,110,4,1,20,15,25,35,FALSE
null,null,psychophysics,225,215815,0.0-3.0-1.109,,key,null,16.666,377,329,,,,,,,,
954.9000001,arrowleft,psychophysics,226,216779,0.0-3.0-0.110,,key,arrowleft,16.666,377,329,111,4,1,30,15,25,35,FALSE
null,null,psychophysics,227,217781,0.0-3.0-1.110,,key,null,16.666,377,329,,,,,,,,
483.3000001,arrowleft,psychophysics,228,218267,0.0-3.0-0.111,,key,arrowleft,16.666,377,329,112,5,1,24,15,25,35,FALSE
null,null,psychophysics,229,219268,0.0-3.0-1.111,,key,null,16.73049153,377,329,,,,,,,,
1370.3, ,html-keyboard-response,230,220644,0.0-3.0-2.111-0.111,"<div style=""color: white; text-align: center; vertical-align: top; display: inline-block; width: 800px; margin: auto""><p>You have completed 40% of the trials. You are on block 5 of 10. <br>Good job! Take a break if you need to.</p><p>Press any key to continue the experiment.</p></div>",,,,,,,,,,,,,
516.5,arrowleft,psychophysics,231,222170,0.0-3.0-0.112,,key,arrowleft,16.666,377,329,113,5,1,27,35,25,35,FALSE
null,null,psychophysics,232,223172,0.0-3.0-1.112,,key,null,16.666,377,329,,,,,,,,
363,arrowleft,psychophysics,233,223540,0.0-3.0-0.113,,key,arrowleft,16.666,377,329,114,5,1,20,15,25,35,FALSE
null,null,psychophysics,234,224541,0.0-3.0-1.113,,key,null,16.666,377,329,,,,,,,,
869,arrowleft,psychophysics,235,225413,0.0-3.0-0.114,,key,arrowleft,16.666,377,329,115,5,1,27,15,25,35,FALSE
null,null,psychophysics,236,226420,0.0-3.0-1.114,,key,null,16.666,377,329,,,,,,,,
437.3000001,arrowleft,psychophysics,237,226861,0.0-3.0-0.115,,key,arrowleft,16.666,377,329,116,5,-1,25,35,25,35,TRUE
null,null,psychophysics,238,227862,0.0-3.0-1.115,,key,null,16.666,377,329,,,,,,,,
394.6,arrowleft,psychophysics,239,228260,0.0-3.0-0.116,,key,arrowleft,16.666,377,329,117,5,-1,27,35,25,35,TRUE
null,null,psychophysics,240,229263,0.0-3.0-1.116,,key,null,16.79255172,377,329,,,,,,,,
330.6999999,arrowleft,psychophysics,241,229595,0.0-3.0-0.117,,key,arrowleft,16.666,377,329,118,5,1,26,15,25,35,FALSE
null,null,psychophysics,242,230601,0.0-3.0-1.117,,key,null,16.666,377,329,,,,,,,,
329.2,arrowleft,psychophysics,243,230934,0.0-3.0-0.118,,key,arrowleft,16.666,377,329,119,5,1,24,35,25,35,FALSE
null,null,psychophysics,244,231940,0.0-3.0-1.118,,key,null,16.666,377,329,,,,,,,,
432.3,arrowleft,psychophysics,245,232375,0.0-3.0-0.119,,key,arrowleft,16.666,377,329,120,5,1,25,35,25,35,FALSE
null,null,psychophysics,246,233377,0.0-3.0-1.119,,key,null,16.666,377,329,,,,,,,,
336.9,arrowleft,psychophysics,247,233716,0.0-3.0-0.120,,key,arrowleft,16.666,377,329,121,5,-1,30,35,25,35,TRUE
null,null,psychophysics,248,234719,0.0-3.0-1.120,,key,null,16.666,377,329,,,,,,,,
536.1999999,arrowright,psychophysics,249,235258,0.0-3.0-0.121,,key,arrowright,16.666,377,329,122,5,-1,27,15,25,35,FALSE
null,null,psychophysics,250,236261,0.0-3.0-1.121,,key,null,16.666,377,329,,,,,,,,
519.7,arrowleft,psychophysics,251,236784,0.0-3.0-0.122,,key,arrowleft,16.666,377,329,123,5,1,30,15,25,35,FALSE
null,null,psychophysics,252,237789,0.0-3.0-1.122,,key,null,16.666,377,329,,,,,,,,
388.5,arrowleft,psychophysics,253,238180,0.0-3.0-0.123,,key,arrowleft,16.666,377,329,124,5,1,24,35,25,35,FALSE
null,null,psychophysics,254,239182,0.0-3.0-1.123,,key,null,16.77541379,377,329,,,,,,,,
443,arrowleft,psychophysics,255,239628,0.0-3.0-0.124,,key,arrowleft,16.666,377,329,125,5,1,20,15,25,35,FALSE
null,null,psychophysics,256,240630,0.0-3.0-1.124,,key,null,16.666,377,329,,,,,,,,
469.5,arrowleft,psychophysics,257,241102,0.0-3.0-0.125,,key,arrowleft,16.666,377,329,126,5,1,25,15,25,35,FALSE
null,null,psychophysics,258,242104,0.0-3.0-1.125,,key,null,16.666,377,329,,,,,,,,
393,arrowleft,psychophysics,259,242500,0.0-3.0-0.126,,key,arrowleft,16.666,377,329,127,5,1,20,15,25,35,FALSE
null,null,psychophysics,260,243520,0.0-3.0-1.126,,key,null,16.666,377,329,,,,,,,,
335.3000001,arrowleft,psychophysics,261,243858,0.0-3.0-0.127,,key,arrowleft,16.666,377,329,128,5,-1,24,35,25,35,TRUE
null,null,psychophysics,262,244859,0.0-3.0-1.127,,key,null,16.666,377,329,,,,,,,,
365.9,arrowleft,psychophysics,263,245230,0.0-3.0-0.128,,key,arrowleft,16.666,377,329,129,5,1,23,35,25,35,FALSE
null,null,psychophysics,264,246233,0.0-3.0-1.128,,key,null,16.666,377,329,,,,,,,,
412.4,arrowleft,psychophysics,265,246649,0.0-3.0-0.129,,key,arrowleft,16.666,377,329,130,5,-1,24,35,25,35,TRUE
null,null,psychophysics,266,247651,0.0-3.0-1.129,,key,null,16.666,377,329,,,,,,,,
521.2,arrowleft,psychophysics,267,248176,0.0-3.0-0.130,,key,arrowleft,16.666,377,329,131,5,1,24,35,25,35,FALSE
null,null,psychophysics,268,249181,0.0-3.0-1.130,,key,null,16.7710339,377,329,,,,,,,,
497.7,arrowleft,psychophysics,269,249681,0.0-3.0-0.131,,key,arrowleft,16.666,377,329,132,5,1,23,15,25,35,FALSE
null,null,psychophysics,270,250685,0.0-3.0-1.131,,key,null,16.666,377,329,,,,,,,,
443.5,arrowleft,psychophysics,271,251132,0.0-3.0-0.132,,key,arrowleft,16.666,377,329,133,5,1,30,15,25,35,FALSE
null,null,psychophysics,272,252134,0.0-3.0-1.132,,key,null,16.666,377,329,,,,,,,,
426.3,arrowleft,psychophysics,273,252562,0.0-3.0-0.133,,key,arrowleft,16.666,377,329,134,5,1,24,35,25,35,FALSE
null,null,psychophysics,274,253564,0.0-3.0-1.133,,key,null,16.666,377,329,,,,,,,,
328.3,arrowleft,psychophysics,275,253896,0.0-3.0-0.134,,key,arrowleft,16.666,377,329,135,5,-1,20,15,25,35,TRUE
null,null,psychophysics,276,254923,0.0-3.0-1.134,,key,null,16.666,377,329,,,,,,,,
483.5,arrowleft,psychophysics,277,255411,0.0-3.0-0.135,,key,arrowleft,16.666,377,329,136,5,1,26,15,25,35,FALSE
null,null,psychophysics,278,256413,0.0-3.0-1.135,,key,null,16.666,377,329,,,,,,,,
694.2,arrowright,psychophysics,279,257109,0.0-3.0-0.136,,key,arrowright,16.666,377,329,137,5,-1,20,35,25,35,FALSE
null,null,psychophysics,280,258111,0.0-3.0-1.136,,key,null,16.666,377,329,,,,,,,,
654.7,arrowright,psychophysics,281,258769,0.0-3.0-0.137,,key,arrowright,16.666,377,329,138,5,-1,30,15,25,35,FALSE
null,null,psychophysics,282,259771,0.0-3.0-1.137,,key,null,17.50717857,377,329,,,,,,,,
666.5,arrowleft,psychophysics,283,260449,0.0-3.0-0.138,,key,arrowleft,16.666,377,329,139,5,-1,20,35,25,35,TRUE
null,null,psychophysics,284,261451,0.0-3.0-1.138,,key,null,16.666,377,329,,,,,,,,
539.5999999,arrowleft,psychophysics,285,261993,0.0-3.0-0.139,,key,arrowleft,16.666,377,329,140,6,1,25,35,25,35,FALSE
null,null,psychophysics,286,262995,0.0-3.0-1.139,,key,null,16.666,377,329,,,,,,,,
2002.1,arrowright,html-keyboard-response,287,265000,0.0-3.0-2.139-0.139,"<div style=""color: white; text-align: center; vertical-align: top; display: inline-block; width: 800px; margin: auto""><p>You have completed 50% of the trials. You are on block 6 of 10. <br>Good job! Take a break if you need to.</p><p>Press any key to continue the experiment.</p></div>",,,,,,,,,,,,,
506.6,arrowright,psychophysics,288,266510,0.0-3.0-0.140,,key,arrowright,16.666,377,329,141,6,-1,30,15,25,35,FALSE
null,null,psychophysics,289,267515,0.0-3.0-1.140,,key,null,16.666,377,329,,,,,,,,
438.6,arrowright,psychophysics,290,267955,0.0-3.0-0.141,,key,arrowright,16.666,377,329,142,6,-1,23,15,25,35,FALSE
null,null,psychophysics,291,268957,0.0-3.0-1.141,,key,null,16.666,377,329,,,,,,,,
356.7,arrowright,psychophysics,292,269316,0.0-3.0-0.142,,key,arrowright,16.98445,377,329,143,6,-1,24,15,25,35,FALSE
null,null,psychophysics,293,270317,0.0-3.0-1.142,,key,null,16.666,377,329,,,,,,,,
314.7,arrowright,psychophysics,294,270635,0.0-3.0-0.143,,key,arrowright,16.666,377,329,144,6,-1,20,35,25,35,FALSE
null,null,psychophysics,295,271639,0.0-3.0-1.143,,key,null,16.666,377,329,,,,,,,,
556.6,arrowright,psychophysics,296,272200,0.0-3.0-0.144,,key,arrowright,16.666,377,329,145,6,-1,26,15,25,35,FALSE
null,null,psychophysics,297,273208,0.0-3.0-1.144,,key,null,17.25077193,377,329,,,,,,,,
449.5,arrowright,psychophysics,298,273665,0.0-3.0-0.145,,key,arrowright,16.666,377,329,146,6,1,27,35,25,35,TRUE
null,null,psychophysics,299,274666,0.0-3.0-1.145,,key,null,16.666,377,329,,,,,,,,
351.1999999,arrowright,psychophysics,300,275021,0.0-3.0-0.146,,key,arrowright,16.666,377,329,147,6,-1,26,35,25,35,FALSE
null,null,psychophysics,301,276024,0.0-3.0-1.146,,key,null,16.666,377,329,,,,,,,,
326.3,arrowright,psychophysics,302,276353,0.0-3.0-0.147,,key,arrowright,16.666,377,329,148,6,-1,27,35,25,35,FALSE
null,null,psychophysics,303,277356,0.0-3.0-1.147,,key,null,16.666,377,329,,,,,,,,
430.4,arrowright,psychophysics,304,277789,0.0-3.0-0.148,,key,arrowright,16.666,377,329,149,6,1,30,15,25,35,TRUE
null,null,psychophysics,305,278793,0.0-3.0-1.148,,key,null,16.95334483,377,329,,,,,,,,
497.4,arrowright,psychophysics,306,279313,0.0-3.0-0.149,,key,arrowright,16.84073333,377,329,150,6,-1,24,15,25,35,FALSE
null,null,psychophysics,307,280316,0.0-3.0-1.149,,key,null,16.666,377,329,,,,,,,,
536,arrowleft,psychophysics,308,280855,0.0-3.0-0.150,,key,arrowleft,16.666,377,329,151,6,1,27,35,25,35,FALSE
null,null,psychophysics,309,281857,0.0-3.0-1.150,,key,null,16.666,377,329,,,,,,,,
518.9,arrowright,psychophysics,310,282379,0.0-3.0-0.151,,key,arrowright,16.666,377,329,152,6,-1,27,15,25,35,FALSE
null,null,psychophysics,311,283381,0.0-3.0-1.151,,key,null,16.666,377,329,,,,,,,,
498.5,arrowleft,psychophysics,312,283884,0.0-3.0-0.152,,key,arrowleft,16.666,377,329,153,6,1,24,35,25,35,FALSE
null,null,psychophysics,313,284886,0.0-3.0-1.152,,key,null,16.666,377,329,,,,,,,,
657.8,arrowright,psychophysics,314,285550,0.0-3.0-0.153,,key,arrowright,16.666,377,329,154,6,1,27,35,25,35,TRUE
null,null,psychophysics,315,286562,0.0-3.0-1.153,,key,null,16.95334483,377,329,,,,,,,,
374.8000001,arrowleft,psychophysics,316,286940,0.0-3.0-0.154,,key,arrowleft,16.666,377,329,155,6,1,26,15,25,35,FALSE
null,null,psychophysics,317,287941,0.0-3.0-1.154,,key,null,16.666,377,329,,,,,,,,
458.8,arrowleft,psychophysics,318,288402,0.0-3.0-0.155,,key,arrowleft,16.666,377,329,156,6,1,26,15,25,35,FALSE
null,null,psychophysics,319,289405,0.0-3.0-1.155,,key,null,16.81136207,377,329,,,,,,,,
450.3,arrowleft,psychophysics,320,289861,0.0-3.0-0.156,,key,arrowleft,16.666,377,329,157,6,1,25,15,25,35,FALSE
null,null,psychophysics,321,290863,0.0-3.0-1.156,,key,null,16.666,377,329,,,,,,,,
550.9,arrowright,psychophysics,322,291423,0.0-3.0-0.157,,key,arrowright,16.666,377,329,158,6,-1,20,15,25,35,FALSE
null,null,psychophysics,323,292425,0.0-3.0-1.157,,key,null,16.666,377,329,,,,,,,,
542.6999999,arrowright,psychophysics,324,292970,0.0-3.0-0.158,,key,arrowright,16.666,377,329,159,6,-1,24,15,25,35,FALSE
null,null,psychophysics,325,293973,0.0-3.0-1.158,,key,null,16.666,377,329,,,,,,,,
514,arrowleft,psychophysics,326,294489,0.0-3.0-0.159,,key,arrowleft,16.666,377,329,160,6,-1,26,35,25,35,TRUE
null,null,psychophysics,327,295492,0.0-3.0-1.159,,key,null,16.666,377,329,,,,,,,,
456.5,arrowright,psychophysics,328,295953,0.0-3.0-0.160,,key,arrowright,16.666,377,329,161,6,-1,24,35,25,35,FALSE
null,null,psychophysics,329,296954,0.0-3.0-1.160,,key,null,16.666,377,329,,,,,,,,
578.5999999,arrowright,psychophysics,330,297554,0.0-3.0-0.161,,key,arrowright,16.666,377,329,162,6,-1,23,15,25,35,FALSE
null,null,psychophysics,331,298557,0.0-3.0-1.161,,key,null,16.666,377,329,,,,,,,,
526.5,arrowleft,psychophysics,332,299086,0.0-3.0-0.162,,key,arrowleft,16.50429032,377,329,163,6,-1,26,35,25,35,TRUE
null,null,psychophysics,333,300088,0.0-3.0-1.162,,key,null,16.666,377,329,,,,,,,,
447.1,arrowleft,psychophysics,334,300537,0.0-3.0-0.163,,key,arrowleft,16.666,377,329,164,6,-1,26,35,25,35,TRUE
null,null,psychophysics,335,301539,0.0-3.0-1.163,,key,null,16.666,377,329,,,,,,,,
363.6999999,arrowleft,psychophysics,336,301910,0.0-3.0-0.164,,key,arrowleft,16.666,377,329,165,6,-1,25,35,25,35,TRUE
null,null,psychophysics,337,302913,0.0-3.0-1.164,,key,null,16.666,377,329,,,,,,,,
291.9,arrowleft,psychophysics,338,303215,0.0-3.0-0.165,,key,arrowleft,16.666,377,329,166,6,-1,25,35,25,35,TRUE
null,null,psychophysics,339,304219,0.0-3.0-1.165,,key,null,16.666,377,329,,,,,,,,
385,arrowleft,psychophysics,340,304607,0.0-3.0-0.166,,key,arrowleft,16.666,377,329,167,6,1,25,15,25,35,FALSE
null,null,psychophysics,341,305609,0.0-3.0-1.166,,key,null,16.666,377,329,,,,,,,,
379.8,arrowleft,psychophysics,342,305992,0.0-3.0-0.167,,key,arrowleft,16.666,377,329,168,7,1,30,15,25,35,FALSE
null,null,psychophysics,343,306996,0.0-3.0-1.167,,key,null,16.666,377,329,,,,,,,,
916, ,html-keyboard-response,344,307913,0.0-3.0-2.167-0.167,"<div style=""color: white; text-align: center; vertical-align: top; display: inline-block; width: 800px; margin: auto""><p>You have completed 60% of the trials. You are on block 7 of 10. <br>Good job! Take a break if you need to.</p><p>Press any key to continue the experiment.</p></div>",,,,,,,,,,,,,
388.1999999,arrowleft,psychophysics,345,309310,0.0-3.0-0.168,,key,arrowleft,16.97386957,377,329,169,7,1,20,35,25,35,FALSE
null,null,psychophysics,346,310321,0.0-3.0-1.168,,key,null,16.666,377,329,,,,,,,,
1950.5,arrowright,psychophysics,347,312274,0.0-3.0-0.169,,key,arrowright,16.666,377,329,170,7,-1,24,15,25,35,FALSE
null,null,psychophysics,348,313275,0.0-3.0-1.169,,key,null,16.666,377,329,,,,,,,,
558.6,arrowright,psychophysics,349,313836,0.0-3.0-0.170,,key,arrowright,16.666,377,329,171,7,-1,25,35,25,35,FALSE
null,null,psychophysics,350,314839,0.0-3.0-1.170,,key,null,16.666,377,329,,,,,,,,
474.0999999,arrowright,psychophysics,351,315325,0.0-3.0-0.171,,key,arrowright,16.666,377,329,172,7,-1,27,35,25,35,FALSE
null,null,psychophysics,352,316333,0.0-3.0-1.171,,key,null,16.666,377,329,,,,,,,,
415.6,arrowright,psychophysics,353,316752,0.0-3.0-0.172,,key,arrowright,16.666,377,329,173,7,1,23,15,25,35,TRUE
null,null,psychophysics,354,317758,0.0-3.0-1.172,,key,null,16.666,377,329,,,,,,,,
609.1,arrowleft,psychophysics,355,318370,0.0-3.0-0.173,,key,arrowleft,16.666,377,329,174,7,-1,23,35,25,35,TRUE
null,null,psychophysics,356,319371,0.0-3.0-1.173,,key,null,16.54195,377,329,,,,,,,,
451.4,arrowleft,psychophysics,357,319825,0.0-3.0-0.174,,key,arrowleft,16.666,377,329,175,7,1,24,15,25,35,FALSE
null,null,psychophysics,358,320827,0.0-3.0-1.174,,key,null,16.666,377,329,,,,,,,,
912.5,arrowright,psychophysics,359,321743,0.0-3.0-0.175,,key,arrowright,16.666,377,329,176,7,-1,30,15,25,35,FALSE
null,null,psychophysics,360,322749,0.0-3.0-1.175,,key,null,17.24068966,377,329,,,,,,,,
531.5,arrowright,psychophysics,361,323311,0.0-3.0-0.176,,key,arrowright,16.666,377,329,177,7,-1,27,15,25,35,FALSE
null,null,psychophysics,362,324313,0.0-3.0-1.176,,key,null,16.666,377,329,,,,,,,,
659.9,arrowleft,psychophysics,363,324978,0.0-3.0-0.177,,key,arrowleft,16.666,377,329,178,7,1,30,15,25,35,FALSE
null,null,psychophysics,364,325982,0.0-3.0-1.177,,key,null,16.666,377,329,,,,,,,,
749,arrowleft,psychophysics,365,326733,0.0-3.0-0.178,,key,arrowleft,16.666,377,329,179,7,1,24,35,25,35,FALSE
null,null,psychophysics,366,327741,0.0-3.0-1.178,,key,null,16.666,377,329,,,,,,,,
469.6999999,arrowleft,psychophysics,367,328230,0.0-3.0-0.179,,key,arrowleft,16.666,377,329,180,7,1,24,35,25,35,FALSE
null,null,psychophysics,368,329233,0.0-3.0-1.179,,key,null,16.75528814,377,329,,,,,,,,
540.8000001,arrowright,psychophysics,369,329776,0.0-3.0-0.180,,key,arrowright,16.666,377,329,181,7,-1,30,15,25,35,FALSE
null,null,psychophysics,370,330778,0.0-3.0-1.180,,key,null,16.666,377,329,,,,,,,,
452,arrowright,psychophysics,371,331232,0.0-3.0-0.181,,key,arrowright,16.666,377,329,182,7,-1,23,15,25,35,FALSE
null,null,psychophysics,372,332238,0.0-3.0-1.181,,key,null,17.24068966,377,329,,,,,,,,
390.5,arrowright,psychophysics,373,332635,0.0-3.0-0.182,,key,arrowright,17.45961905,377,329,183,7,-1,27,15,25,35,FALSE
null,null,psychophysics,374,333638,0.0-3.0-1.182,,key,null,18.18109091,377,329,,,,,,,,
362.4,arrowright,psychophysics,375,334011,0.0-3.0-0.183,,key,arrowright,16.666,377,329,184,7,1,20,35,25,35,TRUE
null,null,psychophysics,376,335016,0.0-3.0-1.183,,key,null,16.666,377,329,,,,,,,,
697.5,arrowright,psychophysics,377,335717,0.0-3.0-0.184,,key,arrowright,17.08265,377,329,185,7,-1,20,15,25,35,FALSE
null,null,psychophysics,378,336721,0.0-3.0-1.184,,key,null,16.666,377,329,,,,,,,,
732.3,arrowleft,psychophysics,379,337457,0.0-3.0-0.185,,key,arrowleft,17.91595,377,329,186,7,-1,23,35,25,35,TRUE
null,null,psychophysics,380,338459,0.0-3.0-1.185,,key,null,16.666,377,329,,,,,,,,
588.4,arrowright,psychophysics,381,339050,0.0-3.0-0.186,,key,arrowright,16.666,377,329,187,7,-1,24,15,25,35,FALSE
null,null,psychophysics,382,340058,0.0-3.0-1.186,,key,null,17.12098276,377,329,,,,,,,,
608.6,arrowleft,psychophysics,383,340694,0.0-3.0-0.187,,key,arrowleft,17.61834286,377,329,188,7,1,26,35,25,35,FALSE
null,null,psychophysics,384,341697,0.0-3.0-1.187,,key,null,16.666,377,329,,,,,,,,
533.8000001,arrowleft,psychophysics,385,342242,0.0-3.0-0.188,,key,arrowleft,17.2036129,377,329,189,7,1,23,15,25,35,FALSE
null,null,psychophysics,386,343246,0.0-3.0-1.188,,key,null,16.94847458,377,329,,,,,,,,
517.1,arrowright,psychophysics,387,343766,0.0-3.0-0.189,,key,arrowright,16.666,377,329,190,7,-1,27,15,25,35,FALSE
null,null,psychophysics,388,344769,0.0-3.0-1.189,,key,null,16.666,377,329,,,,,,,,
608.8000001,arrowright,psychophysics,389,345382,0.0-3.0-0.190,,key,arrowright,16.666,377,329,191,7,1,20,35,25,35,TRUE
null,null,psychophysics,390,346384,0.0-3.0-1.190,,key,null,16.666,377,329,,,,,,,,
783.4,arrowright,psychophysics,391,347174,0.0-3.0-0.191,,key,arrowright,16.666,377,329,192,7,1,27,35,25,35,TRUE
null,null,psychophysics,392,348176,0.0-3.0-1.191,,key,null,16.666,377,329,,,,,,,,
548.1999999,arrowright,psychophysics,393,348726,0.0-3.0-0.192,,key,arrowright,16.666,377,329,193,7,-1,24,35,25,35,FALSE
null,null,psychophysics,394,349730,0.0-3.0-1.192,,key,null,17.03763793,377,329,,,,,,,,
390.9000001,arrowright,psychophysics,395,350124,0.0-3.0-0.193,,key,arrowright,16.666,377,329,194,7,1,27,35,25,35,TRUE
null,null,psychophysics,396,351127,0.0-3.0-1.193,,key,null,16.666,377,329,,,,,,,,
385.5999999,arrowright,psychophysics,397,351515,0.0-3.0-0.194,,key,arrowright,16.666,377,329,195,7,-1,23,15,25,35,FALSE
null,null,psychophysics,398,352516,0.0-3.0-1.194,,key,null,16.666,377,329,,,,,,,,
411.3000001,arrowright,psychophysics,399,352934,0.0-3.0-0.195,,key,arrowright,16.666,377,329,196,8,1,26,35,25,35,TRUE
null,null,psychophysics,400,353937,0.0-3.0-1.195,,key,null,16.666,377,329,,,,,,,,
1231.8, ,html-keyboard-response,401,355173,0.0-3.0-2.195-0.195,"<div style=""color: white; text-align: center; vertical-align: top; display: inline-block; width: 800px; margin: auto""><p>You have completed 70% of the trials. You are on block 8 of 10. <br>Good job! Take a break if you need to.</p><p>Press any key to continue the experiment.</p></div>",,,,,,,,,,,,,
518.6,arrowright,psychophysics,402,356700,0.0-3.0-0.196,,key,arrowright,16.666,377,329,197,8,1,30,35,25,35,TRUE
null,null,psychophysics,403,357702,0.0-3.0-1.196,,key,null,16.666,377,329,,,,,,,,
324.5,arrowright,psychophysics,404,358031,0.0-3.0-0.197,,key,arrowright,16.666,377,329,198,8,1,20,15,25,35,TRUE
null,null,psychophysics,405,359047,0.0-3.0-1.197,,key,null,16.666,377,329,,,,,,,,
489.6,arrowleft,psychophysics,406,359544,0.0-3.0-0.198,,key,arrowleft,16.72696552,377,329,199,8,1,24,15,25,35,FALSE
null,null,psychophysics,407,360546,0.0-3.0-1.198,,key,null,16.666,377,329,,,,,,,,
556.5,arrowright,psychophysics,408,361105,0.0-3.0-0.199,,key,arrowright,16.666,377,329,200,8,-1,30,15,25,35,FALSE
null,null,psychophysics,409,362107,0.0-3.0-1.199,,key,null,16.666,377,329,,,,,,,,
429.6999999,arrowleft,psychophysics,410,362539,0.0-3.0-0.200,,key,arrowleft,16.666,377,329,201,8,1,30,35,25,35,FALSE
null,null,psychophysics,411,363541,0.0-3.0-1.200,,key,null,16.666,377,329,,,,,,,,
415.1,arrowleft,psychophysics,412,363958,0.0-3.0-0.201,,key,arrowleft,16.666,377,329,202,8,1,24,15,25,35,FALSE
null,null,psychophysics,413,364965,0.0-3.0-1.201,,key,null,16.666,377,329,,,,,,,,
498.1,arrowright,psychophysics,414,365465,0.0-3.0-0.202,,key,arrowright,16.666,377,329,203,8,-1,25,15,25,35,FALSE
null,null,psychophysics,415,366471,0.0-3.0-1.202,,key,null,16.666,377,329,,,,,,,,
388,arrowleft,psychophysics,416,366880,0.0-3.0-0.203,,key,arrowleft,16.666,377,329,204,8,1,30,15,25,35,FALSE
null,null,psychophysics,417,367882,0.0-3.0-1.203,,key,null,16.666,377,329,,,,,,,,
538.8000001,arrowright,psychophysics,418,368427,0.0-3.0-0.204,,key,arrowright,16.666,377,329,205,8,-1,26,15,25,35,FALSE
null,null,psychophysics,419,369429,0.0-3.0-1.204,,key,null,16.77088136,377,329,,,,,,,,
520,arrowleft,psychophysics,420,369953,0.0-3.0-0.205,,key,arrowleft,16.666,377,329,206,8,1,23,15,25,35,FALSE
null,null,psychophysics,421,370960,0.0-3.0-1.205,,key,null,16.666,377,329,,,,,,,,
536.5999999,arrowright,psychophysics,422,371501,0.0-3.0-0.206,,key,arrowright,16.666,377,329,207,8,-1,27,15,25,35,FALSE
null,null,psychophysics,423,372504,0.0-3.0-1.206,,key,null,16.666,377,329,,,,,,,,
401.4,arrowleft,psychophysics,424,372908,0.0-3.0-0.207,,key,arrowleft,16.666,377,329,208,8,1,20,35,25,35,FALSE
null,null,psychophysics,425,373912,0.0-3.0-1.207,,key,null,16.666,377,329,,,,,,,,
404.1,arrowleft,psychophysics,426,374319,0.0-3.0-0.208,,key,arrowleft,16.666,377,329,209,8,-1,26,35,25,35,TRUE
null,null,psychophysics,427,375321,0.0-3.0-1.208,,key,null,16.666,377,329,,,,,,,,
361.5,arrowright,psychophysics,428,375686,0.0-3.0-0.209,,key,arrowright,16.666,377,329,210,8,-1,23,15,25,35,FALSE
null,null,psychophysics,429,376710,0.0-3.0-1.209,,key,null,17.52803448,377,329,,,,,,,,
1395.8,arrowleft,psychophysics,430,378108,0.0-3.0-0.210,,key,arrowleft,16.666,377,329,211,8,-1,27,35,25,35,TRUE
null,null,psychophysics,431,379110,0.0-3.0-1.210,,key,null,16.666,377,329,,,,,,,,
668.1999999,arrowleft,psychophysics,432,379780,0.0-3.0-0.211,,key,arrowleft,17.21089474,377,329,212,8,1,25,35,25,35,FALSE
null,null,psychophysics,433,380783,0.0-3.0-1.211,,key,null,16.666,377,329,,,,,,,,
519.6,arrowleft,psychophysics,434,381305,0.0-3.0-0.212,,key,arrowleft,16.666,377,329,213,8,-1,30,35,25,35,TRUE
null,null,psychophysics,435,382311,0.0-3.0-1.212,,key,null,16.666,377,329,,,,,,,,
516.2,arrowright,psychophysics,436,382832,0.0-3.0-0.213,,key,arrowright,16.666,377,329,214,8,-1,27,15,25,35,FALSE
null,null,psychophysics,437,383833,0.0-3.0-1.213,,key,null,16.666,377,329,,,,,,,,
412,arrowleft,psychophysics,438,384248,0.0-3.0-0.214,,key,arrowleft,16.666,377,329,215,8,1,27,15,25,35,FALSE
null,null,psychophysics,439,385249,0.0-3.0-1.214,,key,null,16.666,377,329,,,,,,,,
520.4,arrowright,psychophysics,440,385772,0.0-3.0-0.215,,key,arrowright,16.666,377,329,216,8,1,25,35,25,35,TRUE
null,null,psychophysics,441,386776,0.0-3.0-1.215,,key,null,16.666,377,329,,,,,,,,
312.3,arrowleft,psychophysics,442,387092,0.0-3.0-0.216,,key,arrowleft,16.666,377,329,217,8,1,30,35,25,35,FALSE
null,null,psychophysics,443,388103,0.0-3.0-1.216,,key,null,16.666,377,329,,,,,,,,
335,arrowright,psychophysics,444,388441,0.0-3.0-0.217,,key,arrowright,16.666,377,329,218,8,-1,26,35,25,35,FALSE
null,null,psychophysics,445,389443,0.0-3.0-1.217,,key,null,16.52788333,377,329,,,,,,,,
317.4,arrowright,psychophysics,446,389762,0.0-3.0-0.218,,key,arrowright,16.666,377,329,219,8,1,20,35,25,35,TRUE
null,null,psychophysics,447,390765,0.0-3.0-1.218,,key,null,18.9095,377,329,,,,,,,,
289.9,arrowright,psychophysics,448,391070,0.0-3.0-0.219,,key,arrowright,44.44266667,377,329,220,8,1,26,35,25,35,TRUE
null,null,psychophysics,449,392072,0.0-3.0-1.219,,key,null,26.38783333,377,329,,,,,,,,
354.1999999,arrowright,psychophysics,450,392431,0.0-3.0-0.220,,key,arrowright,22.61814286,377,329,221,8,1,24,15,25,35,TRUE
null,null,psychophysics,451,393437,0.0-3.0-1.220,,key,null,26.31473684,377,329,,,,,,,,
419.9,arrowleft,psychophysics,452,393890,0.0-3.0-0.221,,key,arrowleft,22.22133333,377,329,222,8,1,20,15,25,35,FALSE
null,null,psychophysics,453,394893,0.0-3.0-1.221,,key,null,23.80857143,377,329,,,,,,,,
446.6,arrowleft,psychophysics,454,395342,0.0-3.0-0.222,,key,arrowleft,28.88773333,377,329,223,8,1,27,35,25,35,FALSE
null,null,psychophysics,455,396348,0.0-3.0-1.222,,key,null,21.37595652,377,329,,,,,,,,
340.1,arrowleft,psychophysics,456,396696,0.0-3.0-0.223,,key,arrowleft,23.80857143,377,329,224,9,-1,25,15,25,35,TRUE
null,null,psychophysics,457,397700,0.0-3.0-1.223,,key,null,20.06722449,377,329,,,,,,,,
1065.8, ,html-keyboard-response,458,398768,0.0-3.0-2.223-0.223,"<div style=""color: white; text-align: center; vertical-align: top; display: inline-block; width: 800px; margin: auto""><p>You have completed 80% of the trials. You are on block 9 of 10. <br>Good job! Take a break if you need to.</p><p>Press any key to continue the experiment.</p></div>",,,,,,,,,,,,,
540.8000001,arrowleft,psychophysics,459,400315,0.0-3.0-0.224,,key,arrowleft,20.27976,377,329,225,9,-1,23,35,25,35,TRUE
null,null,psychophysics,460,401318,0.0-3.0-1.224,,key,null,18.86716981,377,329,,,,,,,,
424.4,arrowright,psychophysics,461,401767,0.0-3.0-0.225,,key,arrowright,16.666,377,329,226,9,1,27,15,25,35,TRUE
null,null,psychophysics,462,402769,0.0-3.0-1.225,,key,null,16.666,377,329,,,,,,,,
302.7,arrowleft,psychophysics,463,403086,0.0-3.0-0.226,,key,arrowleft,16.666,377,329,227,9,-1,25,15,25,35,TRUE
null,null,psychophysics,464,404089,0.0-3.0-1.226,,key,null,16.666,377,329,,,,,,,,
334.4,arrowleft,psychophysics,465,404426,0.0-3.0-0.227,,key,arrowleft,16.666,377,329,228,9,1,24,15,25,35,FALSE
null,null,psychophysics,466,405427,0.0-3.0-1.227,,key,null,16.666,377,329,,,,,,,,
446.5,arrowleft,psychophysics,467,405877,0.0-3.0-0.228,,key,arrowleft,16.666,377,329,229,9,1,24,35,25,35,FALSE
null,null,psychophysics,468,406878,0.0-3.0-1.228,,key,null,16.666,377,329,,,,,,,,
365.6,arrowleft,psychophysics,469,407246,0.0-3.0-0.229,,key,arrowleft,16.666,377,329,230,9,-1,30,15,25,35,TRUE
null,null,psychophysics,470,408248,0.0-3.0-1.229,,key,null,16.666,377,329,,,,,,,,
537,arrowleft,psychophysics,471,408788,0.0-3.0-0.230,,key,arrowleft,16.666,377,329,231,9,-1,30,35,25,35,TRUE
null,null,psychophysics,472,409856,0.0-3.0-1.230,,key,null,24.0387907,377,329,,,,,,,,
703.7,arrowleft,psychophysics,473,410564,0.0-3.0-0.231,,key,arrowleft,24.69037037,377,329,232,9,1,27,15,25,35,FALSE
null,null,psychophysics,474,411565,0.0-3.0-1.231,,key,null,17.24068966,377,329,,,,,,,,
456.8,arrowleft,psychophysics,475,412038,0.0-3.0-0.232,,key,arrowleft,16.666,377,329,233,9,-1,27,35,25,35,TRUE
null,null,psychophysics,476,413040,0.0-3.0-1.232,,key,null,16.666,377,329,,,,,,,,
467.8000001,arrowleft,psychophysics,477,413510,0.0-3.0-0.233,,key,arrowleft,16.666,377,329,234,9,1,30,35,25,35,FALSE
null,null,psychophysics,478,414512,0.0-3.0-1.233,,key,null,16.666,377,329,,,,,,,,
495.8000001,arrowleft,psychophysics,479,415010,0.0-3.0-0.234,,key,arrowleft,16.666,377,329,235,9,1,26,15,25,35,FALSE
null,null,psychophysics,480,416025,0.0-3.0-1.234,,key,null,16.666,377,329,,,,,,,,
360.5,arrowleft,psychophysics,481,416390,0.0-3.0-0.235,,key,arrowleft,16.666,377,329,236,9,1,25,35,25,35,FALSE
null,null,psychophysics,482,417393,0.0-3.0-1.235,,key,null,16.666,377,329,,,,,,,,
716.5,arrowright,psychophysics,483,418112,0.0-3.0-0.236,,key,arrowright,16.666,377,329,237,9,-1,26,15,25,35,FALSE
null,null,psychophysics,484,419113,0.0-3.0-1.236,,key,null,16.666,377,329,,,,,,,,
510.6,arrowleft,psychophysics,485,419628,0.0-3.0-0.237,,key,arrowleft,16.88172414,377,329,238,9,1,25,15,25,35,FALSE
null,null,psychophysics,486,420629,0.0-3.0-1.237,,key,null,16.666,377,329,,,,,,,,
553.5,arrowright,psychophysics,487,421185,0.0-3.0-0.238,,key,arrowright,16.666,377,329,239,9,-1,20,35,25,35,FALSE
null,null,psychophysics,488,422192,0.0-3.0-1.238,,key,null,16.666,377,329,,,,,,,,
367.3000001,arrowright,psychophysics,489,422562,0.0-3.0-0.239,,key,arrowright,16.666,377,329,240,9,1,25,35,25,35,TRUE
null,null,psychophysics,490,423563,0.0-3.0-1.239,,key,null,16.666,377,329,,,,,,,,
621.1999999,arrowleft,psychophysics,491,424187,0.0-3.0-0.240,,key,arrowleft,16.666,377,329,241,9,1,20,15,25,35,FALSE
null,null,psychophysics,492,425190,0.0-3.0-1.240,,key,null,16.666,377,329,,,,,,,,
412.7,arrowleft,psychophysics,493,425606,0.0-3.0-0.241,,key,arrowleft,16.666,377,329,242,9,1,23,35,25,35,FALSE
null,null,psychophysics,494,426608,0.0-3.0-1.241,,key,null,16.666,377,329,,,,,,,,
548.1,arrowright,psychophysics,495,427159,0.0-3.0-0.242,,key,arrowright,16.666,377,329,243,9,-1,27,15,25,35,FALSE
null,null,psychophysics,496,428165,0.0-3.0-1.242,,key,null,16.666,377,329,,,,,,,,
473.5,arrowright,psychophysics,497,428642,0.0-3.0-0.243,,key,arrowright,17.307,377,329,244,9,1,26,35,25,35,TRUE
null,null,psychophysics,498,429643,0.0-3.0-1.243,,key,null,16.54835,377,329,,,,,,,,
384.9,arrowright,psychophysics,499,430032,0.0-3.0-0.244,,key,arrowright,18.3326,377,329,245,9,1,24,15,25,35,TRUE
null,null,psychophysics,500,431035,0.0-3.0-1.244,,key,null,16.666,377,329,,,,,,,,
585.8000001,arrowright,psychophysics,501,431628,0.0-3.0-0.245,,key,arrowright,16.666,377,329,246,9,-1,25,15,25,35,FALSE
null,null,psychophysics,502,432629,0.0-3.0-1.245,,key,null,16.666,377,329,,,,,,,,
265.3000001,arrowright,psychophysics,503,432897,0.0-3.0-0.246,,key,arrowright,16.666,377,329,247,9,1,30,35,25,35,TRUE
null,null,psychophysics,504,433907,0.0-3.0-1.246,,key,null,16.666,377,329,,,,,,,,
207.9,arrowright,psychophysics,505,434119,0.0-3.0-0.247,,key,arrowright,16.666,377,329,248,9,1,27,35,25,35,TRUE
null,null,psychophysics,506,435123,0.0-3.0-1.247,,key,null,16.666,377,329,,,,,,,,
656,arrowleft,psychophysics,507,435782,0.0-3.0-0.248,,key,arrowleft,16.666,377,329,249,9,-1,23,15,25,35,TRUE
null,null,psychophysics,508,436784,0.0-3.0-1.248,,key,null,16.666,377,329,,,,,,,,
372.6,arrowright,psychophysics,509,437159,0.0-3.0-0.249,,key,arrowright,16.666,377,329,250,9,-1,30,35,25,35,FALSE
null,null,psychophysics,510,438161,0.0-3.0-1.249,,key,null,16.666,377,329,,,,,,,,
398.1999999,arrowleft,psychophysics,511,438561,0.0-3.0-0.250,,key,arrowleft,16.666,377,329,251,9,1,25,15,25,35,FALSE
null,null,psychophysics,512,439568,0.0-3.0-1.250,,key,null,16.67969492,377,329,,,,,,,,
526.6,arrowright,psychophysics,513,440097,0.0-3.0-0.251,,key,arrowright,16.666,377,329,252,10,1,26,15,25,35,TRUE
null,null,psychophysics,514,441098,0.0-3.0-1.251,,key,null,16.666,377,329,,,,,,,,
1068.2, ,html-keyboard-response,515,442168,0.0-3.0-2.251-0.251,"<div style=""color: white; text-align: center; vertical-align: top; display: inline-block; width: 800px; margin: auto""><p>You have completed 90% of the trials. You are on block 10 of 10. <br>Good job! Take a break if you need to.</p><p>Press any key to continue the experiment.</p></div>",,,,,,,,,,,,,
662,arrowright,psychophysics,516,443842,0.0-3.0-0.252,,key,arrowright,16.666,377,329,253,10,-1,20,15,25,35,FALSE
null,null,psychophysics,517,444844,0.0-3.0-1.252,,key,null,16.666,377,329,,,,,,,,
385.5,arrowright,psychophysics,518,445237,0.0-3.0-0.253,,key,arrowright,16.666,377,329,254,10,-1,23,35,25,35,FALSE
null,null,psychophysics,519,446238,0.0-3.0-1.253,,key,null,16.666,377,329,,,,,,,,
309.9,arrowright,psychophysics,520,446550,0.0-3.0-0.254,,key,arrowright,16.666,377,329,255,10,1,24,15,25,35,TRUE
null,null,psychophysics,521,447552,0.0-3.0-1.254,,key,null,16.666,377,329,,,,,,,,
319.2,arrowleft,psychophysics,522,447877,0.0-3.0-0.255,,key,arrowleft,16.666,377,329,256,10,-1,20,35,25,35,TRUE
null,null,psychophysics,523,448880,0.0-3.0-1.255,,key,null,16.666,377,329,,,,,,,,
558,arrowright,psychophysics,524,449441,0.0-3.0-0.256,,key,arrowright,16.666,377,329,257,10,-1,25,15,25,35,FALSE
null,null,psychophysics,525,450442,0.0-3.0-1.256,,key,null,16.80305172,377,329,,,,,,,,
293.3000001,arrowleft,psychophysics,526,450738,0.0-3.0-0.257,,key,arrowleft,16.666,377,329,258,10,1,20,15,25,35,FALSE
null,null,psychophysics,527,451750,0.0-3.0-1.257,,key,null,19.60705882,377,329,,,,,,,,
593.6,arrowleft,psychophysics,528,452346,0.0-3.0-0.258,,key,arrowleft,26.98304762,377,329,259,10,1,20,35,25,35,FALSE
null,null,psychophysics,529,453348,0.0-3.0-1.258,,key,null,17.24068966,377,329,,,,,,,,
435,arrowleft,psychophysics,530,453786,0.0-3.0-0.259,,key,arrowleft,21.05178947,377,329,260,10,1,30,15,25,35,FALSE
null,null,psychophysics,531,454789,0.0-3.0-1.259,,key,null,19.72710204,377,329,,,,,,,,
374.7,arrowleft,psychophysics,532,455168,0.0-3.0-0.260,,key,arrowleft,31.6654,377,329,261,10,-1,26,35,25,35,TRUE
null,null,psychophysics,533,456170,0.0-3.0-1.260,,key,null,21.37595652,377,329,,,,,,,,
619.6,arrowright,psychophysics,534,456794,0.0-3.0-0.261,,key,arrowright,18.74925,377,329,262,10,-1,25,15,25,35,FALSE
null,null,psychophysics,535,457796,0.0-3.0-1.261,,key,null,16.666,377,329,,,,,,,,
2886.2,arrowright,psychophysics,536,460695,0.0-3.0-0.262,,key,arrowright,21.75667424,377,329,263,10,-1,26,15,25,35,FALSE
null,null,psychophysics,537,461698,0.0-3.0-1.262,,key,null,16.666,377,329,,,,,,,,
575.9,arrowleft,psychophysics,538,462279,0.0-3.0-0.263,,key,arrowleft,16.666,377,329,264,10,1,30,15,25,35,FALSE
null,null,psychophysics,539,463283,0.0-3.0-1.263,,key,null,16.666,377,329,,,,,,,,
641.1999999,arrowright,psychophysics,540,463928,0.0-3.0-0.264,,key,arrowright,16.666,377,329,265,10,-1,25,15,25,35,FALSE
null,null,psychophysics,541,464954,0.0-3.0-1.264,,key,null,16.666,377,329,,,,,,,,
565.9,arrowleft,psychophysics,542,465526,0.0-3.0-0.265,,key,arrowleft,16.666,377,329,266,10,1,23,15,25,35,FALSE
null,null,psychophysics,543,466529,0.0-3.0-1.265,,key,null,17.87807273,377,329,,,,,,,,
545.4,arrowright,psychophysics,544,467078,0.0-3.0-0.266,,key,arrowright,16.666,377,329,267,10,-1,26,35,25,35,FALSE
null,null,psychophysics,545,468082,0.0-3.0-1.266,,key,null,16.666,377,329,,,,,,,,
524.2,arrowright,psychophysics,546,468611,0.0-3.0-0.267,,key,arrowright,16.666,377,329,268,10,1,23,35,25,35,TRUE
null,null,psychophysics,547,469613,0.0-3.0-1.267,,key,null,16.69301695,377,329,,,,,,,,
397.3,arrowright,psychophysics,548,470033,0.0-3.0-0.268,,key,arrowright,16.666,377,329,269,10,1,25,15,25,35,TRUE
null,null,psychophysics,549,471037,0.0-3.0-1.268,,key,null,16.666,377,329,,,,,,,,
388,arrowleft,psychophysics,550,471430,0.0-3.0-0.269,,key,arrowleft,16.666,377,329,270,10,1,20,35,25,35,FALSE
null,null,psychophysics,551,472435,0.0-3.0-1.269,,key,null,16.666,377,329,,,,,,,,
341.8,arrowleft,psychophysics,552,472781,0.0-3.0-0.270,,key,arrowleft,16.666,377,329,271,10,-1,24,35,25,35,TRUE
null,null,psychophysics,553,473786,0.0-3.0-1.270,,key,null,16.666,377,329,,,,,,,,
339.5,arrowleft,psychophysics,554,474128,0.0-3.0-0.271,,key,arrowleft,16.666,377,329,272,10,-1,26,35,25,35,TRUE
null,null,psychophysics,555,475132,0.0-3.0-1.271,,key,null,16.666,377,329,,,,,,,,
273.5999999,arrowleft,psychophysics,556,475416,0.0-3.0-0.272,,key,arrowleft,16.666,377,329,273,10,-1,25,35,25,35,TRUE
null,null,psychophysics,557,476428,0.0-3.0-1.272,,key,null,16.666,377,329,,,,,,,,
430.8,arrowleft,psychophysics,558,476863,0.0-3.0-0.273,,key,arrowleft,16.666,377,329,274,10,1,26,35,25,35,FALSE
null,null,psychophysics,559,477884,0.0-3.0-1.273,,key,null,16.666,377,329,,,,,,,,
324.2,arrowleft,psychophysics,560,478213,0.0-3.0-0.274,,key,arrowleft,16.666,377,329,275,10,-1,24,15,25,35,TRUE
null,null,psychophysics,561,479215,0.0-3.0-1.274,,key,null,16.666,377,329,,,,,,,,
325,arrowleft,psychophysics,562,479543,0.0-3.0-0.275,,key,arrowleft,16.666,377,329,276,10,1,30,35,25,35,FALSE
null,null,psychophysics,563,480546,0.0-3.0-1.275,,key,null,16.69167797,377,329,,,,,,,,
213.8,arrowleft,psychophysics,564,480763,0.0-3.0-0.276,,key,arrowleft,16.666,377,329,277,10,-1,20,15,25,35,TRUE
null,null,psychophysics,565,481765,0.0-3.0-1.276,,key,null,16.666,377,329,,,,,,,,
279.1,arrowright,psychophysics,566,482061,0.0-3.0-0.277,,key,arrowright,18.88813333,377,329,278,10,-1,23,35,25,35,FALSE
null,null,psychophysics,567,483062,0.0-3.0-1.277,,key,null,17.55882143,377,329,,,,,,,,
94.29999995,arrowleft,psychophysics,568,483161,0.0-3.0-0.278,,key,arrowleft,16.666,377,329,279,10,1,25,15,25,35,FALSE
null,null,psychophysics,569,484166,0.0-3.0-1.278,,key,null,16.666,377,329,,,,,,,,
315.5,arrowright,psychophysics,570,484488,0.0-3.0-0.279,,key,arrowright,16.666,377,329,280,11,1,26,35,25,35,TRUE
null,null,psychophysics,571,485490,0.0-3.0-1.279,,key,null,16.666,377,329,,,,,,,,