"rt","response","trial_type","trial_index","time_elapsed","internal_node_id","stimulus","response_type","key_press","avg_frame_time","center_x","center_y","trial","block","test_pos","test_inner_radius","test_outer_radius","ref_inner_radius","ref_outer_radius","test_bigger"
"55954","{""p_id"":""3518"",""age"":""20"",""handedness"":""right"",""sex"":""female"",""other_sex"":""""}","survey-html-form","0","55957","0.0-0.0","","","","","","","","","","","","","",""
"7408.000000000007","n","html-keyboard-response","1","63373","0.0-1.0","<p style=""color: white"">Welcome to the Size Judgment Experiment. <br>There will be 10 blocks in this experiment. <br>There will be 28 trials in each block. <br>You will be given a chance to take a break between blocks. <br>Press any key to start the experiment.</p>","","","","","","","","","","","","",""
"25018.000000000007","n","psychophysics","2","88398","0.0-2.0","","key","n","17.066211604095564","513.5","362.5","","","","","","","",""
"5571","arrowright","psychophysics","3","93975","0.0-3.0-0.0","","key","arrowright","16.597014925373134","513.5","362.5","1","1","1","30","15","25","35","true"
"null","null","psychophysics","4","94980","0.0-3.0-1.0","","key","null","16.433333333333334","513.5","362.5","","","","","","","",""
"2299","arrowright","psychophysics","5","97287","0.0-3.0-0.1","","key","arrowright","16.615942028985508","513.5","362.5","2","1","1","27","35","25","35","true"
"null","null","psychophysics","6","98290","0.0-3.0-1.1","","key","null","16.533333333333335","513.5","362.5","","","","","","","",""
"4704","arrowleft","psychophysics","7","102999","0.0-3.0-0.2","","key","arrowleft","16.663120567375888","513.5","362.5","3","1","1","24","15","25","35","false"
"null","null","psychophysics","8","104005","0.0-3.0-1.2","","key","null","16.55","513.5","362.5","","","","","","","",""
"1149","arrowright","psychophysics","9","105158","0.0-3.0-0.3","","key","arrowright","16.66176470588235","513.5","362.5","4","1","1","30","35","25","35","true"
"null","null","psychophysics","10","106161","0.0-3.0-1.3","","key","null","16.45","513.5","362.5","","","","","","","",""
"634","arrowleft","psychophysics","11","106805","0.0-3.0-0.4","","key","arrowleft","16.63157894736842","513.5","362.5","5","1","1","23","15","25","35","false"
"null","null","psychophysics","12","107807","0.0-3.0-1.4","","key","null","16.483333333333334","513.5","362.5","","","","","","","",""
"1631","arrowleft","psychophysics","13","109442","0.0-3.0-0.5","","key","arrowleft","16.670103092783506","513.5","362.5","6","1","-1","27","15","25","35","true"
"null","null","psychophysics","14","110447","0.0-3.0-1.5","","key","null","16.416666666666668","513.5","362.5","","","","","","","",""
"1556.0000000000146","arrowleft","psychophysics","15","112013","0.0-3.0-0.6","","key","arrowleft","16.623655913978496","513.5","362.5","7","1","1","25","35","25","35","false"
"null","null","psychophysics","16","113016","0.0-3.0-1.6","","key","null","16.37704918032787","513.5","362.5","","","","","","","",""
"857","arrowright","psychophysics","17","113877","0.0-3.0-0.7","","key","arrowright","16.68","513.5","362.5","8","1","-1","23","15","25","35","false"
"null","null","psychophysics","18","114880","0.0-3.0-1.7","","key","null","16.4","513.5","362.5","","","","","","","",""
"595","arrowleft","psychophysics","19","115488","0.0-3.0-0.8","","key","arrowleft","16.5","513.5","362.5","9","1","-1","30","15","25","35","true"
"null","null","psychophysics","20","116491","0.0-3.0-1.8","","key","null","16.5","513.5","362.5","","","","","","","",""
"1418","arrowleft","psychophysics","21","117912","0.0-3.0-0.9","","key","arrowleft","16.666666666666668","513.5","362.5","10","1","-1","30","35","25","35","true"
"null","null","psychophysics","22","118917","0.0-3.0-1.9","","key","null","16.39344262295082","513.5","362.5","","","","","","","",""
"1134","arrowleft","psychophysics","23","120054","0.0-3.0-0.10","","key","arrowleft","16.65671641791045","513.5","362.5","11","1","1","26","35","25","35","false"
"null","null","psychophysics","24","121057","0.0-3.0-1.10","","key","null","16.5","513.5","362.5","","","","","","","",""
"634","arrowright","psychophysics","25","121705","0.0-3.0-0.11","","key","arrowright","16.63157894736842","513.5","362.5","12","1","-1","24","15","25","35","false"
"null","null","psychophysics","26","122707","0.0-3.0-1.11","","key","null","16.483333333333334","513.5","362.5","","","","","","","",""
"751","arrowleft","psychophysics","27","123462","0.0-3.0-0.12","","key","arrowleft","16.65909090909091","513.5","362.5","13","1","1","23","35","25","35","false"
"null","null","psychophysics","28","124467","0.0-3.0-1.12","","key","null","16.39344262295082","513.5","362.5","","","","","","","",""
"1727.9999999999854","arrowright","psychophysics","29","126198","0.0-3.0-0.13","","key","arrowright","16.660194174757283","513.5","362.5","14","1","-1","25","15","25","35","false"
"null","null","psychophysics","30","127200","0.0-3.0-1.13","","key","null","16.6","513.5","362.5","","","","","","","",""
"596.9999999999854","arrowleft","psychophysics","31","127805","0.0-3.0-0.14","","key","arrowleft","16.65714285714286","513.5","362.5","15","1","1","20","15","25","35","false"
"null","null","psychophysics","32","128808","0.0-3.0-1.14","","key","null","16.483333333333334","513.5","362.5","","","","","","","",""
"3438","arrowright","psychophysics","33","132250","0.0-3.0-0.15","","key","arrowright","16.66504854368932","513.5","362.5","16","1","-1","23","15","25","35","false"
"null","null","psychophysics","34","133254","0.0-3.0-1.15","","key","null","16.55","513.5","362.5","","","","","","","",""
"7499","arrowright","psychophysics","35","140761","0.0-3.0-0.16","","key","arrowright","16.670378619153674","513.5","362.5","17","1","-1","24","35","25","35","false"
"null","null","psychophysics","36","141766","0.0-3.0-1.16","","key","null","16.39344262295082","513.5","362.5","","","","","","","",""
"1171.000000000029","arrowleft","psychophysics","37","142946","0.0-3.0-0.17","","key","arrowleft","16.652173913043477","513.5","362.5","18","1","-1","25","15","25","35","true"
"null","null","psychophysics","38","143950","0.0-3.0-1.17","","key","null","16.360655737704917","513.5","362.5","","","","","","","",""
"1957","arrowleft","psychophysics","39","145912","0.0-3.0-0.18","","key","arrowleft","16.67241379310345","513.5","362.5","19","1","1","24","35","25","35","false"
"null","null","psychophysics","40","146916","0.0-3.0-1.18","","key","null","16.360655737704917","513.5","362.5","","","","","","","",""
"778","arrowright","psychophysics","41","147698","0.0-3.0-0.19","","key","arrowright","16.652173913043477","513.5","362.5","20","1","1","25","35","25","35","true"
"null","null","psychophysics","42","148703","0.0-3.0-1.19","","key","null","16.55","513.5","362.5","","","","","","","",""
"609.9999999999709","arrowleft","psychophysics","43","149318","0.0-3.0-0.20","","key","arrowleft","16.666666666666668","513.5","362.5","21","1","-1","30","15","25","35","true"
"null","null","psychophysics","44","150320","0.0-3.0-1.20","","key","null","16.533333333333335","513.5","362.5","","","","","","","",""
"569","arrowleft","psychophysics","45","150895","0.0-3.0-0.21","","key","arrowleft","16.666666666666668","513.5","362.5","22","1","1","24","15","25","35","false"
"null","null","psychophysics","46","151900","0.0-3.0-1.21","","key","null","16.39344262295082","513.5","362.5","","","","","","","",""
"2024.000000000029","arrowright","psychophysics","47","153928","0.0-3.0-0.22","","key","arrowright","16.666666666666668","513.5","362.5","23","1","-1","25","35","25","35","false"
"null","null","psychophysics","48","154934","0.0-3.0-1.22","","key","null","16.311475409836067","513.5","362.5","","","","","","","",""
"1328.999999999971","arrowleft","psychophysics","49","156268","0.0-3.0-0.23","","key","arrowleft","16.658227848101266","513.5","362.5","24","1","1","24","15","25","35","false"
"null","null","psychophysics","50","157271","0.0-3.0-1.23","","key","null","16.533333333333335","513.5","362.5","","","","","","","",""
"880","arrowright","psychophysics","51","158155","0.0-3.0-0.24","","key","arrowright","16.673076923076923","513.5","362.5","25","1","1","25","15","25","35","true"
"null","null","psychophysics","52","159158","0.0-3.0-1.24","","key","null","16.483333333333334","513.5","362.5","","","","","","","",""
"686","arrowleft","psychophysics","53","159854","0.0-3.0-0.25","","key","arrowleft","16.70731707317073","513.5","362.5","26","1","1","24","35","25","35","false"
"null","null","psychophysics","54","160861","0.0-3.0-1.25","","key","null","16.433333333333334","513.5","362.5","","","","","","","",""
"673","arrowleft","psychophysics","55","161545","0.0-3.0-0.26","","key","arrowleft","16.625","513.5","362.5","27","1","1","20","15","25","35","false"
"null","null","psychophysics","56","162548","0.0-3.0-1.26","","key","null","16.360655737704917","513.5","362.5","","","","","","","",""
"742.9999999999709","arrowright","psychophysics","57","163295","0.0-3.0-0.27","","key","arrowright","16.674418604651162","513.5","362.5","28","2","1","23","35","25","35","true"
"null","null","psychophysics","58","164299","0.0-3.0-1.27","","key","null","16.360655737704917","513.5","362.5","","","","","","","",""
"5443","escape","html-keyboard-response","59","169743","0.0-3.0-2.27-0.27","<div style=""color: white; text-align: center; vertical-align: top; display: inline-block; width: 800px; margin: auto""><p>You have completed 10% of the trials. You are on block 2 of 10. <br>Good job! Take a break if you need to.</p><p>Press any key to continue the experiment.</p></div>","","","","","","","","","","","","",""
"3509","arrowright","psychophysics","60","174262","0.0-3.0-0.28","","key","arrowright","16.66507177033493","513.5","362.5","29","2","1","26","15","25","35","true"
"null","null","psychophysics","61","175265","0.0-3.0-1.28","","key","null","16.5","513.5","362.5","","","","","","","",""
"3072","arrowright","psychophysics","62","178349","0.0-3.0-0.29","","key","arrowright","16.668478260869566","513.5","362.5","30","2","1","27","35","25","35","true"
"null","null","psychophysics","63","179351","0.0-3.0-1.29","","key","null","16.466666666666665","513.5","362.5","","","","","","","",""
"1214","arrowright","psychophysics","64","180575","0.0-3.0-0.30","","key","arrowright","16.65753424657534","513.5","362.5","31","2","1","30","15","25","35","true"
"null","null","psychophysics","65","181581","0.0-3.0-1.30","","key","null","16.5","513.5","362.5","","","","","","","",""
"1044","arrowleft","psychophysics","66","182629","0.0-3.0-0.31","","key","arrowleft","16.661290322580644","513.5","362.5","32","2","-1","25","15","25","35","true"
"null","null","psychophysics","67","183632","0.0-3.0-1.31","","key","null","16.5","513.5","362.5","","","","","","","",""
"1807","arrowleft","psychophysics","68","185442","0.0-3.0-0.32","","key","arrowleft","16.65740740740741","513.5","362.5","33","2","-1","24","15","25","35","true"
"null","null","psychophysics","69","186446","0.0-3.0-1.32","","key","null","16.55","513.5","362.5","","","","","","","",""
"779","arrowleft","psychophysics","70","187241","0.0-3.0-0.33","","key","arrowleft","16.638297872340427","513.5","362.5","34","2","-1","27","35","25","35","true"
"null","null","psychophysics","71","188243","0.0-3.0-1.33","","key","null","16.583333333333332","513.5","362.5","","","","","","","",""
"702","arrowleft","psychophysics","72","188950","0.0-3.0-0.34","","key","arrowleft","16.682926829268293","513.5","362.5","35","2","1","20","35","25","35","false"
"null","null","psychophysics","73","189953","0.0-3.0-1.34","","key","null","16.433333333333334","513.5","362.5","","","","","","","",""
"734","arrowright","psychophysics","74","190699","0.0-3.0-0.35","","key","arrowright","16.59090909090909","513.5","362.5","36","2","-1","24","15","25","35","false"
"null","null","psychophysics","75","191701","0.0-3.0-1.35","","key","null","16.45","513.5","362.5","","","","","","","",""
"525.0000000000291","arrowleft","psychophysics","76","192237","0.0-3.0-0.36","","key","arrowleft","16.612903225806452","513.5","362.5","37","2","-1","25","35","25","35","true"
"null","null","psychophysics","77","193249","0.0-3.0-1.36","","key","null","16.21311475409836","513.5","362.5","","","","","","","",""
"747","arrowleft","psychophysics","78","194000","0.0-3.0-0.37","","key","arrowleft","16.681818181818183","513.5","362.5","38","2","-1","27","15","25","35","true"
"null","null","psychophysics","79","195003","0.0-3.0-1.37","","key","null","16.433333333333334","513.5","362.5","","","","","","","",""
"852","arrowright","psychophysics","80","195866","0.0-3.0-0.38","","key","arrowright","16.627450980392158","513.5","362.5","39","2","-1","20","15","25","35","false"
"null","null","psychophysics","81","196869","0.0-3.0-1.38","","key","null","16.45","513.5","362.5","","","","","","","",""
"532","arrowleft","psychophysics","82","197412","0.0-3.0-0.39","","key","arrowleft","16.625","513.5","362.5","40","2","1","20","35","25","35","false"
"null","null","psychophysics","83","198415","0.0-3.0-1.39","","key","null","16.5","513.5","362.5","","","","","","","",""
"605.9999999999709","arrowleft","psychophysics","84","199033","0.0-3.0-0.40","","key","arrowleft","16.666666666666668","513.5","362.5","41","2","1","27","15","25","35","false"
"null","null","psychophysics","85","200036","0.0-3.0-1.40","","key","null","16.45","513.5","362.5","","","","","","","",""
"248","arrowleft","psychophysics","86","200299","0.0-3.0-0.41","","key","arrowleft","16.533333333333335","513.5","362.5","42","2","1","30","15","25","35","false"
"null","null","psychophysics","87","201302","0.0-3.0-1.41","","key","null","16.433333333333334","513.5","362.5","","","","","","","",""
"702","arrowleft","psychophysics","88","202015","0.0-3.0-0.42","","key","arrowleft","16.61904761904762","513.5","362.5","43","2","1","24","15","25","35","false"
"null","null","psychophysics","89","203018","0.0-3.0-1.42","","key","null","16.45","513.5","362.5","","","","","","","",""
"344","arrowleft","psychophysics","90","203370","0.0-3.0-0.43","","key","arrowleft","16.65","513.5","362.5","44","2","1","30","35","25","35","false"
"null","null","psychophysics","91","204374","0.0-3.0-1.43","","key","null","16.360655737704917","513.5","362.5","","","","","","","",""
"678","arrowleft","psychophysics","92","205061","0.0-3.0-0.44","","key","arrowleft","17.076923076923077","513.5","362.5","45","2","-1","25","35","25","35","true"
"null","null","psychophysics","93","206064","0.0-3.0-1.44","","key","null","16.5","513.5","362.5","","","","","","","",""
"759.0000000000291","arrowleft","psychophysics","94","206826","0.0-3.0-0.45","","key","arrowleft","16.644444444444446","513.5","362.5","46","2","1","26","35","25","35","false"
"null","null","psychophysics","95","207829","0.0-3.0-1.45","","key","null","16.55","513.5","362.5","","","","","","","",""
"1360","arrowleft","psychophysics","96","209192","0.0-3.0-0.46","","key","arrowleft","16.65432098765432","513.5","362.5","47","2","1","23","35","25","35","false"
"null","null","psychophysics","97","210195","0.0-3.0-1.46","","key","null","16.55","513.5","362.5","","","","","","","",""
"1471","arrowleft","psychophysics","98","211675","0.0-3.0-0.47","","key","arrowleft","16.647727272727273","513.5","362.5","48","2","-1","24","15","25","35","true"
"null","null","psychophysics","99","212679","0.0-3.0-1.47","","key","null","16.533333333333335","513.5","362.5","","","","","","","",""
"603.9999999999709","arrowleft","psychophysics","100","213287","0.0-3.0-0.48","","key","arrowleft","16.65714285714286","513.5","362.5","49","2","-1","30","15","25","35","true"
"null","null","psychophysics","101","214291","0.0-3.0-1.48","","key","null","16.37704918032787","513.5","362.5","","","","","","","",""
"881.9999999999709","arrowright","psychophysics","102","215177","0.0-3.0-0.49","","key","arrowright","16.673076923076923","513.5","362.5","50","2","1","30","15","25","35","true"
"null","null","psychophysics","103","216181","0.0-3.0-1.49","","key","null","16.516666666666666","513.5","362.5","","","","","","","",""
"863","arrowleft","psychophysics","104","217059","0.0-3.0-0.50","","key","arrowleft","16.615384615384617","513.5","362.5","51","2","-1","26","15","25","35","true"
"null","null","psychophysics","105","218062","0.0-3.0-1.50","","key","null","16.55","513.5","362.5","","","","","","","",""
"626","arrowleft","psychophysics","106","218691","0.0-3.0-0.51","","key","arrowleft","16.64864864864865","513.5","362.5","52","2","-1","30","35","25","35","true"
"null","null","psychophysics","107","219693","0.0-3.0-1.51","","key","null","16.566666666666666","513.5","362.5","","","","","","","",""
"1483","arrowleft","psychophysics","108","221181","0.0-3.0-0.52","","key","arrowleft","16.65909090909091","513.5","362.5","53","2","-1","25","15","25","35","true"
"null","null","psychophysics","109","222183","0.0-3.0-1.52","","key","null","16.466666666666665","513.5","362.5","","","","","","","",""
"673","arrowright","psychophysics","110","222869","0.0-3.0-0.53","","key","arrowright","16.6","513.5","362.5","54","2","-1","20","35","25","35","false"
"null","null","psychophysics","111","223875","0.0-3.0-1.53","","key","null","16.39344262295082","513.5","362.5","","","","","","","",""
"875","arrowleft","psychophysics","112","224756","0.0-3.0-0.54","","key","arrowleft","16.634615384615383","513.5","362.5","55","2","-1","27","15","25","35","true"
"null","null","psychophysics","113","225758","0.0-3.0-1.54","","key","null","16.616666666666667","513.5","362.5","","","","","","","",""
"953","arrowleft","psychophysics","114","226715","0.0-3.0-0.55","","key","arrowleft","16.678571428571427","513.5","362.5","56","3","-1","25","15","25","35","true"
"null","null","psychophysics","115","227718","0.0-3.0-1.55","","key","null","16.416666666666668","513.5","362.5","","","","","","","",""
"16379.99999999997"," ","html-keyboard-response","116","244104","0.0-3.0-2.55-0.55","<div style=""color: white; text-align: center; vertical-align: top; display: inline-block; width: 800px; margin: auto""><p>You have completed 20% of the trials. You are on block 3 of 10. <br>Good job! Take a break if you need to.</p><p>Press any key to continue the experiment.</p></div>","","","","","","","","","","","","",""
"1279.000000000029","arrowright","psychophysics","117","246385","0.0-3.0-0.56","","key","arrowright","20.442622950819672","513.5","362.5","57","3","-1","24","35","25","35","false"
"null","null","psychophysics","118","247390","0.0-3.0-1.56","","key","null","18.846153846153847","513.5","362.5","","","","","","","",""
"1074","arrowleft","psychophysics","119","248475","0.0-3.0-0.57","","key","arrowleft","19.618181818181817","513.5","362.5","58","3","-1","23","15","25","35","true"
"null","null","psychophysics","120","249477","0.0-3.0-1.57","","key","null","18.072727272727274","513.5","362.5","","","","","","","",""
"819.9999999999709","arrowleft","psychophysics","121","250300","0.0-3.0-0.58","","key","arrowleft","16.93617021276596","513.5","362.5","59","3","1","26","35","25","35","false"
"null","null","psychophysics","122","251305","0.0-3.0-1.58","","key","null","16.37704918032787","513.5","362.5","","","","","","","",""
"1482","arrowright","psychophysics","123","252791","0.0-3.0-0.59","","key","arrowright","16.693181818181817","513.5","362.5","60","3","-1","25","35","25","35","false"
"null","null","psychophysics","124","253798","0.0-3.0-1.59","","key","null","16.5","513.5","362.5","","","","","","","",""
"637","arrowleft","psychophysics","125","254440","0.0-3.0-0.60","","key","arrowleft","16.657894736842106","513.5","362.5","61","3","1","23","35","25","35","false"
"null","null","psychophysics","126","255441","0.0-3.0-1.60","","key","null","16.6","513.5","362.5","","","","","","","",""
"944.9999999999709","arrowright","psychophysics","127","256390","0.0-3.0-0.61","","key","arrowright","16.660714285714285","513.5","362.5","62","3","-1","24","15","25","35","false"
"null","null","psychophysics","128","257393","0.0-3.0-1.61","","key","null","16.566666666666666","513.5","362.5","","","","","","","",""
"759","arrowleft","psychophysics","129","258158","0.0-3.0-0.62","","key","arrowleft","16.772727272727273","513.5","362.5","63","3","1","26","35","25","35","false"
"null","null","psychophysics","130","259160","0.0-3.0-1.62","","key","null","16.383333333333333","513.5","362.5","","","","","","","",""
"606.0000000000582","arrowright","psychophysics","131","259781","0.0-3.0-0.63","","key","arrowright","16.61111111111111","513.5","362.5","64","3","1","30","35","25","35","true"
"null","null","psychophysics","132","260784","0.0-3.0-1.63","","key","null","16.37704918032787","513.5","362.5","","","","","","","",""
"632","arrowleft","psychophysics","133","261418","0.0-3.0-0.64","","key","arrowleft","16.64864864864865","513.5","362.5","65","3","-1","24","35","25","35","true"
"null","null","psychophysics","134","262421","0.0-3.0-1.64","","key","null","16.583333333333332","513.5","362.5","","","","","","","",""
"652","arrowleft","psychophysics","135","263078","0.0-3.0-0.65","","key","arrowleft","16.657894736842106","513.5","362.5","66","3","-1","30","15","25","35","true"
"null","null","psychophysics","136","264081","0.0-3.0-1.65","","key","null","16.416666666666668","513.5","362.5","","","","","","","",""
"764","arrowright","psychophysics","137","264857","0.0-3.0-0.66","","key","arrowright","16.58695652173913","513.5","362.5","67","3","1","27","15","25","35","true"
"null","null","psychophysics","138","265864","0.0-3.0-1.66","","key","null","16.491525423728813","513.5","362.5","","","","","","","",""
"1152","arrowright","psychophysics","139","267026","0.0-3.0-0.67","","key","arrowright","16.71014492753623","513.5","362.5","68","3","-1","20","35","25","35","false"
"null","null","psychophysics","140","268029","0.0-3.0-1.67","","key","null","16.55","513.5","362.5","","","","","","","",""
"1124.0000000000582","arrowright","psychophysics","141","269156","0.0-3.0-0.68","","key","arrowright","16.671641791044777","513.5","362.5","69","3","-1","20","35","25","35","false"
"null","null","psychophysics","142","270158","0.0-3.0-1.68","","key","null","16.616666666666667","513.5","362.5","","","","","","","",""
"593","arrowleft","psychophysics","143","270754","0.0-3.0-0.69","","key","arrowleft","16.676470588235293","513.5","362.5","70","3","-1","30","35","25","35","true"
"null","null","psychophysics","144","271759","0.0-3.0-1.69","","key","null","19.86","513.5","362.5","","","","","","","",""
"953","arrowleft","psychophysics","145","272716","0.0-3.0-0.70","","key","arrowleft","16.553571428571427","513.5","362.5","71","3","-1","27","35","25","35","true"
"null","null","psychophysics","146","273718","0.0-3.0-1.70","","key","null","16.383333333333333","513.5","362.5","","","","","","","",""
"944","arrowleft","psychophysics","147","274674","0.0-3.0-0.71","","key","arrowleft","17.830188679245282","513.5","362.5","72","3","-1","25","15","25","35","true"
"null","null","psychophysics","148","275677","0.0-3.0-1.71","","key","null","16.483333333333334","513.5","362.5","","","","","","","",""
"541","arrowleft","psychophysics","149","276222","0.0-3.0-0.72","","key","arrowleft","16.71875","513.5","362.5","73","3","-1","30","15","25","35","true"
"null","null","psychophysics","150","277230","0.0-3.0-1.72","","key","null","16.433333333333334","513.5","362.5","","","","","","","",""
"778","arrowright","psychophysics","151","278018","0.0-3.0-0.73","","key","arrowright","19.05","513.5","362.5","74","3","1","27","35","25","35","true"
"null","null","psychophysics","152","279022","0.0-3.0-1.73","","key","null","17.155172413793103","513.5","362.5","","","","","","","",""
"630.0000000000582","arrowleft","psychophysics","153","279655","0.0-3.0-0.74","","key","arrowleft","16.62162162162162","513.5","362.5","75","3","-1","30","15","25","35","true"
"null","null","psychophysics","154","280658","0.0-3.0-1.74","","key","null","16.5","513.5","362.5","","","","","","","",""
"667","arrowright","psychophysics","155","281328","0.0-3.0-0.75","","key","arrowright","16.692307692307693","513.5","362.5","76","3","-1","23","35","25","35","false"
"null","null","psychophysics","156","282331","0.0-3.0-1.75","","key","null","16.383333333333333","513.5","362.5","","","","","","","",""
"849","arrowright","psychophysics","157","283193","0.0-3.0-0.76","","key","arrowright","16.627450980392158","513.5","362.5","77","3","1","30","15","25","35","true"
"null","null","psychophysics","158","284196","0.0-3.0-1.76","","key","null","16.533333333333335","513.5","362.5","","","","","","","",""
"903","arrowleft","psychophysics","159","285102","0.0-3.0-0.77","","key","arrowleft","16.5","513.5","362.5","78","3","1","20","35","25","35","false"
"null","null","psychophysics","160","286105","0.0-3.0-1.77","","key","null","18.166666666666668","513.5","362.5","","","","","","","",""
"1522","arrowleft","psychophysics","161","287631","0.0-3.0-0.78","","key","arrowleft","16.63736263736264","513.5","362.5","79","3","1","23","15","25","35","false"
"null","null","psychophysics","162","288634","0.0-3.0-1.78","","key","null","16.5","513.5","362.5","","","","","","","",""
"943","arrowright","psychophysics","163","289593","0.0-3.0-0.79","","key","arrowright","16.63157894736842","513.5","362.5","80","3","-1","23","35","25","35","false"
"null","null","psychophysics","164","290595","0.0-3.0-1.79","","key","null","16.6","513.5","362.5","","","","","","","",""
"941","arrowright","psychophysics","165","291540","0.0-3.0-0.80","","key","arrowright","16.672727272727272","513.5","362.5","81","3","1","23","15","25","35","true"
"null","null","psychophysics","166","292545","0.0-3.0-1.80","","key","null","16.37704918032787","513.5","362.5","","","","","","","",""
"747","arrowright","psychophysics","167","293296","0.0-3.0-0.81","","key","arrowright","19.289473684210527","513.5","362.5","82","3","1","24","15","25","35","true"
"null","null","psychophysics","168","294298","0.0-3.0-1.81","","key","null","17.017241379310345","513.5","362.5","","","","","","","",""
"711","arrowright","psychophysics","169","295025","0.0-3.0-0.82","","key","arrowright","17.925","513.5","362.5","83","3","-1","20","15","25","35","false"
"null","null","psychophysics","170","296033","0.0-3.0-1.82","","key","null","19.74","513.5","362.5","","","","","","","",""
"848","arrowleft","psychophysics","171","296884","0.0-3.0-0.83","","key","arrowleft","16.78","513.5","362.5","84","4","-1","30","15","25","35","true"
"null","null","psychophysics","172","297887","0.0-3.0-1.83","","key","null","16.6","513.5","362.5","","","","","","","",""
"1495","arrowleft","html-keyboard-response","173","299384","0.0-3.0-2.83-0.83","<div style=""color: white; text-align: center; vertical-align: top; display: inline-block; width: 800px; margin: auto""><p>You have completed 30% of the trials. You are on block 4 of 10. <br>Good job! Take a break if you need to.</p><p>Press any key to continue the experiment.</p></div>","","","","","","","","","","","","",""
"855","arrowleft","psychophysics","174","301244","0.0-3.0-0.84","","key","arrowleft","17.104166666666668","513.5","362.5","85","4","-1","26","35","25","35","true"
"null","null","psychophysics","175","302250","0.0-3.0-1.84","","key","null","16.34426229508197","513.5","362.5","","","","","","","",""
"794","arrowright","psychophysics","176","303049","0.0-3.0-0.85","","key","arrowright","16.804347826086957","513.5","362.5","86","4","-1","23","35","25","35","false"
"null","null","psychophysics","177","304051","0.0-3.0-1.85","","key","null","16.416666666666668","513.5","362.5","","","","","","","",""
"776","arrowleft","psychophysics","178","304837","0.0-3.0-0.86","","key","arrowleft","16.595744680851062","513.5","362.5","87","4","1","23","15","25","35","false"
"null","null","psychophysics","179","305840","0.0-3.0-1.86","","key","null","16.6","513.5","362.5","","","","","","","",""
"1079.0000000000582","arrowright","psychophysics","180","306922","0.0-3.0-0.87","","key","arrowright","16.671875","513.5","362.5","88","4","1","23","15","25","35","true"
"null","null","psychophysics","181","307930","0.0-3.0-1.87","","key","null","16.483333333333334","513.5","362.5","","","","","","","",""
"967","arrowleft","psychophysics","182","308900","0.0-3.0-0.88","","key","arrowleft","20.425531914893618","513.5","362.5","89","4","1","20","15","25","35","false"
"null","null","psychophysics","183","309902","0.0-3.0-1.88","","key","null","17.714285714285715","513.5","362.5","","","","","","","",""
"1195","arrowleft","psychophysics","184","311102","0.0-3.0-0.89","","key","arrowleft","19.112903225806452","513.5","362.5","90","4","1","23","15","25","35","false"
"null","null","psychophysics","185","312104","0.0-3.0-1.89","","key","null","16.516666666666666","513.5","362.5","","","","","","","",""
"882","arrowright","psychophysics","186","312991","0.0-3.0-0.90","","key","arrowright","19.818181818181817","513.5","362.5","91","4","1","27","15","25","35","true"
"null","null","psychophysics","187","313999","0.0-3.0-1.90","","key","null","16.55","513.5","362.5","","","","","","","",""
"887","arrowright","psychophysics","188","314890","0.0-3.0-0.91","","key","arrowright","19.977272727272727","513.5","362.5","92","4","1","25","15","25","35","true"
"null","null","psychophysics","189","315893","0.0-3.0-1.91","","key","null","16.295081967213115","513.5","362.5","","","","","","","",""
"649","arrowright","psychophysics","190","316545","0.0-3.0-0.92","","key","arrowright","16.68421052631579","513.5","362.5","93","4","-1","23","35","25","35","false"
"null","null","psychophysics","191","317547","0.0-3.0-1.92","","key","null","16.516666666666666","513.5","362.5","","","","","","","",""
"1065","arrowright","psychophysics","192","318617","0.0-3.0-0.93","","key","arrowright","16.682539682539684","513.5","362.5","94","4","1","26","15","25","35","true"
"null","null","psychophysics","193","319624","0.0-3.0-1.93","","key","null","16.360655737704917","513.5","362.5","","","","","","","",""
"777.0000000000582","arrowleft","psychophysics","194","320405","0.0-3.0-0.94","","key","arrowleft","16.666666666666668","513.5","362.5","95","4","-1","27","35","25","35","true"
"null","null","psychophysics","195","321408","0.0-3.0-1.94","","key","null","16.360655737704917","513.5","362.5","","","","","","","",""
"813","arrowright","psychophysics","196","322226","0.0-3.0-0.95","","key","arrowright","20.256410256410255","513.5","362.5","96","4","-1","20","15","25","35","false"
"null","null","psychophysics","197","323228","0.0-3.0-1.95","","key","null","20.6875","513.5","362.5","","","","","","","",""
"663","arrowleft","psychophysics","198","323894","0.0-3.0-0.96","","key","arrowleft","17.35135135135135","513.5","362.5","97","4","-1","30","35","25","35","true"
"null","null","psychophysics","199","324897","0.0-3.0-1.96","","key","null","16.76271186440678","513.5","362.5","","","","","","","",""
"915","arrowleft","psychophysics","200","325827","0.0-3.0-0.97","","key","arrowleft","16.70909090909091","513.5","362.5","98","4","1","24","15","25","35","false"
"null","null","psychophysics","201","326831","0.0-3.0-1.97","","key","null","19.6","513.5","362.5","","","","","","","",""
"574","arrowleft","psychophysics","202","327410","0.0-3.0-0.98","","key","arrowleft","16.58823529411765","513.5","362.5","99","4","1","20","35","25","35","false"
"null","null","psychophysics","203","328413","0.0-3.0-1.98","","key","null","16.55","513.5","362.5","","","","","","","",""
"489.9999999999418","arrowleft","psychophysics","204","328907","0.0-3.0-0.99","","key","arrowleft","16.482758620689655","513.5","362.5","100","4","1","27","15","25","35","false"
"null","null","psychophysics","205","329910","0.0-3.0-1.99","","key","null","16.466666666666665","513.5","362.5","","","","","","","",""
"492.0000000000582","arrowleft","psychophysics","206","330406","0.0-3.0-0.100","","key","arrowleft","16.655172413793103","513.5","362.5","101","4","1","20","35","25","35","false"
"null","null","psychophysics","207","331413","0.0-3.0-1.100","","key","null","16.433333333333334","513.5","362.5","","","","","","","",""
"609","arrowleft","psychophysics","208","332034","0.0-3.0-0.101","","key","arrowleft","16.594594594594593","513.5","362.5","102","4","-1","27","35","25","35","true"
"null","null","psychophysics","209","333036","0.0-3.0-1.101","","key","null","16.6","513.5","362.5","","","","","","","",""
"780.9999999999418","arrowleft","psychophysics","210","333824","0.0-3.0-0.102","","key","arrowleft","16.425531914893618","513.5","362.5","103","4","1","25","35","25","35","false"
"null","null","psychophysics","211","334826","0.0-3.0-1.102","","key","null","16.6","513.5","362.5","","","","","","","",""
"706","arrowright","psychophysics","212","335536","0.0-3.0-0.103","","key","arrowright","16.682926829268293","513.5","362.5","104","4","-1","24","15","25","35","false"
"null","null","psychophysics","213","336541","0.0-3.0-1.103","","key","null","16.39344262295082","513.5","362.5","","","","","","","",""
"678","arrowright","psychophysics","214","337228","0.0-3.0-0.104","","key","arrowright","16.675","513.5","362.5","105","4","-1","24","35","25","35","false"
"null","null","psychophysics","215","338230","0.0-3.0-1.104","","key","null","16.88135593220339","513.5","362.5","","","","","","","",""
"701","arrowright","psychophysics","216","338935","0.0-3.0-0.105","","key","arrowright","18.77777777777778","513.5","362.5","106","4","-1","20","35","25","35","false"
"null","null","psychophysics","217","339938","0.0-3.0-1.105","","key","null","16.694915254237287","513.5","362.5","","","","","","","",""
"1047","arrowright","psychophysics","218","340996","0.0-3.0-0.106","","key","arrowright","17.45","513.5","362.5","107","4","1","24","35","25","35","true"
"null","null","psychophysics","219","341998","0.0-3.0-1.106","","key","null","16.5","513.5","362.5","","","","","","","",""
"393","arrowright","psychophysics","220","342406","0.0-3.0-0.107","","key","arrowright","17.681818181818183","513.5","362.5","108","4","1","25","15","25","35","true"
"null","null","psychophysics","221","343409","0.0-3.0-1.107","","key","null","21.652173913043477","513.5","362.5","","","","","","","",""
"476","arrowright","psychophysics","222","343888","0.0-3.0-0.108","","key","arrowright","20.391304347826086","513.5","362.5","109","4","-1","24","35","25","35","false"
"null","null","psychophysics","223","344890","0.0-3.0-1.108","","key","null","16.74576271186441","513.5","362.5","","","","","","","",""
"747.9999999999418","arrowleft","psychophysics","224","345641","0.0-3.0-0.109","","key","arrowleft","16.681818181818183","513.5","362.5","110","4","1","25","15","25","35","false"
"null","null","psychophysics","225","346644","0.0-3.0-1.109","","key","null","16.4","513.5","362.5","","","","","","","",""
"404","arrowright","psychophysics","226","347060","0.0-3.0-0.110","","key","arrowright","19.523809523809526","513.5","362.5","111","4","-1","23","15","25","35","false"
"null","null","psychophysics","227","348064","0.0-3.0-1.110","","key","null","16.433333333333334","513.5","362.5","","","","","","","",""
"816","arrowleft","psychophysics","228","348897","0.0-3.0-0.111","","key","arrowleft","16.958333333333332","513.5","362.5","112","5","-1","26","35","25","35","true"
"null","null","psychophysics","229","349899","0.0-3.0-1.111","","key","null","16.466666666666665","513.5","362.5","","","","","","","",""
"927","arrowright","html-keyboard-response","230","350835","0.0-3.0-2.111-0.111","<div style=""color: white; text-align: center; vertical-align: top; display: inline-block; width: 800px; margin: auto""><p>You have completed 40% of the trials. You are on block 5 of 10. <br>Good job! Take a break if you need to.</p><p>Press any key to continue the experiment.</p></div>","","","","","","","","","","","","",""
"824","arrowleft","psychophysics","231","352664","0.0-3.0-0.112","","key","arrowleft","16.448979591836736","513.5","362.5","113","5","1","25","35","25","35","false"
"null","null","psychophysics","232","353667","0.0-3.0-1.112","","key","null","17.50877192982456","513.5","362.5","","","","","","","",""
"723","arrowleft","psychophysics","233","354399","0.0-3.0-0.113","","key","arrowleft","16.651162790697676","513.5","362.5","114","5","1","20","15","25","35","false"
"null","null","psychophysics","234","355402","0.0-3.0-1.113","","key","null","16.6","513.5","362.5","","","","","","","",""
"605","arrowright","psychophysics","235","356011","0.0-3.0-0.114","","key","arrowright","21.25","513.5","362.5","115","5","-1","27","15","25","35","false"
"null","null","psychophysics","236","357014","0.0-3.0-1.114","","key","null","19.7","513.5","362.5","","","","","","","",""
"813","arrowright","psychophysics","237","357838","0.0-3.0-0.115","","key","arrowright","21.43243243243243","513.5","362.5","116","5","1","27","35","25","35","true"
"null","null","psychophysics","238","358841","0.0-3.0-1.115","","key","null","16.360655737704917","513.5","362.5","","","","","","","",""
"1017","arrowleft","psychophysics","239","359862","0.0-3.0-0.116","","key","arrowleft","16.666666666666668","513.5","362.5","117","5","1","23","35","25","35","false"
"null","null","psychophysics","240","360869","0.0-3.0-1.116","","key","null","16.416666666666668","513.5","362.5","","","","","","","",""
"819.0000000000582","arrowleft","psychophysics","241","361696","0.0-3.0-0.117","","key","arrowleft","16.6734693877551","513.5","362.5","118","5","-1","27","35","25","35","true"
"null","null","psychophysics","242","362698","0.0-3.0-1.117","","key","null","16.466666666666665","513.5","362.5","","","","","","","",""
"1006","arrowright","psychophysics","243","363706","0.0-3.0-0.118","","key","arrowright","16.666666666666668","513.5","362.5","119","5","1","30","15","25","35","true"
"null","null","psychophysics","244","364710","0.0-3.0-1.118","","key","null","16.566666666666666","513.5","362.5","","","","","","","",""
"947.9999999999418","arrowright","psychophysics","245","365664","0.0-3.0-0.119","","key","arrowright","16.678571428571427","513.5","362.5","120","5","-1","23","35","25","35","false"
"null","null","psychophysics","246","366671","0.0-3.0-1.119","","key","null","16.383333333333333","513.5","362.5","","","","","","","",""
"1132","arrowleft","psychophysics","247","367816","0.0-3.0-0.120","","key","arrowleft","18.9","513.5","362.5","121","5","1","25","35","25","35","false"
"null","null","psychophysics","248","368818","0.0-3.0-1.120","","key","null","17.75","513.5","362.5","","","","","","","",""
"1011","arrowleft","psychophysics","249","369834","0.0-3.0-0.121","","key","arrowleft","19.21153846153846","513.5","362.5","122","5","-1","30","15","25","35","true"
"null","null","psychophysics","250","370837","0.0-3.0-1.121","","key","null","16.566666666666666","513.5","362.5","","","","","","","",""
"1889.0000000000582","arrowleft","psychophysics","251","372732","0.0-3.0-0.122","","key","arrowleft","16.663716814159294","513.5","362.5","123","5","-1","27","35","25","35","true"
"null","null","psychophysics","252","373741","0.0-3.0-1.122","","key","null","16.466666666666665","513.5","362.5","","","","","","","",""
"1848","arrowright","psychophysics","253","375593","0.0-3.0-0.123","","key","arrowright","17.854368932038835","513.5","362.5","124","5","-1","24","35","25","35","false"
"null","null","psychophysics","254","376596","0.0-3.0-1.123","","key","null","18.735849056603772","513.5","362.5","","","","","","","",""
"1160","arrowleft","psychophysics","255","377761","0.0-3.0-0.124","","key","arrowleft","16.71014492753623","513.5","362.5","125","5","-1","26","15","25","35","true"
"null","null","psychophysics","256","378764","0.0-3.0-1.124","","key","null","21.106382978723403","513.5","362.5","","","","","","","",""
"1810","arrowright","psychophysics","257","380585","0.0-3.0-0.125","","key","arrowright","17.49514563106796","513.5","362.5","126","5","1","25","15","25","35","true"
"null","null","psychophysics","258","381587","0.0-3.0-1.125","","key","null","16.616666666666667","513.5","362.5","","","","","","","",""
"894","arrowleft","psychophysics","259","382485","0.0-3.0-0.126","","key","arrowleft","16.641509433962263","513.5","362.5","127","5","-1","27","15","25","35","true"
"null","null","psychophysics","260","383488","0.0-3.0-1.126","","key","null","17.137931034482758","513.5","362.5","","","","","","","",""
"1041.9999999999418","arrowleft","psychophysics","261","384536","0.0-3.0-0.127","","key","arrowleft","16.677419354838708","513.5","362.5","128","5","-1","24","15","25","35","true"
"null","null","psychophysics","262","385540","0.0-3.0-1.127","","key","null","16.483333333333334","513.5","362.5","","","","","","","",""
"875","arrowleft","psychophysics","263","386427","0.0-3.0-0.128","","key","arrowleft","17.5","513.5","362.5","129","5","1","25","35","25","35","false"
"null","null","psychophysics","264","387428","0.0-3.0-1.128","","key","null","20.80851063829787","513.5","362.5","","","","","","","",""
"934","arrowright","psychophysics","265","388366","0.0-3.0-0.129","","key","arrowright","20.043478260869566","513.5","362.5","130","5","-1","23","15","25","35","false"
"null","null","psychophysics","266","389369","0.0-3.0-1.129","","key","null","16.466666666666665","513.5","362.5","","","","","","","",""
"954","arrowleft","psychophysics","267","390327","0.0-3.0-0.130","","key","arrowleft","17.072727272727274","513.5","362.5","131","5","1","24","35","25","35","false"
"null","null","psychophysics","268","391329","0.0-3.0-1.130","","key","null","16.433333333333334","513.5","362.5","","","","","","","",""
"846","arrowleft","psychophysics","269","392192","0.0-3.0-0.131","","key","arrowleft","16.607843137254903","513.5","362.5","132","5","-1","25","15","25","35","true"
"null","null","psychophysics","270","393195","0.0-3.0-1.131","","key","null","16.516666666666666","513.5","362.5","","","","","","","",""
"844","arrowleft","psychophysics","271","394042","0.0-3.0-0.132","","key","arrowleft","16.68","513.5","362.5","133","5","-1","27","35","25","35","true"
"null","null","psychophysics","272","395045","0.0-3.0-1.132","","key","null","16.5","513.5","362.5","","","","","","","",""
"948","arrowleft","psychophysics","273","395998","0.0-3.0-0.133","","key","arrowleft","16.678571428571427","513.5","362.5","134","5","1","20","15","25","35","false"
"null","null","psychophysics","274","397000","0.0-3.0-1.133","","key","null","16.4","513.5","362.5","","","","","","","",""
"769","arrowleft","psychophysics","275","397784","0.0-3.0-0.134","","key","arrowleft","20.756756756756758","513.5","362.5","135","5","-1","26","35","25","35","true"
"null","null","psychophysics","276","398788","0.0-3.0-1.134","","key","null","17.89090909090909","513.5","362.5","","","","","","","",""
"873","arrowleft","psychophysics","277","399674","0.0-3.0-0.135","","key","arrowleft","16.58490566037736","513.5","362.5","136","5","-1","26","15","25","35","true"
"null","null","psychophysics","278","400677","0.0-3.0-1.135","","key","null","16.6","513.5","362.5","","","","","","","",""
"1830","arrowright","psychophysics","279","402513","0.0-3.0-0.136","","key","arrowright","16.577981651376145","513.5","362.5","137","5","1","23","15","25","35","true"
"null","null","psychophysics","280","403520","0.0-3.0-1.136","","key","null","16.4","513.5","362.5","","","","","","","",""
"1636","arrowright","psychophysics","281","405169","0.0-3.0-0.137","","key","arrowright","16.525252525252526","513.5","362.5","138","5","-1","23","35","25","35","false"
"null","null","psychophysics","282","406172","0.0-3.0-1.137","","key","null","18.35185185185185","513.5","362.5","","","","","","","",""
"856","arrowright","psychophysics","283","407033","0.0-3.0-0.138","","key","arrowright","21.075","513.5","362.5","139","5","1","27","15","25","35","true"
"null","null","psychophysics","284","408036","0.0-3.0-1.138","","key","null","16.915254237288135","513.5","362.5","","","","","","","",""
"890","arrowright","psychophysics","285","408930","0.0-3.0-0.139","","key","arrowright","16.673076923076923","513.5","362.5","140","6","1","23","15","25","35","true"
"null","null","psychophysics","286","409939","0.0-3.0-1.139","","key","null","21.25531914893617","513.5","362.5","","","","","","","",""
"1912","arrowright","html-keyboard-response","287","411853","0.0-3.0-2.139-0.139","<div style=""color: white; text-align: center; vertical-align: top; display: inline-block; width: 800px; margin: auto""><p>You have completed 50% of the trials. You are on block 6 of 10. <br>Good job! Take a break if you need to.</p><p>Press any key to continue the experiment.</p></div>","","","","","","","","","","","","",""
"819.0000000000582","arrowright","psychophysics","288","413678","0.0-3.0-0.140","","key","arrowright","16.4375","513.5","362.5","141","6","1","30","35","25","35","true"
"null","null","psychophysics","289","414682","0.0-3.0-1.140","","key","null","16.55","513.5","362.5","","","","","","","",""
"884.0000000000582","arrowright","psychophysics","290","415577","0.0-3.0-0.141","","key","arrowright","16.76923076923077","513.5","362.5","142","6","1","27","35","25","35","true"
"null","null","psychophysics","291","416580","0.0-3.0-1.141","","key","null","16.4","513.5","362.5","","","","","","","",""
"810","arrowright","psychophysics","292","417400","0.0-3.0-0.142","","key","arrowright","16.612244897959183","513.5","362.5","143","6","1","27","15","25","35","true"
"null","null","psychophysics","293","418402","0.0-3.0-1.142","","key","null","16.583333333333332","513.5","362.5","","","","","","","",""
"1073","arrowright","psychophysics","294","419478","0.0-3.0-0.143","","key","arrowright","16.666666666666668","513.5","362.5","144","6","-1","23","35","25","35","false"
"null","null","psychophysics","295","420481","0.0-3.0-1.143","","key","null","16.366666666666667","513.5","362.5","","","","","","","",""
"713","arrowleft","psychophysics","296","421215","0.0-3.0-0.144","","key","arrowleft","16.511627906976745","513.5","362.5","145","6","-1","26","15","25","35","true"
"null","null","psychophysics","297","422219","0.0-3.0-1.144","","key","null","16.416666666666668","513.5","362.5","","","","","","","",""
"724","arrowright","psychophysics","298","422955","0.0-3.0-0.145","","key","arrowright","19.10810810810811","513.5","362.5","146","6","-1","23","35","25","35","false"
"null","null","psychophysics","299","423958","0.0-3.0-1.145","","key","null","16.4","513.5","362.5","","","","","","","",""
"829","arrowright","psychophysics","300","424801","0.0-3.0-0.146","","key","arrowright","19.404761904761905","513.5","362.5","147","6","-1","20","15","25","35","false"
"null","null","psychophysics","301","425803","0.0-3.0-1.146","","key","null","19","513.5","362.5","","","","","","","",""
"720","arrowleft","psychophysics","302","426526","0.0-3.0-0.147","","key","arrowleft","16.627906976744185","513.5","362.5","148","6","-1","27","15","25","35","true"
"null","null","psychophysics","303","427534","0.0-3.0-1.147","","key","null","16.516666666666666","513.5","362.5","","","","","","","",""
"1272","arrowleft","psychophysics","304","428811","0.0-3.0-0.148","","key","arrowleft","16.657894736842106","513.5","362.5","149","6","1","25","35","25","35","false"
"null","null","psychophysics","305","429815","0.0-3.0-1.148","","key","null","16.566666666666666","513.5","362.5","","","","","","","",""
"625","arrowright","psychophysics","306","430444","0.0-3.0-0.149","","key","arrowright","16.64864864864865","513.5","362.5","150","6","-1","20","35","25","35","false"
"null","null","psychophysics","307","431447","0.0-3.0-1.149","","key","null","16.583333333333332","513.5","362.5","","","","","","","",""
"837.9999999999418","arrowright","psychophysics","308","432290","0.0-3.0-0.150","","key","arrowright","16.653061224489797","513.5","362.5","151","6","1","30","35","25","35","true"
"null","null","psychophysics","309","433298","0.0-3.0-1.150","","key","null","17.280701754385966","513.5","362.5","","","","","","","",""
"1006.9999999999418","arrowright","psychophysics","310","434310","0.0-3.0-0.151","","key","arrowright","17","513.5","362.5","152","6","-1","25","35","25","35","false"
"null","null","psychophysics","311","435312","0.0-3.0-1.151","","key","null","16.616666666666667","513.5","362.5","","","","","","","",""
"914","arrowright","psychophysics","312","436231","0.0-3.0-0.152","","key","arrowright","16.666666666666668","513.5","362.5","153","6","1","24","15","25","35","true"
"null","null","psychophysics","313","437233","0.0-3.0-1.152","","key","null","18.69811320754717","513.5","362.5","","","","","","","",""
"1054.0000000000582","arrowleft","psychophysics","314","438291","0.0-3.0-0.153","","key","arrowleft","17.283333333333335","513.5","362.5","154","6","-1","24","15","25","35","true"
"null","null","psychophysics","315","439300","0.0-3.0-1.153","","key","null","16.4","513.5","362.5","","","","","","","",""
"1510","arrowleft","psychophysics","316","440822","0.0-3.0-0.154","","key","arrowleft","20.73972602739726","513.5","362.5","155","6","-1","26","35","25","35","true"
"null","null","psychophysics","317","441825","0.0-3.0-1.154","","key","null","19.352941176470587","513.5","362.5","","","","","","","",""
"1006","arrowright","psychophysics","318","442836","0.0-3.0-0.155","","key","arrowright","17.086206896551722","513.5","362.5","156","6","-1","25","35","25","35","false"
"null","null","psychophysics","319","443838","0.0-3.0-1.155","","key","null","16.566666666666666","513.5","362.5","","","","","","","",""
"557","arrowright","psychophysics","320","444400","0.0-3.0-0.156","","key","arrowright","16.666666666666668","513.5","362.5","157","6","-1","23","35","25","35","false"
"null","null","psychophysics","321","445409","0.0-3.0-1.156","","key","null","16.483333333333334","513.5","362.5","","","","","","","",""
"920","arrowleft","psychophysics","322","446334","0.0-3.0-0.157","","key","arrowleft","16.636363636363637","513.5","362.5","158","6","1","25","35","25","35","false"
"null","null","psychophysics","323","447337","0.0-3.0-1.157","","key","null","17.157894736842106","513.5","362.5","","","","","","","",""
"694","arrowright","psychophysics","324","448034","0.0-3.0-0.158","","key","arrowright","16.829268292682926","513.5","362.5","159","6","1","24","15","25","35","true"
"null","null","psychophysics","325","449037","0.0-3.0-1.158","","key","null","16.583333333333332","513.5","362.5","","","","","","","",""
"702.9999999999418","arrowleft","psychophysics","326","449744","0.0-3.0-0.159","","key","arrowleft","16.38095238095238","513.5","362.5","160","6","-1","27","35","25","35","true"
"null","null","psychophysics","327","450747","0.0-3.0-1.159","","key","null","16.483333333333334","513.5","362.5","","","","","","","",""
"1071.9999999999418","arrowleft","psychophysics","328","451834","0.0-3.0-0.160","","key","arrowleft","17.096774193548388","513.5","362.5","161","6","-1","25","35","25","35","true"
"null","null","psychophysics","329","452837","0.0-3.0-1.160","","key","null","16.37704918032787","513.5","362.5","","","","","","","",""
"1352","arrowleft","psychophysics","330","454193","0.0-3.0-0.161","","key","arrowleft","18.054794520547944","513.5","362.5","162","6","-1","27","15","25","35","true"
"null","null","psychophysics","331","455196","0.0-3.0-1.161","","key","null","20.604166666666668","513.5","362.5","","","","","","","",""
"1777","arrowleft","psychophysics","332","456978","0.0-3.0-0.162","","key","arrowleft","16.752380952380953","513.5","362.5","163","6","-1","20","35","25","35","true"
"null","null","psychophysics","333","457986","0.0-3.0-1.162","","key","null","16.34426229508197","513.5","362.5","","","","","","","",""
"1033","arrowright","psychophysics","334","459023","0.0-3.0-0.163","","key","arrowright","16.65573770491803","513.5","362.5","164","6","-1","26","15","25","35","false"
"null","null","psychophysics","335","460025","0.0-3.0-1.163","","key","null","16.516666666666666","513.5","362.5","","","","","","","",""
"809","arrowright","psychophysics","336","460840","0.0-3.0-0.164","","key","arrowright","16.666666666666668","513.5","362.5","165","6","1","25","15","25","35","true"
"null","null","psychophysics","337","461843","0.0-3.0-1.164","","key","null","16.5","513.5","362.5","","","","","","","",""
"605.0000000000582","arrowleft","psychophysics","338","462451","0.0-3.0-0.165","","key","arrowleft","16.666666666666668","513.5","362.5","166","6","-1","30","35","25","35","true"
"null","null","psychophysics","339","463454","0.0-3.0-1.165","","key","null","16.6","513.5","362.5","","","","","","","",""
"653.0000000000582","arrowleft","psychophysics","340","464118","0.0-3.0-0.166","","key","arrowleft","16.666666666666668","513.5","362.5","167","6","1","20","15","25","35","false"
"null","null","psychophysics","341","465120","0.0-3.0-1.166","","key","null","16.583333333333332","513.5","362.5","","","","","","","",""
"664","arrowright","psychophysics","342","465787","0.0-3.0-0.167","","key","arrowright","16.641025641025642","513.5","362.5","168","7","-1","25","15","25","35","false"
"null","null","psychophysics","343","466791","0.0-3.0-1.167","","key","null","16.566666666666666","513.5","362.5","","","","","","","",""
"3750","arrowleft","html-keyboard-response","344","470543","0.0-3.0-2.167-0.167","<div style=""color: white; text-align: center; vertical-align: top; display: inline-block; width: 800px; margin: auto""><p>You have completed 60% of the trials. You are on block 7 of 10. <br>Good job! Take a break if you need to.</p><p>Press any key to continue the experiment.</p></div>","","","","","","","","","","","","",""
"1457","arrowright","psychophysics","345","473014","0.0-3.0-0.168","","key","arrowright","16.662790697674417","513.5","362.5","169","7","1","30","15","25","35","true"
"null","null","psychophysics","346","474017","0.0-3.0-1.168","","key","null","16.55","513.5","362.5","","","","","","","",""
"873","arrowleft","psychophysics","347","474895","0.0-3.0-0.169","","key","arrowleft","16.673076923076923","513.5","362.5","170","7","1","26","15","25","35","false"
"null","null","psychophysics","348","475896","0.0-3.0-1.169","","key","null","16.583333333333332","513.5","362.5","","","","","","","",""
"594.9999999999418","arrowleft","psychophysics","349","476494","0.0-3.0-0.170","","key","arrowleft","17","513.5","362.5","171","7","-1","27","35","25","35","true"
"null","null","psychophysics","350","477502","0.0-3.0-1.170","","key","null","16.433333333333334","513.5","362.5","","","","","","","",""
"733","arrowright","psychophysics","351","478245","0.0-3.0-0.171","","key","arrowright","20.857142857142858","513.5","362.5","172","7","-1","20","15","25","35","false"
"null","null","psychophysics","352","479247","0.0-3.0-1.171","","key","null","18.81132075471698","513.5","362.5","","","","","","","",""
"633","arrowleft","psychophysics","353","479884","0.0-3.0-0.172","","key","arrowleft","16.675675675675677","513.5","362.5","173","7","1","26","35","25","35","false"
"null","null","psychophysics","354","480887","0.0-3.0-1.172","","key","null","16.516666666666666","513.5","362.5","","","","","","","",""
"595","arrowleft","psychophysics","355","481485","0.0-3.0-0.173","","key","arrowleft","16.65714285714286","513.5","362.5","174","7","-1","30","15","25","35","true"
"null","null","psychophysics","356","482487","0.0-3.0-1.173","","key","null","16.516666666666666","513.5","362.5","","","","","","","",""
"876.9999999999418","arrowleft","psychophysics","357","483382","0.0-3.0-0.174","","key","arrowleft","20.325581395348838","513.5","362.5","175","7","1","24","35","25","35","false"
"null","null","psychophysics","358","484385","0.0-3.0-1.174","","key","null","16.6","513.5","362.5","","","","","","","",""
"591","arrowright","psychophysics","359","484980","0.0-3.0-0.175","","key","arrowright","16.676470588235293","513.5","362.5","176","7","-1","20","35","25","35","false"
"null","null","psychophysics","360","485982","0.0-3.0-1.175","","key","null","16.416666666666668","513.5","362.5","","","","","","","",""
"710.9999999999418","arrowleft","psychophysics","361","486705","0.0-3.0-0.176","","key","arrowleft","16.372093023255815","513.5","362.5","177","7","-1","25","15","25","35","true"
"null","null","psychophysics","362","487709","0.0-3.0-1.176","","key","null","17.672727272727272","513.5","362.5","","","","","","","",""
"763.0000000000582","arrowleft","psychophysics","363","488484","0.0-3.0-0.177","","key","arrowleft","16.565217391304348","513.5","362.5","178","7","1","20","15","25","35","false"
"null","null","psychophysics","364","489497","0.0-3.0-1.177","","key","null","16.39344262295082","513.5","362.5","","","","","","","",""
"850","arrowright","psychophysics","365","490352","0.0-3.0-0.178","","key","arrowright","17.354166666666668","513.5","362.5","179","7","-1","23","35","25","35","false"
"null","null","psychophysics","366","491356","0.0-3.0-1.178","","key","null","16.483333333333334","513.5","362.5","","","","","","","",""
"798","arrowright","psychophysics","367","492159","0.0-3.0-0.179","","key","arrowright","16.70212765957447","513.5","362.5","180","7","-1","26","15","25","35","false"
"null","null","psychophysics","368","493161","0.0-3.0-1.179","","key","null","16.433333333333334","513.5","362.5","","","","","","","",""
"814","arrowright","psychophysics","369","493986","0.0-3.0-0.180","","key","arrowright","16.632653061224488","513.5","362.5","181","7","1","30","35","25","35","true"
"null","null","psychophysics","370","494989","0.0-3.0-1.180","","key","null","16.533333333333335","513.5","362.5","","","","","","","",""
"621.0000000000582","arrowleft","psychophysics","371","495627","0.0-3.0-0.181","","key","arrowleft","16.62162162162162","513.5","362.5","182","7","-1","30","35","25","35","true"
"null","null","psychophysics","372","496631","0.0-3.0-1.181","","key","null","16.433333333333334","513.5","362.5","","","","","","","",""
"760","arrowright","psychophysics","373","497401","0.0-3.0-0.182","","key","arrowright","16.630434782608695","513.5","362.5","183","7","1","26","35","25","35","true"
"null","null","psychophysics","374","498404","0.0-3.0-1.182","","key","null","16.74576271186441","513.5","362.5","","","","","","","",""
"682","arrowright","psychophysics","375","499099","0.0-3.0-0.183","","key","arrowright","16.634146341463413","513.5","362.5","184","7","-1","24","35","25","35","false"
"null","null","psychophysics","376","500103","0.0-3.0-1.183","","key","null","16.5","513.5","362.5","","","","","","","",""
"866","arrowright","psychophysics","377","500973","0.0-3.0-0.184","","key","arrowright","16.442307692307693","513.5","362.5","185","7","1","27","15","25","35","true"
"null","null","psychophysics","378","501984","0.0-3.0-1.184","","key","null","16.4","513.5","362.5","","","","","","","",""
"770.0000000000582","arrowright","psychophysics","379","502767","0.0-3.0-0.185","","key","arrowright","17.244444444444444","513.5","362.5","186","7","1","26","15","25","35","true"
"null","null","psychophysics","380","503770","0.0-3.0-1.185","","key","null","16.6","513.5","362.5","","","","","","","",""
"732.0000000000582","arrowleft","psychophysics","381","504507","0.0-3.0-0.186","","key","arrowleft","16.651162790697676","513.5","362.5","187","7","-1","26","15","25","35","true"
"null","null","psychophysics","382","505510","0.0-3.0-1.186","","key","null","16.483333333333334","513.5","362.5","","","","","","","",""
"654","arrowright","psychophysics","383","506168","0.0-3.0-0.187","","key","arrowright","16.641025641025642","513.5","362.5","188","7","-1","24","35","25","35","false"
"null","null","psychophysics","384","507171","0.0-3.0-1.187","","key","null","16.616666666666667","513.5","362.5","","","","","","","",""
"349.0000000000582","arrowleft","psychophysics","385","507539","0.0-3.0-0.188","","key","arrowleft","16.61904761904762","513.5","362.5","189","7","1","24","35","25","35","false"
"null","null","psychophysics","386","508542","0.0-3.0-1.188","","key","null","16.533333333333335","513.5","362.5","","","","","","","",""
"575.0000000000582","arrowright","psychophysics","387","509120","0.0-3.0-0.189","","key","arrowright","16.676470588235293","513.5","362.5","190","7","-1","27","15","25","35","false"
"null","null","psychophysics","388","510123","0.0-3.0-1.189","","key","null","18.22222222222222","513.5","362.5","","","","","","","",""
"1956.9999999999418","arrowright","psychophysics","389","512096","0.0-3.0-0.190","","key","arrowright","20.123711340206185","513.5","362.5","191","7","-1","25","15","25","35","false"
"null","null","psychophysics","390","513099","0.0-3.0-1.190","","key","null","21.02127659574468","513.5","362.5","","","","","","","",""
"6439","arrowleft","psychophysics","391","519558","0.0-3.0-0.191","","key","arrowleft","16.95263157894737","513.5","362.5","192","7","1","27","35","25","35","false"
"null","null","psychophysics","392","520560","0.0-3.0-1.191","","key","null","16.583333333333332","513.5","362.5","","","","","","","",""
"727.0000000001164","arrowleft","psychophysics","393","521305","0.0-3.0-0.192","","key","arrowleft","17.238095238095237","513.5","362.5","193","7","1","20","35","25","35","false"
"null","null","psychophysics","394","522307","0.0-3.0-1.192","","key","null","20.183673469387756","513.5","362.5","","","","","","","",""
"692","arrowright","psychophysics","395","523004","0.0-3.0-0.193","","key","arrowright","17.973684210526315","513.5","362.5","194","7","1","27","35","25","35","true"
"null","null","psychophysics","396","524007","0.0-3.0-1.193","","key","null","16.483333333333334","513.5","362.5","","","","","","","",""
"603","arrowleft","psychophysics","397","524614","0.0-3.0-0.194","","key","arrowleft","16.666666666666668","513.5","362.5","195","7","1","23","35","25","35","false"
"null","null","psychophysics","398","525616","0.0-3.0-1.194","","key","null","16.6","513.5","362.5","","","","","","","",""
"980","arrowright","psychophysics","399","526602","0.0-3.0-0.195","","key","arrowright","16.67241379310345","513.5","362.5","196","8","1","27","35","25","35","true"
"null","null","psychophysics","400","527612","0.0-3.0-1.195","","key","null","16.416666666666668","513.5","362.5","","","","","","","",""
"18638.999999999884"," ","html-keyboard-response","401","546253","0.0-3.0-2.195-0.195","<div style=""color: white; text-align: center; vertical-align: top; display: inline-block; width: 800px; margin: auto""><p>You have completed 70% of the trials. You are on block 8 of 10. <br>Good job! Take a break if you need to.</p><p>Press any key to continue the experiment.</p></div>","","","","","","","","","","","","",""
"1020","arrowright","psychophysics","402","548285","0.0-3.0-0.196","","key","arrowright","20.75","513.5","362.5","197","8","1","30","35","25","35","true"
"null","null","psychophysics","403","549289","0.0-3.0-1.196","","key","null","19.68","513.5","362.5","","","","","","","",""
"2489","arrowright","psychophysics","404","551784","0.0-3.0-0.197","","key","arrowright","16.651006711409394","513.5","362.5","198","8","1","30","35","25","35","true"
"null","null","psychophysics","405","552787","0.0-3.0-1.197","","key","null","16.566666666666666","513.5","362.5","","","","","","","",""
"1122","arrowleft","psychophysics","406","553928","0.0-3.0-0.198","","key","arrowleft","16.671641791044777","513.5","362.5","199","8","-1","25","35","25","35","true"
"null","null","psychophysics","407","554930","0.0-3.0-1.198","","key","null","16.4","513.5","362.5","","","","","","","",""
"962","arrowright","psychophysics","408","555902","0.0-3.0-0.199","","key","arrowright","16.620689655172413","513.5","362.5","200","8","-1","20","15","25","35","false"
"null","null","psychophysics","409","556906","0.0-3.0-1.199","","key","null","16.55","513.5","362.5","","","","","","","",""
"1959","arrowleft","psychophysics","410","558870","0.0-3.0-0.200","","key","arrowleft","16.64957264957265","513.5","362.5","201","8","-1","26","35","25","35","true"
"null","null","psychophysics","411","559877","0.0-3.0-1.200","","key","null","16.466666666666665","513.5","362.5","","","","","","","",""
"1029","arrowleft","psychophysics","412","560910","0.0-3.0-0.201","","key","arrowleft","16.672131147540984","513.5","362.5","202","8","1","23","35","25","35","false"
"null","null","psychophysics","413","561912","0.0-3.0-1.201","","key","null","16.416666666666668","513.5","362.5","","","","","","","",""
"786","arrowright","psychophysics","414","562708","0.0-3.0-0.202","","key","arrowright","16.659574468085108","513.5","362.5","203","8","1","26","35","25","35","true"
"null","null","psychophysics","415","563710","0.0-3.0-1.202","","key","null","16.45","513.5","362.5","","","","","","","",""
"909","arrowleft","psychophysics","416","564630","0.0-3.0-0.203","","key","arrowleft","16.685185185185187","513.5","362.5","204","8","-1","30","35","25","35","true"
"null","null","psychophysics","417","565638","0.0-3.0-1.203","","key","null","16.278688524590162","513.5","362.5","","","","","","","",""
"677","arrowright","psychophysics","418","566323","0.0-3.0-0.204","","key","arrowright","16.675","513.5","362.5","205","8","1","26","15","25","35","true"
"null","null","psychophysics","419","567326","0.0-3.0-1.204","","key","null","16.483333333333334","513.5","362.5","","","","","","","",""
"1343","arrowright","psychophysics","420","568697","0.0-3.0-0.205","","key","arrowright","16.567901234567902","513.5","362.5","206","8","-1","23","15","25","35","false"
"null","null","psychophysics","421","569702","0.0-3.0-1.205","","key","null","16.34426229508197","513.5","362.5","","","","","","","",""
"1417","arrowright","psychophysics","422","571123","0.0-3.0-0.206","","key","arrowright","16.654761904761905","513.5","362.5","207","8","1","26","15","25","35","true"
"null","null","psychophysics","423","572136","0.0-3.0-1.206","","key","null","16.37704918032787","513.5","362.5","","","","","","","",""
"943","arrowleft","psychophysics","424","573083","0.0-3.0-0.207","","key","arrowleft","16.625","513.5","362.5","208","8","-1","26","15","25","35","true"
"null","null","psychophysics","425","574085","0.0-3.0-1.207","","key","null","16.6","513.5","362.5","","","","","","","",""
"1050","arrowleft","psychophysics","426","575139","0.0-3.0-0.208","","key","arrowleft","16.661290322580644","513.5","362.5","209","8","-1","26","15","25","35","true"
"null","null","psychophysics","427","576141","0.0-3.0-1.208","","key","null","16.483333333333334","513.5","362.5","","","","","","","",""
"606","arrowright","psychophysics","428","576750","0.0-3.0-0.209","","key","arrowright","16.62857142857143","513.5","362.5","210","8","1","24","15","25","35","true"
"null","null","psychophysics","429","577759","0.0-3.0-1.209","","key","null","16.21311475409836","513.5","362.5","","","","","","","",""
"703.9999999998836","arrowright","psychophysics","430","578467","0.0-3.0-0.210","","key","arrowright","16.642857142857142","513.5","362.5","211","8","-1","24","35","25","35","false"
"null","null","psychophysics","431","579470","0.0-3.0-1.210","","key","null","16.6","513.5","362.5","","","","","","","",""
"1413","arrowright","psychophysics","432","580889","0.0-3.0-0.211","","key","arrowright","16.678571428571427","513.5","362.5","212","8","-1","23","15","25","35","false"
"null","null","psychophysics","433","581892","0.0-3.0-1.211","","key","null","16.5","513.5","362.5","","","","","","","",""
"720","arrowright","psychophysics","434","582616","0.0-3.0-0.212","","key","arrowright","16.674418604651162","513.5","362.5","213","8","-1","23","15","25","35","false"
"null","null","psychophysics","435","583626","0.0-3.0-1.212","","key","null","16.5","513.5","362.5","","","","","","","",""
"886","arrowright","psychophysics","436","584516","0.0-3.0-0.213","","key","arrowright","16.67924528301887","513.5","362.5","214","8","1","30","15","25","35","true"
"null","null","psychophysics","437","585519","0.0-3.0-1.213","","key","null","16.616666666666667","513.5","362.5","","","","","","","",""
"1044","arrowleft","psychophysics","438","586567","0.0-3.0-0.214","","key","arrowleft","16.64516129032258","513.5","362.5","215","8","-1","27","15","25","35","true"
"null","null","psychophysics","439","587569","0.0-3.0-1.214","","key","null","16.6","513.5","362.5","","","","","","","",""
"1032","arrowleft","psychophysics","440","588605","0.0-3.0-0.215","","key","arrowleft","16.65573770491803","513.5","362.5","216","8","1","20","35","25","35","false"
"null","null","psychophysics","441","589617","0.0-3.0-1.215","","key","null","16.360655737704917","513.5","362.5","","","","","","","",""
"894","arrowleft","psychophysics","442","590515","0.0-3.0-0.216","","key","arrowleft","16.653846153846153","513.5","362.5","217","8","-1","27","15","25","35","true"
"null","null","psychophysics","443","591517","0.0-3.0-1.216","","key","null","16.34426229508197","513.5","362.5","","","","","","","",""
"730","arrowright","psychophysics","444","592250","0.0-3.0-0.217","","key","arrowright","16.674418604651162","513.5","362.5","218","8","-1","20","35","25","35","false"
"null","null","psychophysics","445","593254","0.0-3.0-1.217","","key","null","16.55","513.5","362.5","","","","","","","",""
"945","arrowright","psychophysics","446","594204","0.0-3.0-0.218","","key","arrowright","16.678571428571427","513.5","362.5","219","8","1","25","15","25","35","true"
"null","null","psychophysics","447","595206","0.0-3.0-1.218","","key","null","16.5","513.5","362.5","","","","","","","",""
"653","arrowright","psychophysics","448","595877","0.0-3.0-0.219","","key","arrowright","16.53846153846154","513.5","362.5","220","8","-1","20","15","25","35","false"
"null","null","psychophysics","449","596879","0.0-3.0-1.219","","key","null","16.433333333333334","513.5","362.5","","","","","","","",""
"763","arrowleft","psychophysics","450","597654","0.0-3.0-0.220","","key","arrowleft","16.630434782608695","513.5","362.5","221","8","1","20","35","25","35","false"
"null","null","psychophysics","451","598656","0.0-3.0-1.220","","key","null","16.5","513.5","362.5","","","","","","","",""
"1306","arrowright","psychophysics","452","599966","0.0-3.0-0.221","","key","arrowright","16.653846153846153","513.5","362.5","222","8","1","30","35","25","35","true"
"null","null","psychophysics","453","600971","0.0-3.0-1.221","","key","null","16.566666666666666","513.5","362.5","","","","","","","",""
"909","arrowright","psychophysics","454","601900","0.0-3.0-0.222","","key","arrowright","16.581818181818182","513.5","362.5","223","8","-1","25","35","25","35","false"
"null","null","psychophysics","455","602902","0.0-3.0-1.222","","key","null","16.583333333333332","513.5","362.5","","","","","","","",""
"799","arrowright","psychophysics","456","603705","0.0-3.0-0.223","","key","arrowright","16.659574468085108","513.5","362.5","224","9","1","26","35","25","35","true"
"null","null","psychophysics","457","604707","0.0-3.0-1.223","","key","null","16.5","513.5","362.5","","","","","","","",""
"5243"," ","html-keyboard-response","458","609952","0.0-3.0-2.223-0.223","<div style=""color: white; text-align: center; vertical-align: top; display: inline-block; width: 800px; margin: auto""><p>You have completed 80% of the trials. You are on block 9 of 10. <br>Good job! Take a break if you need to.</p><p>Press any key to continue the experiment.</p></div>","","","","","","","","","","","","",""
"1234.9999999998836","arrowright","psychophysics","459","612201","0.0-3.0-0.224","","key","arrowright","16.698630136986303","513.5","362.5","225","9","1","30","35","25","35","true"
"null","null","psychophysics","460","613206","0.0-3.0-1.224","","key","null","16.5","513.5","362.5","","","","","","","",""
"836.9999999998836","arrowleft","psychophysics","461","614047","0.0-3.0-0.225","","key","arrowleft","16.66","513.5","362.5","226","9","1","23","15","25","35","false"
"null","null","psychophysics","462","615050","0.0-3.0-1.225","","key","null","16.566666666666666","513.5","362.5","","","","","","","",""
"973","arrowright","psychophysics","463","616028","0.0-3.0-0.226","","key","arrowright","19.571428571428573","513.5","362.5","227","9","-1","26","35","25","35","false"
"null","null","psychophysics","464","617039","0.0-3.0-1.226","","key","null","16.483333333333334","513.5","362.5","","","","","","","",""
"688","arrowleft","psychophysics","465","617731","0.0-3.0-0.227","","key","arrowleft","16.682926829268293","513.5","362.5","228","9","-1","24","15","25","35","true"
"null","null","psychophysics","466","618733","0.0-3.0-1.227","","key","null","16.566666666666666","513.5","362.5","","","","","","","",""
"704.0000000001164","arrowleft","psychophysics","467","619441","0.0-3.0-0.228","","key","arrowleft","17.35","513.5","362.5","229","9","1","23","35","25","35","false"
"null","null","psychophysics","468","620444","0.0-3.0-1.228","","key","null","16.6","513.5","362.5","","","","","","","",""
"849","arrowright","psychophysics","469","621296","0.0-3.0-0.229","","key","arrowright","16.41176470588235","513.5","362.5","230","9","1","26","15","25","35","true"
"null","null","psychophysics","470","622298","0.0-3.0-1.229","","key","null","16.6","513.5","362.5","","","","","","","",""
"953.0000000001164","arrowleft","psychophysics","471","623263","0.0-3.0-0.230","","key","arrowleft","16.649122807017545","513.5","362.5","231","9","1","24","35","25","35","false"
"null","null","psychophysics","472","624267","0.0-3.0-1.230","","key","null","16.566666666666666","513.5","362.5","","","","","","","",""
"539","arrowleft","psychophysics","473","624810","0.0-3.0-0.231","","key","arrowleft","16.53125","513.5","362.5","232","9","1","24","15","25","35","false"
"null","null","psychophysics","474","625812","0.0-3.0-1.231","","key","null","16.566666666666666","513.5","362.5","","","","","","","",""
"995","arrowright","psychophysics","475","626810","0.0-3.0-0.232","","key","arrowright","16.677966101694917","513.5","362.5","233","9","1","26","15","25","35","true"
"null","null","psychophysics","476","627812","0.0-3.0-1.232","","key","null","16.566666666666666","513.5","362.5","","","","","","","",""
"1888","arrowright","psychophysics","477","629708","0.0-3.0-0.233","","key","arrowright","16.672566371681416","513.5","362.5","234","9","-1","23","15","25","35","false"
"null","null","psychophysics","478","630717","0.0-3.0-1.233","","key","null","16.483333333333334","513.5","362.5","","","","","","","",""
"1325","arrowright","psychophysics","479","632046","0.0-3.0-0.234","","key","arrowright","18.797101449275363","513.5","362.5","235","9","1","26","15","25","35","true"
"null","null","psychophysics","480","633050","0.0-3.0-1.234","","key","null","18.38888888888889","513.5","362.5","","","","","","","",""
"943","arrowright","psychophysics","481","633996","0.0-3.0-0.235","","key","arrowright","19.020408163265305","513.5","362.5","236","9","1","27","15","25","35","true"
"null","null","psychophysics","482","634999","0.0-3.0-1.235","","key","null","16.616666666666667","513.5","362.5","","","","","","","",""
"1947","arrowleft","psychophysics","483","636952","0.0-3.0-0.236","","key","arrowleft","18.99019607843137","513.5","362.5","237","9","-1","26","35","25","35","true"
"null","null","psychophysics","484","637961","0.0-3.0-1.236","","key","null","16.45","513.5","362.5","","","","","","","",""
"881.0000000001164","arrowleft","psychophysics","485","638846","0.0-3.0-0.237","","key","arrowleft","16.653846153846153","513.5","362.5","238","9","-1","30","35","25","35","true"
"null","null","psychophysics","486","639848","0.0-3.0-1.237","","key","null","16.4","513.5","362.5","","","","","","","",""
"1131.0000000001164","arrowleft","psychophysics","487","640994","0.0-3.0-0.238","","key","arrowleft","18.688524590163933","513.5","362.5","239","9","-1","26","15","25","35","true"
"null","null","psychophysics","488","641999","0.0-3.0-1.238","","key","null","18.735849056603772","513.5","362.5","","","","","","","",""
"668","arrowleft","psychophysics","489","642671","0.0-3.0-0.239","","key","arrowleft","16.666666666666668","513.5","362.5","240","9","1","20","15","25","35","false"
"null","null","psychophysics","490","643684","0.0-3.0-1.239","","key","null","16.37704918032787","513.5","362.5","","","","","","","",""
"960","arrowright","psychophysics","491","644650","0.0-3.0-0.240","","key","arrowright","20.21276595744681","513.5","362.5","241","9","-1","20","15","25","35","false"
"null","null","psychophysics","492","645654","0.0-3.0-1.240","","key","null","16.847457627118644","513.5","362.5","","","","","","","",""
"774","arrowleft","psychophysics","493","646432","0.0-3.0-0.241","","key","arrowleft","16.630434782608695","513.5","362.5","242","9","1","24","35","25","35","false"
"null","null","psychophysics","494","647438","0.0-3.0-1.241","","key","null","16.666666666666668","513.5","362.5","","","","","","","",""
"721","arrowleft","psychophysics","495","648166","0.0-3.0-0.242","","key","arrowleft","17.29268292682927","513.5","362.5","243","9","-1","26","35","25","35","true"
"null","null","psychophysics","496","649171","0.0-3.0-1.242","","key","null","16.55","513.5","362.5","","","","","","","",""
"694","arrowleft","psychophysics","497","649884","0.0-3.0-0.243","","key","arrowleft","19.305555555555557","513.5","362.5","244","9","1","20","35","25","35","false"
"null","null","psychophysics","498","650887","0.0-3.0-1.243","","key","null","17.120689655172413","513.5","362.5","","","","","","","",""
"806","arrowright","psychophysics","499","651697","0.0-3.0-0.244","","key","arrowright","16.645833333333332","513.5","362.5","245","9","1","26","35","25","35","true"
"null","null","psychophysics","500","652700","0.0-3.0-1.244","","key","null","16.583333333333332","513.5","362.5","","","","","","","",""
"704","arrowleft","psychophysics","501","653408","0.0-3.0-0.245","","key","arrowleft","16.38095238095238","513.5","362.5","246","9","1","24","35","25","35","false"
"null","null","psychophysics","502","654411","0.0-3.0-1.245","","key","null","16.516666666666666","513.5","362.5","","","","","","","",""
"735","arrowright","psychophysics","503","655149","0.0-3.0-0.246","","key","arrowright","16.674418604651162","513.5","362.5","247","9","1","27","15","25","35","true"
"null","null","psychophysics","504","656160","0.0-3.0-1.246","","key","null","18.60377358490566","513.5","362.5","","","","","","","",""
"629","arrowright","psychophysics","505","656802","0.0-3.0-0.247","","key","arrowright","16.68421052631579","513.5","362.5","248","9","-1","20","35","25","35","false"
"null","null","psychophysics","506","657806","0.0-3.0-1.247","","key","null","16.6","513.5","362.5","","","","","","","",""
"1280.0000000001164","arrowleft","psychophysics","507","659090","0.0-3.0-0.248","","key","arrowleft","18.80597014925373","513.5","362.5","249","9","1","24","35","25","35","false"
"null","null","psychophysics","508","660093","0.0-3.0-1.248","","key","null","16.4","513.5","362.5","","","","","","","",""
"852","arrowright","psychophysics","509","660957","0.0-3.0-0.249","","key","arrowright","19.837209302325583","513.5","362.5","250","9","1","25","15","25","35","true"
"null","null","psychophysics","510","661967","0.0-3.0-1.249","","key","null","16.433333333333334","513.5","362.5","","","","","","","",""
"908","arrowleft","psychophysics","511","662886","0.0-3.0-0.250","","key","arrowleft","18.854166666666668","513.5","362.5","251","9","1","23","35","25","35","false"
"null","null","psychophysics","512","663889","0.0-3.0-1.250","","key","null","16.5","513.5","362.5","","","","","","","",""
"827","arrowleft","psychophysics","513","664720","0.0-3.0-0.251","","key","arrowleft","16.693877551020407","513.5","362.5","252","10","1","20","15","25","35","false"
"null","null","psychophysics","514","665722","0.0-3.0-1.251","","key","null","16.466666666666665","513.5","362.5","","","","","","","",""
"3810"," ","html-keyboard-response","515","669535","0.0-3.0-2.251-0.251","<div style=""color: white; text-align: center; vertical-align: top; display: inline-block; width: 800px; margin: auto""><p>You have completed 90% of the trials. You are on block 10 of 10. <br>Good job! Take a break if you need to.</p><p>Press any key to continue the experiment.</p></div>","","","","","","","","","","","","",""
"1362","arrowleft","psychophysics","516","671910","0.0-3.0-0.252","","key","arrowleft","16.51851851851852","513.5","362.5","253","10","1","27","35","25","35","false"
"null","null","psychophysics","517","672912","0.0-3.0-1.252","","key","null","16.5","513.5","362.5","","","","","","","",""
"1047","arrowright","psychophysics","518","673963","0.0-3.0-0.253","","key","arrowright","16.50793650793651","513.5","362.5","254","10","1","23","15","25","35","true"
"null","null","psychophysics","519","674966","0.0-3.0-1.253","","key","null","17.189655172413794","513.5","362.5","","","","","","","",""
"809","arrowright","psychophysics","520","675781","0.0-3.0-0.254","","key","arrowright","20.333333333333332","513.5","362.5","255","10","1","26","15","25","35","true"
"null","null","psychophysics","521","676792","0.0-3.0-1.254","","key","null","17.89090909090909","513.5","362.5","","","","","","","",""
"729","arrowleft","psychophysics","522","677533","0.0-3.0-0.255","","key","arrowleft","16.837209302325583","513.5","362.5","256","10","-1","30","35","25","35","true"
"null","null","psychophysics","523","678536","0.0-3.0-1.255","","key","null","16.383333333333333","513.5","362.5","","","","","","","",""
"641","arrowleft","psychophysics","524","679188","0.0-3.0-0.256","","key","arrowleft","16.842105263157894","513.5","362.5","257","10","1","25","35","25","35","false"
"null","null","psychophysics","525","680192","0.0-3.0-1.256","","key","null","16.5","513.5","362.5","","","","","","","",""
"920","arrowleft","psychophysics","526","681115","0.0-3.0-0.257","","key","arrowleft","16.654545454545456","513.5","362.5","258","10","-1","27","35","25","35","true"
"null","null","psychophysics","527","682117","0.0-3.0-1.257","","key","null","16.616666666666667","513.5","362.5","","","","","","","",""
"613","arrowleft","psychophysics","528","682749","0.0-3.0-0.258","","key","arrowleft","16.62162162162162","513.5","362.5","259","10","-1","23","15","25","35","true"
"null","null","psychophysics","529","683751","0.0-3.0-1.258","","key","null","16.6","513.5","362.5","","","","","","","",""
"1140","arrowright","psychophysics","530","684895","0.0-3.0-0.259","","key","arrowright","18.524590163934427","513.5","362.5","260","10","1","25","15","25","35","true"
"null","null","psychophysics","531","685898","0.0-3.0-1.259","","key","null","17.03448275862069","513.5","362.5","","","","","","","",""
"678","arrowright","psychophysics","532","686592","0.0-3.0-0.260","","key","arrowright","16.75609756097561","513.5","362.5","261","10","1","25","15","25","35","true"
"null","null","psychophysics","533","687595","0.0-3.0-1.260","","key","null","16.6","513.5","362.5","","","","","","","",""
"765.0000000001164","arrowleft","psychophysics","534","688364","0.0-3.0-0.261","","key","arrowleft","16.666666666666668","513.5","362.5","262","10","-1","26","35","25","35","true"
"null","null","psychophysics","535","689377","0.0-3.0-1.261","","key","null","18.67924528301887","513.5","362.5","","","","","","","",""
"727","arrowright","psychophysics","536","690111","0.0-3.0-0.262","","key","arrowright","16.627906976744185","513.5","362.5","263","10","1","30","15","25","35","true"
"null","null","psychophysics","537","691114","0.0-3.0-1.262","","key","null","16.24590163934426","513.5","362.5","","","","","","","",""
"859","arrowleft","psychophysics","538","691977","0.0-3.0-0.263","","key","arrowleft","16.666666666666668","513.5","362.5","264","10","1","23","35","25","35","false"
"null","null","psychophysics","539","692980","0.0-3.0-1.263","","key","null","16.516666666666666","513.5","362.5","","","","","","","",""
"2139","arrowright","psychophysics","540","695124","0.0-3.0-0.264","","key","arrowright","16.65625","513.5","362.5","265","10","-1","25","35","25","35","false"
"null","null","psychophysics","541","696136","0.0-3.0-1.264","","key","null","16.45","513.5","362.5","","","","","","","",""
"712","arrowright","psychophysics","542","696858","0.0-3.0-0.265","","key","arrowright","16.651162790697676","513.5","362.5","266","10","-1","20","15","25","35","false"
"null","null","psychophysics","543","697859","0.0-3.0-1.265","","key","null","16.6","513.5","362.5","","","","","","","",""
"889","arrowright","psychophysics","544","698752","0.0-3.0-0.266","","key","arrowright","16.653846153846153","513.5","362.5","267","10","1","30","15","25","35","true"
"null","null","psychophysics","545","699755","0.0-3.0-1.266","","key","null","16.383333333333333","513.5","362.5","","","","","","","",""
"1247","arrowright","psychophysics","546","701014","0.0-3.0-0.267","","key","arrowright","18.53731343283582","513.5","362.5","268","10","-1","20","15","25","35","false"
"null","null","psychophysics","547","702025","0.0-3.0-1.267","","key","null","20.306122448979593","513.5","362.5","","","","","","","",""
"805","arrowright","psychophysics","548","702835","0.0-3.0-0.268","","key","arrowright","19.5","513.5","362.5","269","10","-1","20","35","25","35","false"
"null","null","psychophysics","549","703839","0.0-3.0-1.268","","key","null","16.37704918032787","513.5","362.5","","","","","","","",""
"1032","arrowright","psychophysics","550","704874","0.0-3.0-0.269","","key","arrowright","16.65573770491803","513.5","362.5","270","10","1","27","15","25","35","true"
"null","null","psychophysics","551","705879","0.0-3.0-1.269","","key","null","16.533333333333335","513.5","362.5","","","","","","","",""
"1164","arrowleft","psychophysics","552","707048","0.0-3.0-0.270","","key","arrowleft","16.666666666666668","513.5","362.5","271","10","-1","24","15","25","35","true"
"null","null","psychophysics","553","708060","0.0-3.0-1.270","","key","null","19.96","513.5","362.5","","","","","","","",""
"848.0000000001164","arrowright","psychophysics","554","708913","0.0-3.0-0.271","","key","arrowright","16.66","513.5","362.5","272","10","-1","26","35","25","35","false"
"null","null","psychophysics","555","709916","0.0-3.0-1.271","","key","null","16.516666666666666","513.5","362.5","","","","","","","",""
"905","arrowleft","psychophysics","556","710825","0.0-3.0-0.272","","key","arrowleft","16.62962962962963","513.5","362.5","273","10","1","20","35","25","35","false"
"null","null","psychophysics","557","711828","0.0-3.0-1.272","","key","null","16.6","513.5","362.5","","","","","","","",""
"972","arrowleft","psychophysics","558","712804","0.0-3.0-0.273","","key","arrowleft","16.344827586206897","513.5","362.5","274","10","1","20","15","25","35","false"
"null","null","psychophysics","559","713815","0.0-3.0-1.273","","key","null","16.55","513.5","362.5","","","","","","","",""
"720","arrowleft","psychophysics","560","714539","0.0-3.0-0.274","","key","arrowleft","21.454545454545453","513.5","362.5","275","10","-1","30","15","25","35","true"
"null","null","psychophysics","561","715542","0.0-3.0-1.274","","key","null","20.081632653061224","513.5","362.5","","","","","","","",""
"1041","arrowright","psychophysics","562","716593","0.0-3.0-0.275","","key","arrowright","16.870967741935484","513.5","362.5","276","10","1","27","35","25","35","true"
"null","null","psychophysics","563","717595","0.0-3.0-1.275","","key","null","16.616666666666667","513.5","362.5","","","","","","","",""
"1276","arrowright","psychophysics","564","718875","0.0-3.0-0.276","","key","arrowright","16.68","513.5","362.5","277","10","1","25","35","25","35","true"
"null","null","psychophysics","565","719887","0.0-3.0-1.276","","key","null","16.278688524590162","513.5","362.5","","","","","","","",""
"642","arrowright","psychophysics","566","720534","0.0-3.0-0.277","","key","arrowright","16.44736842105263","513.5","362.5","278","10","-1","24","35","25","35","false"
"null","null","psychophysics","567","721536","0.0-3.0-1.277","","key","null","16.4","513.5","362.5","","","","","","","",""
"690","arrowright","psychophysics","568","722238","0.0-3.0-0.278","","key","arrowright","16.853658536585368","513.5","362.5","279","10","1","26","35","25","35","true"
"null","null","psychophysics","569","723241","0.0-3.0-1.278","","key","null","16.483333333333334","513.5","362.5","","","","","","","",""
"820.0000000001164","arrowleft","psychophysics","570","724066","0.0-3.0-0.279","","key","arrowleft","16.6734693877551","513.5","362.5","280","11","-1","30","35","25","35","true"
"null","null","psychophysics","571","725069","0.0-3.0-1.279","","key","null","16.6","513.5","362.5","","","","","","","",""
