rt,response,trial_type,trial_index,time_elapsed,internal_node_id,stimulus,response_type,key_press,avg_frame_time,center_x,center_y,trial,block,test_pos,test_inner_radius,test_outer_radius,ref_inner_radius,ref_outer_radius,test_bigger
88401.1,"{""p_id"":""2575"",""age"":""19"",""handedness"":""right"",""sex"":""female"",""other_sex"":""""}",survey-html-form,0,88409,0.0-0.0,,,,,,,,,,,,,,
12506, ,html-keyboard-response,1,100918,0.0-1.0,"<p style=""color: white"">Welcome to the Size Judgment Experiment. <br>There will be 10 blocks in this experiment. <br>There will be 28 trials in each block. <br>You will be given a chance to take a break between blocks. <br>Press any key to start the experiment.</p>",,,,,,,,,,,,,
11328.9, ,psychophysics,2,112313,0.0-2.0,,key, ,16.73085903,720,394.5,,,,,,,,
2169,arrowright,psychophysics,3,114487,0.0-3.0-0.0,,key,arrowright,16.666,720,394.5,1,1,-1,20,35,25,35,FALSE
null,null,psychophysics,4,115489,0.0-3.0-1.0,,key,null,16.666,720,394.5,,,,,,,,
2497.4,arrowleft,psychophysics,5,117991,0.0-3.0-0.1,,key,arrowleft,16.666,720,394.5,2,1,-1,26,35,25,35,TRUE
null,null,psychophysics,6,118997,0.0-3.0-1.1,,key,null,16.666,720,394.5,,,,,,,,
1161.8,arrowleft,psychophysics,7,120165,0.0-3.0-0.2,,key,arrowleft,16.666,720,394.5,3,1,-1,30,35,25,35,TRUE
null,null,psychophysics,8,121167,0.0-3.0-1.2,,key,null,16.63088333,720,394.5,,,,,,,,
1152,arrowleft,psychophysics,9,122323,0.0-3.0-0.3,,key,arrowleft,16.666,720,394.5,4,1,1,20,15,25,35,FALSE
null,null,psychophysics,10,123327,0.0-3.0-1.3,,key,null,16.666,720,394.5,,,,,,,,
1442.4,arrowleft,psychophysics,11,124773,0.0-3.0-0.4,,key,arrowleft,16.666,720,394.5,5,1,-1,30,35,25,35,TRUE
null,null,psychophysics,12,125777,0.0-3.0-1.4,,key,null,16.666,720,394.5,,,,,,,,
2504.5,arrowright,psychophysics,13,128290,0.0-3.0-0.5,,key,arrowright,16.666,720,394.5,6,1,-1,20,15,25,35,FALSE
null,null,psychophysics,14,129293,0.0-3.0-1.5,,key,null,16.666,720,394.5,,,,,,,,
1210.3,arrowright,psychophysics,15,130507,0.0-3.0-0.6,,key,arrowright,16.666,720,394.5,7,1,1,27,15,25,35,TRUE
null,null,psychophysics,16,131511,0.0-3.0-1.6,,key,null,16.666,720,394.5,,,,,,,,
6992.7,arrowright,psychophysics,17,138508,0.0-3.0-0.7,,key,arrowright,16.666,720,394.5,8,1,-1,25,35,25,35,FALSE
null,null,psychophysics,18,139514,0.0-3.0-1.7,,key,null,16.666,720,394.5,,,,,,,,
1222.2,arrowleft,psychophysics,19,140741,0.0-3.0-0.8,,key,arrowleft,16.666,720,394.5,9,1,1,20,35,25,35,FALSE
null,null,psychophysics,20,141746,0.0-3.0-1.8,,key,null,16.67498305,720,394.5,,,,,,,,
1103.4,arrowleft,psychophysics,21,142853,0.0-3.0-0.9,,key,arrowleft,16.666,720,394.5,10,1,-1,24,15,25,35,TRUE
null,null,psychophysics,22,143860,0.0-3.0-1.9,,key,null,16.666,720,394.5,,,,,,,,
1921,arrowleft,psychophysics,23,145784,0.0-3.0-0.10,,key,arrowleft,16.666,720,394.5,11,1,1,23,35,25,35,FALSE
null,null,psychophysics,24,146786,0.0-3.0-1.10,,key,null,16.666,720,394.5,,,,,,,,
2443.8,arrowleft,psychophysics,25,149232,0.0-3.0-0.11,,key,arrowleft,16.666,720,394.5,12,1,-1,27,35,25,35,TRUE
null,null,psychophysics,26,150234,0.0-3.0-1.11,,key,null,16.666,720,394.5,,,,,,,,
902.2,arrowright,psychophysics,27,151140,0.0-3.0-0.12,,key,arrowright,16.666,720,394.5,13,1,-1,20,35,25,35,FALSE
null,null,psychophysics,28,152142,0.0-3.0-1.12,,key,null,17.55882143,720,394.5,,,,,,,,
944.3,arrowleft,psychophysics,29,153090,0.0-3.0-0.13,,key,arrowleft,16.666,720,394.5,14,1,-1,25,15,25,35,TRUE
null,null,psychophysics,30,154094,0.0-3.0-1.13,,key,null,16.666,720,394.5,,,,,,,,
2248.9,arrowright,psychophysics,31,156346,0.0-3.0-0.14,,key,arrowright,16.666,720,394.5,15,1,1,24,15,25,35,TRUE
null,null,psychophysics,32,157350,0.0-3.0-1.14,,key,null,16.666,720,394.5,,,,,,,,
885.8,arrowright,psychophysics,33,158240,0.0-3.0-0.15,,key,arrowright,16.666,720,394.5,16,1,1,26,15,25,35,TRUE
null,null,psychophysics,34,159242,0.0-3.0-1.15,,key,null,16.666,720,394.5,,,,,,,,
1244.5,arrowright,psychophysics,35,160490,0.0-3.0-0.16,,key,arrowright,16.666,720,394.5,17,1,-1,20,15,25,35,FALSE
null,null,psychophysics,36,161493,0.0-3.0-1.16,,key,null,16.67515254,720,394.5,,,,,,,,
1277.6,arrowleft,psychophysics,37,162774,0.0-3.0-0.17,,key,arrowleft,16.666,720,394.5,18,1,-1,23,35,25,35,TRUE
null,null,psychophysics,38,163776,0.0-3.0-1.17,,key,null,16.666,720,394.5,,,,,,,,
829.6,arrowright,psychophysics,39,164609,0.0-3.0-0.18,,key,arrowright,16.666,720,394.5,19,1,1,25,35,25,35,TRUE
null,null,psychophysics,40,165614,0.0-3.0-1.18,,key,null,16.666,720,394.5,,,,,,,,
1139.3,arrowleft,psychophysics,41,166757,0.0-3.0-0.19,,key,arrowleft,16.666,720,394.5,20,1,1,20,35,25,35,FALSE
null,null,psychophysics,42,167759,0.0-3.0-1.19,,key,null,16.666,720,394.5,,,,,,,,
854.3,arrowright,psychophysics,43,168617,0.0-3.0-0.20,,key,arrowright,18.11521739,720,394.5,21,1,1,27,35,25,35,TRUE
null,null,psychophysics,44,169628,0.0-3.0-1.20,,key,null,16.666,720,394.5,,,,,,,,
726.5,arrowright,psychophysics,45,170358,0.0-3.0-0.21,,key,arrowright,16.666,720,394.5,22,1,1,27,15,25,35,TRUE
null,null,psychophysics,46,171360,0.0-3.0-1.21,,key,null,16.666,720,394.5,,,,,,,,
1844.6,arrowleft,psychophysics,47,173208,0.0-3.0-0.22,,key,arrowleft,16.666,720,394.5,23,1,1,24,35,25,35,FALSE
null,null,psychophysics,48,174213,0.0-3.0-1.22,,key,null,16.666,720,394.5,,,,,,,,
804.7,arrowleft,psychophysics,49,175022,0.0-3.0-0.23,,key,arrowleft,16.666,720,394.5,24,1,-1,25,15,25,35,TRUE
null,null,psychophysics,50,176025,0.0-3.0-1.23,,key,null,16.666,720,394.5,,,,,,,,
1668.6,arrowleft,psychophysics,51,177696,0.0-3.0-0.24,,key,arrowleft,16.666,720,394.5,25,1,1,20,15,25,35,FALSE
null,null,psychophysics,52,178700,0.0-3.0-1.24,,key,null,16.666,720,394.5,,,,,,,,
3622.3,arrowright,psychophysics,53,182327,0.0-3.0-0.25,,key,arrowright,16.66851852,720,394.5,26,1,1,26,35,25,35,TRUE
null,null,psychophysics,54,183331,0.0-3.0-1.25,,key,null,16.666,720,394.5,,,,,,,,
1143.7,arrowright,psychophysics,55,184478,0.0-3.0-0.26,,key,arrowright,16.666,720,394.5,27,1,1,30,35,25,35,TRUE
null,null,psychophysics,56,185481,0.0-3.0-1.26,,key,null,16.666,720,394.5,,,,,,,,
1055.8,arrowleft,psychophysics,57,186541,0.0-3.0-0.27,,key,arrowleft,16.666,720,394.5,28,2,-1,24,15,25,35,TRUE
null,null,psychophysics,58,187545,0.0-3.0-1.27,,key,null,16.666,720,394.5,,,,,,,,
10884.7, ,html-keyboard-response,59,198432,0.0-3.0-2.27-0.27,"<div style=""color: white; text-align: center; vertical-align: top; display: inline-block; width: 800px; margin: auto""><p>You have completed 10% of the trials. You are on block 2 of 10. <br>Good job! Take a break if you need to.</p><p>Press any key to continue the experiment.</p></div>",,,,,,,,,,,,,
2719.9,arrowleft,psychophysics,60,202162,0.0-3.0-0.28,,key,arrowleft,16.666,720,394.5,29,2,1,24,35,25,35,FALSE
null,null,psychophysics,61,203166,0.0-3.0-1.28,,key,null,16.666,720,394.5,,,,,,,,
1060.3,arrowright,psychophysics,62,204230,0.0-3.0-0.29,,key,arrowright,16.666,720,394.5,30,2,1,23,15,25,35,TRUE
null,null,psychophysics,63,205232,0.0-3.0-1.29,,key,null,16.666,720,394.5,,,,,,,,
1646.9,arrowleft,psychophysics,64,206881,0.0-3.0-0.30,,key,arrowleft,16.666,720,394.5,31,2,1,20,35,25,35,FALSE
null,null,psychophysics,65,207887,0.0-3.0-1.30,,key,null,16.666,720,394.5,,,,,,,,
1114.1,arrowleft,psychophysics,66,209004,0.0-3.0-0.31,,key,arrowleft,16.666,720,394.5,32,2,-1,30,35,25,35,TRUE
null,null,psychophysics,67,210008,0.0-3.0-1.31,,key,null,16.666,720,394.5,,,,,,,,
915.6,arrowright,psychophysics,68,210927,0.0-3.0-0.32,,key,arrowright,16.666,720,394.5,33,2,-1,24,35,25,35,FALSE
null,null,psychophysics,69,211932,0.0-3.0-1.32,,key,null,16.666,720,394.5,,,,,,,,
975,arrowright,psychophysics,70,212910,0.0-3.0-0.33,,key,arrowright,16.666,720,394.5,34,2,1,30,35,25,35,TRUE
null,null,psychophysics,71,213915,0.0-3.0-1.33,,key,null,16.666,720,394.5,,,,,,,,
7335.5,arrowright,psychophysics,72,221254,0.0-3.0-0.34,,key,arrowright,16.6609795,720,394.5,35,2,-1,26,35,25,35,FALSE
null,null,psychophysics,73,222256,0.0-3.0-1.34,,key,null,16.666,720,394.5,,,,,,,,
5328.3,arrowleft,psychophysics,74,227594,0.0-3.0-0.35,,key,arrowleft,16.666,720,394.5,36,2,-1,26,35,25,35,TRUE
null,null,psychophysics,75,228596,0.0-3.0-1.35,,key,null,16.666,720,394.5,,,,,,,,
1631.5,arrowleft,psychophysics,76,230231,0.0-3.0-0.36,,key,arrowleft,16.666,720,394.5,37,2,1,23,35,25,35,FALSE
null,null,psychophysics,77,231237,0.0-3.0-1.36,,key,null,16.666,720,394.5,,,,,,,,
743.3,arrowleft,psychophysics,78,231984,0.0-3.0-0.37,,key,arrowleft,16.666,720,394.5,38,2,1,20,35,25,35,FALSE
null,null,psychophysics,79,232987,0.0-3.0-1.37,,key,null,16.666,720,394.5,,,,,,,,
674.2,arrowright,psychophysics,80,233665,0.0-3.0-0.38,,key,arrowright,16.666,720,394.5,39,2,1,27,35,25,35,TRUE
null,null,psychophysics,81,234670,0.0-3.0-1.38,,key,null,16.666,720,394.5,,,,,,,,
1544.4,arrowleft,psychophysics,82,236218,0.0-3.0-0.39,,key,arrowleft,16.666,720,394.5,40,2,-1,23,15,25,35,TRUE
null,null,psychophysics,83,237220,0.0-3.0-1.39,,key,null,16.666,720,394.5,,,,,,,,
1639.7,arrowright,psychophysics,84,238863,0.0-3.0-0.40,,key,arrowright,16.6715,720,394.5,41,2,-1,25,35,25,35,FALSE
null,null,psychophysics,85,239865,0.0-3.0-1.40,,key,null,16.666,720,394.5,,,,,,,,
827.4,arrowright,psychophysics,86,240696,0.0-3.0-0.41,,key,arrowright,16.666,720,394.5,42,2,1,24,15,25,35,TRUE
null,null,psychophysics,87,241700,0.0-3.0-1.41,,key,null,16.666,720,394.5,,,,,,,,
865.4,arrowright,psychophysics,88,242569,0.0-3.0-0.42,,key,arrowright,16.666,720,394.5,43,2,-1,20,35,25,35,FALSE
null,null,psychophysics,89,243571,0.0-3.0-1.42,,key,null,16.666,720,394.5,,,,,,,,
938.8,arrowleft,psychophysics,90,244513,0.0-3.0-0.43,,key,arrowleft,16.666,720,394.5,44,2,1,20,15,25,35,FALSE
null,null,psychophysics,91,245516,0.0-3.0-1.43,,key,null,16.666,720,394.5,,,,,,,,
1469,arrowright,psychophysics,92,246989,0.0-3.0-0.44,,key,arrowright,16.666,720,394.5,45,2,-1,20,35,25,35,FALSE
null,null,psychophysics,93,247991,0.0-3.0-1.44,,key,null,16.666,720,394.5,,,,,,,,
723.7,arrowleft,psychophysics,94,248718,0.0-3.0-0.45,,key,arrowleft,16.666,720,394.5,46,2,-1,30,15,25,35,TRUE
null,null,psychophysics,95,249721,0.0-3.0-1.45,,key,null,16.666,720,394.5,,,,,,,,
902.8,arrowleft,psychophysics,96,250627,0.0-3.0-0.46,,key,arrowleft,16.666,720,394.5,47,2,-1,27,15,25,35,TRUE
null,null,psychophysics,97,251633,0.0-3.0-1.46,,key,null,16.666,720,394.5,,,,,,,,
800.6,arrowright,psychophysics,98,252437,0.0-3.0-0.47,,key,arrowright,16.666,720,394.5,48,2,1,30,15,25,35,TRUE
null,null,psychophysics,99,253439,0.0-3.0-1.47,,key,null,16.666,720,394.5,,,,,,,,
1253.9,arrowleft,psychophysics,100,254697,0.0-3.0-0.48,,key,arrowleft,16.666,720,394.5,49,2,-1,23,15,25,35,TRUE
null,null,psychophysics,101,255700,0.0-3.0-1.48,,key,null,16.666,720,394.5,,,,,,,,
1457.9,arrowright,psychophysics,102,257162,0.0-3.0-0.49,,key,arrowright,16.666,720,394.5,50,2,-1,20,35,25,35,FALSE
null,null,psychophysics,103,258166,0.0-3.0-1.49,,key,null,16.666,720,394.5,,,,,,,,
1524.6,arrowleft,psychophysics,104,259694,0.0-3.0-0.50,,key,arrowleft,16.67191209,720,394.5,51,2,-1,26,15,25,35,TRUE
null,null,psychophysics,105,260696,0.0-3.0-1.50,,key,null,16.666,720,394.5,,,,,,,,
1180.9,arrowright,psychophysics,106,261880,0.0-3.0-0.51,,key,arrowright,16.666,720,394.5,52,2,-1,26,35,25,35,FALSE
null,null,psychophysics,107,262883,0.0-3.0-1.51,,key,null,16.666,720,394.5,,,,,,,,
995.2,arrowright,psychophysics,108,263882,0.0-3.0-0.52,,key,arrowright,16.666,720,394.5,53,2,-1,23,35,25,35,FALSE
null,null,psychophysics,109,264887,0.0-3.0-1.52,,key,null,16.666,720,394.5,,,,,,,,
823.3,arrowright,psychophysics,110,265714,0.0-3.0-0.53,,key,arrowright,16.666,720,394.5,54,2,1,25,15,25,35,TRUE
null,null,psychophysics,111,266720,0.0-3.0-1.53,,key,null,16.666,720,394.5,,,,,,,,
738.3,arrowright,psychophysics,112,267461,0.0-3.0-0.54,,key,arrowright,16.666,720,394.5,55,2,1,25,15,25,35,TRUE
null,null,psychophysics,113,268467,0.0-3.0-1.54,,key,null,16.666,720,394.5,,,,,,,,
4350.9,arrowright,psychophysics,114,272822,0.0-3.0-0.55,,key,arrowright,16.666,720,394.5,56,3,-1,24,35,25,35,FALSE
null,null,psychophysics,115,273823,0.0-3.0-1.55,,key,null,16.666,720,394.5,,,,,,,,
6088.8,arrowright,html-keyboard-response,116,279914,0.0-3.0-2.55-0.55,"<div style=""color: white; text-align: center; vertical-align: top; display: inline-block; width: 800px; margin: auto""><p>You have completed 20% of the trials. You are on block 3 of 10. <br>Good job! Take a break if you need to.</p><p>Press any key to continue the experiment.</p></div>",,,,,,,,,,,,,
972.4,arrowright,psychophysics,117,281897,0.0-3.0-0.56,,key,arrowright,16.666,720,394.5,57,3,1,24,15,25,35,TRUE
null,null,psychophysics,118,282899,0.0-3.0-1.56,,key,null,16.666,720,394.5,,,,,,,,
708.4,arrowright,psychophysics,119,283611,0.0-3.0-0.57,,key,arrowright,16.666,720,394.5,58,3,1,25,15,25,35,TRUE
null,null,psychophysics,120,284614,0.0-3.0-1.57,,key,null,16.666,720,394.5,,,,,,,,
744.4,arrowleft,psychophysics,121,285361,0.0-3.0-0.58,,key,arrowleft,16.666,720,394.5,59,3,-1,27,35,25,35,TRUE
null,null,psychophysics,122,286363,0.0-3.0-1.58,,key,null,16.666,720,394.5,,,,,,,,
650.5,arrowright,psychophysics,123,287017,0.0-3.0-0.59,,key,arrowright,16.666,720,394.5,60,3,1,25,15,25,35,TRUE
null,null,psychophysics,124,288022,0.0-3.0-1.59,,key,null,16.666,720,394.5,,,,,,,,
678.3,arrowleft,psychophysics,125,288703,0.0-3.0-0.60,,key,arrowleft,16.666,720,394.5,61,3,1,23,35,25,35,FALSE
null,null,psychophysics,126,289705,0.0-3.0-1.60,,key,null,16.666,720,394.5,,,,,,,,
654.7,arrowright,psychophysics,127,290362,0.0-3.0-0.61,,key,arrowright,16.666,720,394.5,62,3,1,30,35,25,35,TRUE
null,null,psychophysics,128,291363,0.0-3.0-1.61,,key,null,16.666,720,394.5,,,,,,,,
705.3,arrowleft,psychophysics,129,292072,0.0-3.0-0.62,,key,arrowleft,16.666,720,394.5,63,3,-1,24,35,25,35,TRUE
null,null,psychophysics,130,293077,0.0-3.0-1.62,,key,null,16.666,720,394.5,,,,,,,,
765.9,arrowright,psychophysics,131,293846,0.0-3.0-0.63,,key,arrowright,16.666,720,394.5,64,3,1,24,15,25,35,TRUE
null,null,psychophysics,132,294848,0.0-3.0-1.63,,key,null,16.666,720,394.5,,,,,,,,
662.5,arrowleft,psychophysics,133,295514,0.0-3.0-0.64,,key,arrowleft,16.666,720,394.5,65,3,-1,30,15,25,35,TRUE
null,null,psychophysics,134,296516,0.0-3.0-1.64,,key,null,16.666,720,394.5,,,,,,,,
678.6,arrowleft,psychophysics,135,297198,0.0-3.0-0.65,,key,arrowleft,16.666,720,394.5,66,3,-1,24,15,25,35,TRUE
null,null,psychophysics,136,298200,0.0-3.0-1.65,,key,null,16.666,720,394.5,,,,,,,,
840.8,arrowleft,psychophysics,137,299045,0.0-3.0-0.66,,key,arrowleft,16.666,720,394.5,67,3,-1,26,15,25,35,TRUE
null,null,psychophysics,138,300047,0.0-3.0-1.66,,key,null,16.62111864,720,394.5,,,,,,,,
1298,arrowleft,psychophysics,139,301349,0.0-3.0-0.67,,key,arrowleft,16.666,720,394.5,68,3,-1,27,35,25,35,TRUE
null,null,psychophysics,140,302355,0.0-3.0-1.67,,key,null,16.666,720,394.5,,,,,,,,
736,arrowright,psychophysics,141,303095,0.0-3.0-0.68,,key,arrowright,16.666,720,394.5,69,3,1,25,15,25,35,TRUE
null,null,psychophysics,142,304097,0.0-3.0-1.68,,key,null,16.666,720,394.5,,,,,,,,
848.7,arrowleft,psychophysics,143,304949,0.0-3.0-0.69,,key,arrowleft,16.666,720,394.5,70,3,1,24,35,25,35,FALSE
null,null,psychophysics,144,305955,0.0-3.0-1.69,,key,null,16.666,720,394.5,,,,,,,,
1009.8,arrowleft,psychophysics,145,306968,0.0-3.0-0.70,,key,arrowleft,16.666,720,394.5,71,3,1,24,35,25,35,FALSE
null,null,psychophysics,146,307973,0.0-3.0-1.70,,key,null,16.666,720,394.5,,,,,,,,
738.9,arrowright,psychophysics,147,308715,0.0-3.0-0.71,,key,arrowright,16.666,720,394.5,72,3,1,30,35,25,35,TRUE
null,null,psychophysics,148,309717,0.0-3.0-1.71,,key,null,16.666,720,394.5,,,,,,,,
861,arrowleft,psychophysics,149,310581,0.0-3.0-0.72,,key,arrowleft,16.666,720,394.5,73,3,-1,27,35,25,35,TRUE
null,null,psychophysics,150,311585,0.0-3.0-1.72,,key,null,16.666,720,394.5,,,,,,,,
725.9,arrowright,psychophysics,151,312315,0.0-3.0-0.73,,key,arrowright,16.666,720,394.5,74,3,1,25,15,25,35,TRUE
null,null,psychophysics,152,313316,0.0-3.0-1.73,,key,null,16.666,720,394.5,,,,,,,,
1109.5,arrowleft,psychophysics,153,314429,0.0-3.0-0.74,,key,arrowleft,16.666,720,394.5,75,3,1,20,15,25,35,FALSE
null,null,psychophysics,154,315434,0.0-3.0-1.74,,key,null,16.666,720,394.5,,,,,,,,
1577.6,arrowright,psychophysics,155,317015,0.0-3.0-0.75,,key,arrowright,16.666,720,394.5,76,3,1,27,15,25,35,TRUE
null,null,psychophysics,156,318016,0.0-3.0-1.75,,key,null,16.666,720,394.5,,,,,,,,
1187.1,arrowright,psychophysics,157,319206,0.0-3.0-0.76,,key,arrowright,16.666,720,394.5,77,3,1,26,35,25,35,TRUE
null,null,psychophysics,158,320208,0.0-3.0-1.76,,key,null,16.67605,720,394.5,,,,,,,,
623.2,arrowleft,psychophysics,159,320836,0.0-3.0-0.77,,key,arrowleft,16.666,720,394.5,78,3,-1,30,35,25,35,TRUE
null,null,psychophysics,160,321839,0.0-3.0-1.77,,key,null,16.666,720,394.5,,,,,,,,
631.7,arrowright,psychophysics,161,322473,0.0-3.0-0.78,,key,arrowright,16.666,720,394.5,79,3,1,26,15,25,35,TRUE
null,null,psychophysics,162,323475,0.0-3.0-1.78,,key,null,16.666,720,394.5,,,,,,,,
603,arrowleft,psychophysics,163,324082,0.0-3.0-0.79,,key,arrowleft,16.666,720,394.5,80,3,-1,26,15,25,35,TRUE
null,null,psychophysics,164,325086,0.0-3.0-1.79,,key,null,16.666,720,394.5,,,,,,,,
684.3,arrowleft,psychophysics,165,325773,0.0-3.0-0.80,,key,arrowleft,16.666,720,394.5,81,3,1,25,35,25,35,FALSE
null,null,psychophysics,166,326775,0.0-3.0-1.80,,key,null,16.666,720,394.5,,,,,,,,
686.9,arrowleft,psychophysics,167,327466,0.0-3.0-0.81,,key,arrowleft,16.666,720,394.5,82,3,1,20,35,25,35,FALSE
null,null,psychophysics,168,328472,0.0-3.0-1.81,,key,null,16.666,720,394.5,,,,,,,,
784,arrowright,psychophysics,169,329260,0.0-3.0-0.82,,key,arrowright,16.666,720,394.5,83,3,1,26,35,25,35,TRUE
null,null,psychophysics,170,330263,0.0-3.0-1.82,,key,null,16.666,720,394.5,,,,,,,,
701.1,arrowleft,psychophysics,171,330967,0.0-3.0-0.83,,key,arrowleft,16.666,720,394.5,84,4,-1,30,35,25,35,TRUE
null,null,psychophysics,172,331973,0.0-3.0-1.83,,key,null,16.666,720,394.5,,,,,,,,
42670.5,arrowright,html-keyboard-response,173,374647,0.0-3.0-2.83-0.83,"<div style=""color: white; text-align: center; vertical-align: top; display: inline-block; width: 800px; margin: auto""><p>You have completed 30% of the trials. You are on block 4 of 10. <br>Good job! Take a break if you need to.</p><p>Press any key to continue the experiment.</p></div>",,,,,,,,,,,,,
1216.3,arrowright,psychophysics,174,376868,0.0-3.0-0.84,,key,arrowright,16.666,720,394.5,85,4,-1,24,35,25,35,FALSE
null,null,psychophysics,175,377869,0.0-3.0-1.84,,key,null,16.666,720,394.5,,,,,,,,
657.2,arrowright,psychophysics,176,378530,0.0-3.0-0.85,,key,arrowright,16.666,720,394.5,86,4,1,27,35,25,35,TRUE
null,null,psychophysics,177,379535,0.0-3.0-1.85,,key,null,16.666,720,394.5,,,,,,,,
854.3,arrowleft,psychophysics,178,380393,0.0-3.0-0.86,,key,arrowleft,16.666,720,394.5,87,4,-1,25,35,25,35,TRUE
null,null,psychophysics,179,381397,0.0-3.0-1.86,,key,null,16.666,720,394.5,,,,,,,,
713,arrowleft,psychophysics,180,382114,0.0-3.0-0.87,,key,arrowleft,16.666,720,394.5,88,4,-1,30,35,25,35,TRUE
null,null,psychophysics,181,383119,0.0-3.0-1.87,,key,null,16.666,720,394.5,,,,,,,,
797.3,arrowleft,psychophysics,182,383920,0.0-3.0-0.88,,key,arrowleft,16.666,720,394.5,89,4,-1,27,35,25,35,TRUE
null,null,psychophysics,183,384921,0.0-3.0-1.88,,key,null,16.666,720,394.5,,,,,,,,
820.5,arrowright,psychophysics,184,385746,0.0-3.0-0.89,,key,arrowright,16.666,720,394.5,90,4,-1,20,35,25,35,FALSE
null,null,psychophysics,185,386748,0.0-3.0-1.89,,key,null,16.666,720,394.5,,,,,,,,
643.8,arrowleft,psychophysics,186,387395,0.0-3.0-0.90,,key,arrowleft,16.666,720,394.5,91,4,-1,27,35,25,35,TRUE
null,null,psychophysics,187,388397,0.0-3.0-1.90,,key,null,16.666,720,394.5,,,,,,,,
561.4,arrowright,psychophysics,188,388962,0.0-3.0-0.91,,key,arrowright,16.666,720,394.5,92,4,-1,20,35,25,35,FALSE
null,null,psychophysics,189,389964,0.0-3.0-1.91,,key,null,16.666,720,394.5,,,,,,,,
877.8,arrowleft,psychophysics,190,390845,0.0-3.0-0.92,,key,arrowleft,16.666,720,394.5,93,4,-1,23,15,25,35,TRUE
null,null,psychophysics,191,391852,0.0-3.0-1.92,,key,null,16.666,720,394.5,,,,,,,,
1006.6,arrowleft,psychophysics,192,392862,0.0-3.0-0.93,,key,arrowleft,16.666,720,394.5,94,4,1,23,35,25,35,FALSE
null,null,psychophysics,193,393864,0.0-3.0-1.93,,key,null,16.666,720,394.5,,,,,,,,
856.1,arrowright,psychophysics,194,394723,0.0-3.0-0.94,,key,arrowright,16.64711765,720,394.5,95,4,-1,20,15,25,35,FALSE
null,null,psychophysics,195,395726,0.0-3.0-1.94,,key,null,16.666,720,394.5,,,,,,,,
883.2,arrowright,psychophysics,196,396613,0.0-3.0-0.95,,key,arrowright,16.666,720,394.5,96,4,1,20,15,25,35,TRUE
null,null,psychophysics,197,397616,0.0-3.0-1.95,,key,null,16.666,720,394.5,,,,,,,,
765.9,arrowleft,psychophysics,198,398385,0.0-3.0-0.96,,key,arrowleft,16.666,720,394.5,97,4,1,24,35,25,35,FALSE
null,null,psychophysics,199,399388,0.0-3.0-1.96,,key,null,16.666,720,394.5,,,,,,,,
1307.8,arrowleft,psychophysics,200,400700,0.0-3.0-0.97,,key,arrowleft,16.666,720,394.5,98,4,-1,27,35,25,35,TRUE
null,null,psychophysics,201,401703,0.0-3.0-1.97,,key,null,16.666,720,394.5,,,,,,,,
3327.7,arrowleft,psychophysics,202,405034,0.0-3.0-0.98,,key,arrowleft,16.666,720,394.5,99,4,1,20,15,25,35,FALSE
null,null,psychophysics,203,406039,0.0-3.0-1.98,,key,null,16.666,720,394.5,,,,,,,,
1016,arrowright,psychophysics,204,407060,0.0-3.0-0.99,,key,arrowright,16.666,720,394.5,100,4,-1,26,35,25,35,FALSE
null,null,psychophysics,205,408065,0.0-3.0-1.99,,key,null,16.666,720,394.5,,,,,,,,
1105.1,arrowleft,psychophysics,206,409173,0.0-3.0-0.100,,key,arrowleft,16.666,720,394.5,101,4,-1,25,35,25,35,TRUE
null,null,psychophysics,207,410175,0.0-3.0-1.100,,key,null,16.666,720,394.5,,,,,,,,
734.7,arrowright,psychophysics,208,410912,0.0-3.0-0.101,,key,arrowright,16.666,720,394.5,102,4,1,24,15,25,35,TRUE
null,null,psychophysics,209,411918,0.0-3.0-1.101,,key,null,16.666,720,394.5,,,,,,,,
641.2,arrowright,psychophysics,210,412562,0.0-3.0-0.102,,key,arrowright,16.666,720,394.5,103,4,1,23,15,25,35,TRUE
null,null,psychophysics,211,413568,0.0-3.0-1.102,,key,null,16.666,720,394.5,,,,,,,,
691.5,arrowright,psychophysics,212,414263,0.0-3.0-0.103,,key,arrowright,16.666,720,394.5,104,4,1,25,35,25,35,TRUE
null,null,psychophysics,213,415266,0.0-3.0-1.103,,key,null,16.67508475,720,394.5,,,,,,,,
1483.6,arrowright,psychophysics,214,416753,0.0-3.0-0.104,,key,arrowright,16.666,720,394.5,105,4,1,23,15,25,35,TRUE
null,null,psychophysics,215,417755,0.0-3.0-1.104,,key,null,16.666,720,394.5,,,,,,,,
842.7,arrowleft,psychophysics,216,418603,0.0-3.0-0.105,,key,arrowleft,16.666,720,394.5,106,4,-1,24,15,25,35,TRUE
null,null,psychophysics,217,419605,0.0-3.0-1.105,,key,null,16.666,720,394.5,,,,,,,,
851.6,arrowright,psychophysics,218,420460,0.0-3.0-0.106,,key,arrowright,16.666,720,394.5,107,4,1,30,15,25,35,TRUE
null,null,psychophysics,219,421470,0.0-3.0-1.106,,key,null,16.666,720,394.5,,,,,,,,
640.7,arrowleft,psychophysics,220,422113,0.0-3.0-0.107,,key,arrowleft,16.666,720,394.5,108,4,-1,30,35,25,35,TRUE
null,null,psychophysics,221,423115,0.0-3.0-1.107,,key,null,16.666,720,394.5,,,,,,,,
808.6,arrowleft,psychophysics,222,423927,0.0-3.0-0.108,,key,arrowleft,16.666,720,394.5,109,4,-1,30,15,25,35,TRUE
null,null,psychophysics,223,424929,0.0-3.0-1.108,,key,null,16.666,720,394.5,,,,,,,,
644.9,arrowright,psychophysics,224,425577,0.0-3.0-0.109,,key,arrowright,16.666,720,394.5,110,4,1,27,15,25,35,TRUE
null,null,psychophysics,225,426582,0.0-3.0-1.109,,key,null,16.666,720,394.5,,,,,,,,
716.6,arrowright,psychophysics,226,427302,0.0-3.0-0.110,,key,arrowright,16.666,720,394.5,111,4,1,30,15,25,35,TRUE
null,null,psychophysics,227,428305,0.0-3.0-1.110,,key,null,16.666,720,394.5,,,,,,,,
720,arrowright,psychophysics,228,429030,0.0-3.0-0.111,,key,arrowright,16.666,720,394.5,112,5,1,27,15,25,35,TRUE
null,null,psychophysics,229,430031,0.0-3.0-1.111,,key,null,16.666,720,394.5,,,,,,,,
2638.1,arrowright,html-keyboard-response,230,432671,0.0-3.0-2.111-0.111,"<div style=""color: white; text-align: center; vertical-align: top; display: inline-block; width: 800px; margin: auto""><p>You have completed 40% of the trials. You are on block 5 of 10. <br>Good job! Take a break if you need to.</p><p>Press any key to continue the experiment.</p></div>",,,,,,,,,,,,,
702.7,arrowright,psychophysics,231,434380,0.0-3.0-0.112,,key,arrowright,16.666,720,394.5,113,5,-1,23,35,25,35,FALSE
null,null,psychophysics,232,435383,0.0-3.0-1.112,,key,null,16.56363333,720,394.5,,,,,,,,
1848.8,arrowright,psychophysics,233,437240,0.0-3.0-0.113,,key,arrowright,16.666,720,394.5,114,5,1,25,35,25,35,TRUE
null,null,psychophysics,234,438247,0.0-3.0-1.113,,key,null,16.666,720,394.5,,,,,,,,
1039.7,arrowleft,psychophysics,235,439290,0.0-3.0-0.114,,key,arrowleft,16.666,720,394.5,115,5,-1,24,35,25,35,TRUE
null,null,psychophysics,236,440294,0.0-3.0-1.114,,key,null,16.666,720,394.5,,,,,,,,
1092.1,arrowleft,psychophysics,237,441389,0.0-3.0-0.115,,key,arrowleft,16.666,720,394.5,116,5,1,23,35,25,35,FALSE
null,null,psychophysics,238,442390,0.0-3.0-1.115,,key,null,16.666,720,394.5,,,,,,,,
846.8,arrowright,psychophysics,239,443240,0.0-3.0-0.116,,key,arrowright,16.666,720,394.5,117,5,-1,20,15,25,35,FALSE
null,null,psychophysics,240,444248,0.0-3.0-1.116,,key,null,16.666,720,394.5,,,,,,,,
1852.8,arrowright,psychophysics,241,446104,0.0-3.0-0.117,,key,arrowright,16.666,720,394.5,118,5,1,23,15,25,35,TRUE
null,null,psychophysics,242,447109,0.0-3.0-1.117,,key,null,16.666,720,394.5,,,,,,,,
817.1,arrowleft,psychophysics,243,447929,0.0-3.0-0.118,,key,arrowleft,16.666,720,394.5,119,5,-1,27,15,25,35,TRUE
null,null,psychophysics,244,448931,0.0-3.0-1.118,,key,null,16.666,720,394.5,,,,,,,,
737,arrowright,psychophysics,245,449671,0.0-3.0-0.119,,key,arrowright,16.666,720,394.5,120,5,1,27,15,25,35,TRUE
null,null,psychophysics,246,450673,0.0-3.0-1.119,,key,null,16.666,720,394.5,,,,,,,,
847.5,arrowleft,psychophysics,247,451524,0.0-3.0-0.120,,key,arrowleft,16.666,720,394.5,121,5,-1,23,15,25,35,TRUE
null,null,psychophysics,248,452528,0.0-3.0-1.120,,key,null,16.666,720,394.5,,,,,,,,
688,arrowleft,psychophysics,249,453219,0.0-3.0-0.121,,key,arrowleft,16.666,720,394.5,122,5,-1,27,15,25,35,TRUE
null,null,psychophysics,250,454222,0.0-3.0-1.121,,key,null,16.666,720,394.5,,,,,,,,
699.4,arrowright,psychophysics,251,454925,0.0-3.0-0.122,,key,arrowright,16.67890244,720,394.5,123,5,1,25,15,25,35,TRUE
null,null,psychophysics,252,455930,0.0-3.0-1.122,,key,null,16.666,720,394.5,,,,,,,,
1674.2,arrowleft,psychophysics,253,457607,0.0-3.0-0.123,,key,arrowleft,16.666,720,394.5,124,5,-1,25,35,25,35,TRUE
null,null,psychophysics,254,458614,0.0-3.0-1.123,,key,null,16.666,720,394.5,,,,,,,,
1594.8,arrowright,psychophysics,255,460212,0.0-3.0-0.124,,key,arrowright,16.666,720,394.5,125,5,-1,24,35,25,35,FALSE
null,null,psychophysics,256,461215,0.0-3.0-1.124,,key,null,16.666,720,394.5,,,,,,,,
818.8,arrowright,psychophysics,257,462037,0.0-3.0-0.125,,key,arrowright,16.666,720,394.5,126,5,1,30,15,25,35,TRUE
null,null,psychophysics,258,463039,0.0-3.0-1.125,,key,null,16.666,720,394.5,,,,,,,,
631.6,arrowleft,psychophysics,259,463674,0.0-3.0-0.126,,key,arrowleft,16.666,720,394.5,127,5,1,20,15,25,35,FALSE
null,null,psychophysics,260,464678,0.0-3.0-1.126,,key,null,16.666,720,394.5,,,,,,,,
1025.2,arrowright,psychophysics,261,465707,0.0-3.0-0.127,,key,arrowright,16.666,720,394.5,128,5,1,23,35,25,35,TRUE
null,null,psychophysics,262,466710,0.0-3.0-1.127,,key,null,16.666,720,394.5,,,,,,,,
865.4,arrowright,psychophysics,263,467579,0.0-3.0-0.128,,key,arrowright,16.666,720,394.5,129,5,1,24,15,25,35,TRUE
null,null,psychophysics,264,468580,0.0-3.0-1.128,,key,null,16.666,720,394.5,,,,,,,,
820.9,arrowright,psychophysics,265,469404,0.0-3.0-0.129,,key,arrowright,16.666,720,394.5,130,5,1,27,35,25,35,TRUE
null,null,psychophysics,266,470407,0.0-3.0-1.129,,key,null,16.666,720,394.5,,,,,,,,
894.3,arrowright,psychophysics,267,471304,0.0-3.0-0.130,,key,arrowright,16.666,720,394.5,131,5,-1,23,35,25,35,FALSE
null,null,psychophysics,268,472306,0.0-3.0-1.130,,key,null,16.666,720,394.5,,,,,,,,
1030.6,arrowright,psychophysics,269,473340,0.0-3.0-0.131,,key,arrowright,16.666,720,394.5,132,5,-1,23,35,25,35,FALSE
null,null,psychophysics,270,474341,0.0-3.0-1.131,,key,null,16.666,720,394.5,,,,,,,,
812.5,arrowright,psychophysics,271,475157,0.0-3.0-0.132,,key,arrowright,16.6775,720,394.5,133,5,1,26,35,25,35,TRUE
null,null,psychophysics,272,476159,0.0-3.0-1.132,,key,null,16.666,720,394.5,,,,,,,,
707.7,arrowleft,psychophysics,273,476870,0.0-3.0-0.133,,key,arrowleft,16.666,720,394.5,134,5,-1,27,15,25,35,TRUE
null,null,psychophysics,274,477876,0.0-3.0-1.133,,key,null,16.666,720,394.5,,,,,,,,
624.4,arrowleft,psychophysics,275,478504,0.0-3.0-0.134,,key,arrowleft,16.666,720,394.5,135,5,-1,30,15,25,35,TRUE
null,null,psychophysics,276,479505,0.0-3.0-1.134,,key,null,16.666,720,394.5,,,,,,,,
850.8,arrowright,psychophysics,277,480359,0.0-3.0-0.135,,key,arrowright,16.666,720,394.5,136,5,1,26,35,25,35,TRUE
null,null,psychophysics,278,481364,0.0-3.0-1.135,,key,null,16.666,720,394.5,,,,,,,,
689.8,arrowleft,psychophysics,279,482057,0.0-3.0-0.136,,key,arrowleft,16.666,720,394.5,137,5,1,23,35,25,35,FALSE
null,null,psychophysics,280,483060,0.0-3.0-1.136,,key,null,16.666,720,394.5,,,,,,,,
661,arrowright,psychophysics,281,483724,0.0-3.0-0.137,,key,arrowright,16.666,720,394.5,138,5,1,26,15,25,35,TRUE
null,null,psychophysics,282,484727,0.0-3.0-1.137,,key,null,16.666,720,394.5,,,,,,,,
683.3,arrowright,psychophysics,283,485414,0.0-3.0-0.138,,key,arrowright,16.666,720,394.5,139,5,1,26,15,25,35,TRUE
null,null,psychophysics,284,486416,0.0-3.0-1.138,,key,null,16.666,720,394.5,,,,,,,,
796.6,arrowleft,psychophysics,285,487217,0.0-3.0-0.139,,key,arrowleft,16.666,720,394.5,140,6,-1,23,15,25,35,TRUE
null,null,psychophysics,286,488220,0.0-3.0-1.139,,key,null,16.666,720,394.5,,,,,,,,
15855.3,arrowright,html-keyboard-response,287,504077,0.0-3.0-2.139-0.139,"<div style=""color: white; text-align: center; vertical-align: top; display: inline-block; width: 800px; margin: auto""><p>You have completed 50% of the trials. You are on block 6 of 10. <br>Good job! Take a break if you need to.</p><p>Press any key to continue the experiment.</p></div>",,,,,,,,,,,,,
1101.2,arrowleft,psychophysics,288,506190,0.0-3.0-0.140,,key,arrowleft,16.666,720,394.5,141,6,-1,25,15,25,35,TRUE
null,null,psychophysics,289,507193,0.0-3.0-1.140,,key,null,16.666,720,394.5,,,,,,,,
921,arrowleft,psychophysics,290,508117,0.0-3.0-0.141,,key,arrowleft,16.666,720,394.5,142,6,-1,30,35,25,35,TRUE
null,null,psychophysics,291,509118,0.0-3.0-1.141,,key,null,16.666,720,394.5,,,,,,,,
2548.2,arrowright,psychophysics,292,511670,0.0-3.0-0.142,,key,arrowright,16.666,720,394.5,143,6,1,30,15,25,35,TRUE
null,null,psychophysics,293,512674,0.0-3.0-1.142,,key,null,16.666,720,394.5,,,,,,,,
1062.1,arrowright,psychophysics,294,513739,0.0-3.0-0.143,,key,arrowright,16.666,720,394.5,144,6,1,26,15,25,35,TRUE
null,null,psychophysics,295,514744,0.0-3.0-1.143,,key,null,16.666,720,394.5,,,,,,,,
789.8,arrowleft,psychophysics,296,515537,0.0-3.0-0.144,,key,arrowleft,16.666,720,394.5,145,6,1,20,35,25,35,FALSE
null,null,psychophysics,297,516539,0.0-3.0-1.144,,key,null,16.666,720,394.5,,,,,,,,
712,arrowleft,psychophysics,298,517254,0.0-3.0-0.145,,key,arrowleft,16.666,720,394.5,146,6,-1,24,15,25,35,TRUE
null,null,psychophysics,299,518257,0.0-3.0-1.145,,key,null,16.666,720,394.5,,,,,,,,
727.3,arrowleft,psychophysics,300,518988,0.0-3.0-0.146,,key,arrowleft,16.666,720,394.5,147,6,1,20,35,25,35,FALSE
null,null,psychophysics,301,519989,0.0-3.0-1.146,,key,null,16.666,720,394.5,,,,,,,,
815.7,arrowleft,psychophysics,302,520808,0.0-3.0-0.147,,key,arrowleft,16.666,720,394.5,148,6,1,25,35,25,35,FALSE
null,null,psychophysics,303,521811,0.0-3.0-1.147,,key,null,16.666,720,394.5,,,,,,,,
629,arrowright,psychophysics,304,522443,0.0-3.0-0.148,,key,arrowright,16.666,720,394.5,149,6,1,30,15,25,35,TRUE
null,null,psychophysics,305,523444,0.0-3.0-1.148,,key,null,16.666,720,394.5,,,,,,,,
706.5,arrowleft,psychophysics,306,524154,0.0-3.0-0.149,,key,arrowleft,16.56511905,720,394.5,150,6,1,20,35,25,35,FALSE
null,null,psychophysics,307,525157,0.0-3.0-1.149,,key,null,16.666,720,394.5,,,,,,,,
610.2,arrowright,psychophysics,308,525771,0.0-3.0-0.150,,key,arrowright,16.666,720,394.5,151,6,1,24,15,25,35,TRUE
null,null,psychophysics,309,526772,0.0-3.0-1.150,,key,null,16.666,720,394.5,,,,,,,,
794.1,arrowleft,psychophysics,310,527569,0.0-3.0-0.151,,key,arrowleft,16.666,720,394.5,152,6,-1,26,15,25,35,TRUE
null,null,psychophysics,311,528574,0.0-3.0-1.151,,key,null,16.666,720,394.5,,,,,,,,
679.1,arrowright,psychophysics,312,529256,0.0-3.0-0.152,,key,arrowright,16.666,720,394.5,153,6,1,27,35,25,35,TRUE
null,null,psychophysics,313,530261,0.0-3.0-1.152,,key,null,16.666,720,394.5,,,,,,,,
707.5,arrowright,psychophysics,314,530971,0.0-3.0-0.153,,key,arrowright,16.666,720,394.5,154,6,-1,24,35,25,35,FALSE
null,null,psychophysics,315,531978,0.0-3.0-1.153,,key,null,16.666,720,394.5,,,,,,,,
619,arrowleft,psychophysics,316,532600,0.0-3.0-0.154,,key,arrowleft,16.666,720,394.5,155,6,-1,27,15,25,35,TRUE
null,null,psychophysics,317,533602,0.0-3.0-1.154,,key,null,16.666,720,394.5,,,,,,,,
583.1,arrowright,psychophysics,318,534188,0.0-3.0-0.155,,key,arrowright,16.666,720,394.5,156,6,-1,20,15,25,35,FALSE
null,null,psychophysics,319,535195,0.0-3.0-1.155,,key,null,16.666,720,394.5,,,,,,,,
634.9,arrowleft,psychophysics,320,535834,0.0-3.0-0.156,,key,arrowleft,16.666,720,394.5,157,6,1,23,35,25,35,FALSE
null,null,psychophysics,321,536837,0.0-3.0-1.156,,key,null,16.666,720,394.5,,,,,,,,
714.6,arrowleft,psychophysics,322,537555,0.0-3.0-0.157,,key,arrowleft,16.666,720,394.5,158,6,-1,27,35,25,35,TRUE
null,null,psychophysics,323,538561,0.0-3.0-1.157,,key,null,16.666,720,394.5,,,,,,,,
607.7,arrowright,psychophysics,324,539172,0.0-3.0-0.158,,key,arrowright,16.666,720,394.5,159,6,1,26,35,25,35,TRUE
null,null,psychophysics,325,540179,0.0-3.0-1.158,,key,null,16.666,720,394.5,,,,,,,,
788.7,arrowright,psychophysics,326,540971,0.0-3.0-0.159,,key,arrowright,16.666,720,394.5,160,6,1,25,15,25,35,TRUE
null,null,psychophysics,327,541976,0.0-3.0-1.159,,key,null,16.666,720,394.5,,,,,,,,
948.4,arrowright,psychophysics,328,542928,0.0-3.0-0.160,,key,arrowright,16.666,720,394.5,161,6,1,27,15,25,35,TRUE
null,null,psychophysics,329,543929,0.0-3.0-1.160,,key,null,16.67493333,720,394.5,,,,,,,,
1118.1,arrowright,psychophysics,330,545051,0.0-3.0-0.161,,key,arrowright,16.666,720,394.5,162,6,-1,24,15,25,35,FALSE
null,null,psychophysics,331,546053,0.0-3.0-1.161,,key,null,16.666,720,394.5,,,,,,,,
714.2,arrowright,psychophysics,332,546770,0.0-3.0-0.162,,key,arrowright,16.666,720,394.5,163,6,1,26,15,25,35,TRUE
null,null,psychophysics,333,547773,0.0-3.0-1.162,,key,null,16.666,720,394.5,,,,,,,,
727.5,arrowright,psychophysics,334,548504,0.0-3.0-0.163,,key,arrowright,16.666,720,394.5,164,6,1,30,15,25,35,TRUE
null,null,psychophysics,335,549508,0.0-3.0-1.163,,key,null,16.666,720,394.5,,,,,,,,
709.9,arrowleft,psychophysics,336,550221,0.0-3.0-0.164,,key,arrowleft,16.666,720,394.5,165,6,-1,27,35,25,35,TRUE
null,null,psychophysics,337,551228,0.0-3.0-1.164,,key,null,16.666,720,394.5,,,,,,,,
804.6,arrowleft,psychophysics,338,552036,0.0-3.0-0.165,,key,arrowleft,16.666,720,394.5,166,6,1,25,35,25,35,FALSE
null,null,psychophysics,339,553037,0.0-3.0-1.165,,key,null,16.666,720,394.5,,,,,,,,
2737.7,arrowright,psychophysics,340,555778,0.0-3.0-0.166,,key,arrowright,16.666,720,394.5,167,6,-1,26,35,25,35,FALSE
null,null,psychophysics,341,556780,0.0-3.0-1.166,,key,null,16.666,720,394.5,,,,,,,,
752.5,arrowleft,psychophysics,342,557537,0.0-3.0-0.167,,key,arrowleft,16.666,720,394.5,168,7,-1,27,15,25,35,TRUE
null,null,psychophysics,343,558541,0.0-3.0-1.167,,key,null,16.666,720,394.5,,,,,,,,
1957.7,arrowright,html-keyboard-response,344,560500,0.0-3.0-2.167-0.167,"<div style=""color: white; text-align: center; vertical-align: top; display: inline-block; width: 800px; margin: auto""><p>You have completed 60% of the trials. You are on block 7 of 10. <br>Good job! Take a break if you need to.</p><p>Press any key to continue the experiment.</p></div>",,,,,,,,,,,,,
3724.6,arrowright,psychophysics,345,565234,0.0-3.0-0.168,,key,arrowright,16.63698214,720,394.5,169,7,-1,23,15,25,35,FALSE
null,null,psychophysics,346,566237,0.0-3.0-1.168,,key,null,16.666,720,394.5,,,,,,,,
654.1,arrowright,psychophysics,347,566895,0.0-3.0-0.169,,key,arrowright,16.666,720,394.5,170,7,-1,20,15,25,35,FALSE
null,null,psychophysics,348,567899,0.0-3.0-1.169,,key,null,16.666,720,394.5,,,,,,,,
736.6,arrowright,psychophysics,349,568639,0.0-3.0-0.170,,key,arrowright,16.666,720,394.5,171,7,1,30,15,25,35,TRUE
null,null,psychophysics,350,569642,0.0-3.0-1.170,,key,null,16.666,720,394.5,,,,,,,,
686.4,arrowright,psychophysics,351,570332,0.0-3.0-0.171,,key,arrowright,16.666,720,394.5,172,7,1,26,15,25,35,TRUE
null,null,psychophysics,352,571337,0.0-3.0-1.171,,key,null,16.666,720,394.5,,,,,,,,
939.6,arrowright,psychophysics,353,572280,0.0-3.0-0.172,,key,arrowright,16.666,720,394.5,173,7,-1,25,35,25,35,FALSE
null,null,psychophysics,354,573283,0.0-3.0-1.172,,key,null,16.666,720,394.5,,,,,,,,
1035.1,arrowleft,psychophysics,355,574321,0.0-3.0-0.173,,key,arrowleft,16.666,720,394.5,174,7,1,20,35,25,35,FALSE
null,null,psychophysics,356,575323,0.0-3.0-1.173,,key,null,16.666,720,394.5,,,,,,,,
826.3,arrowleft,psychophysics,357,576153,0.0-3.0-0.174,,key,arrowleft,16.666,720,394.5,175,7,-1,26,15,25,35,TRUE
null,null,psychophysics,358,577154,0.0-3.0-1.174,,key,null,16.666,720,394.5,,,,,,,,
724,arrowright,psychophysics,359,577882,0.0-3.0-0.175,,key,arrowright,16.666,720,394.5,176,7,1,24,15,25,35,TRUE
null,null,psychophysics,360,578888,0.0-3.0-1.175,,key,null,16.666,720,394.5,,,,,,,,
766.6,arrowleft,psychophysics,361,579657,0.0-3.0-0.176,,key,arrowleft,16.666,720,394.5,177,7,-1,25,15,25,35,TRUE
null,null,psychophysics,362,580660,0.0-3.0-1.176,,key,null,16.666,720,394.5,,,,,,,,
1815.7,arrowleft,psychophysics,363,582478,0.0-3.0-0.177,,key,arrowleft,16.666,720,394.5,178,7,1,25,35,25,35,FALSE
null,null,psychophysics,364,583480,0.0-3.0-1.177,,key,null,16.666,720,394.5,,,,,,,,
2344.2,arrowright,psychophysics,365,585827,0.0-3.0-0.178,,key,arrowright,16.66931429,720,394.5,179,7,-1,26,35,25,35,FALSE
null,null,psychophysics,366,586828,0.0-3.0-1.178,,key,null,16.666,720,394.5,,,,,,,,
1298.8,arrowright,psychophysics,367,588135,0.0-3.0-0.179,,key,arrowright,16.666,720,394.5,180,7,1,26,35,25,35,TRUE
null,null,psychophysics,368,589138,0.0-3.0-1.179,,key,null,16.666,720,394.5,,,,,,,,
843.9,arrowleft,psychophysics,369,589983,0.0-3.0-0.180,,key,arrowleft,16.666,720,394.5,181,7,-1,26,15,25,35,TRUE
null,null,psychophysics,370,590988,0.0-3.0-1.180,,key,null,16.666,720,394.5,,,,,,,,
639.1,arrowleft,psychophysics,371,591628,0.0-3.0-0.181,,key,arrowleft,16.666,720,394.5,182,7,-1,27,15,25,35,TRUE
null,null,psychophysics,372,592629,0.0-3.0-1.181,,key,null,16.666,720,394.5,,,,,,,,
663,arrowleft,psychophysics,373,593294,0.0-3.0-0.182,,key,arrowleft,16.666,720,394.5,183,7,-1,23,15,25,35,TRUE
null,null,psychophysics,374,594295,0.0-3.0-1.182,,key,null,16.666,720,394.5,,,,,,,,
920.6,arrowleft,psychophysics,375,595218,0.0-3.0-0.183,,key,arrowleft,16.666,720,394.5,184,7,-1,26,15,25,35,TRUE
null,null,psychophysics,376,596221,0.0-3.0-1.183,,key,null,16.666,720,394.5,,,,,,,,
2344.6,arrowleft,psychophysics,377,598568,0.0-3.0-0.184,,key,arrowleft,16.666,720,394.5,185,7,1,24,35,25,35,FALSE
null,null,psychophysics,378,599571,0.0-3.0-1.184,,key,null,16.666,720,394.5,,,,,,,,
704.7,arrowright,psychophysics,379,600277,0.0-3.0-0.185,,key,arrowright,16.666,720,394.5,186,7,1,25,15,25,35,TRUE
null,null,psychophysics,380,601282,0.0-3.0-1.185,,key,null,16.666,720,394.5,,,,,,,,
678.2,arrowright,psychophysics,381,601964,0.0-3.0-0.186,,key,arrowright,16.666,720,394.5,187,7,1,27,15,25,35,TRUE
null,null,psychophysics,382,602966,0.0-3.0-1.186,,key,null,16.666,720,394.5,,,,,,,,
1729.7,arrowright,psychophysics,383,604698,0.0-3.0-0.187,,key,arrowright,16.67192233,720,394.5,188,7,1,23,15,25,35,TRUE
null,null,psychophysics,384,605705,0.0-3.0-1.187,,key,null,16.666,720,394.5,,,,,,,,
2548.4,arrowleft,psychophysics,385,608263,0.0-3.0-0.188,,key,arrowleft,16.666,720,394.5,189,7,1,20,15,25,35,FALSE
null,null,psychophysics,386,609268,0.0-3.0-1.188,,key,null,16.666,720,394.5,,,,,,,,
778.6,arrowleft,psychophysics,387,610050,0.0-3.0-0.189,,key,arrowleft,16.666,720,394.5,190,7,-1,25,15,25,35,TRUE
null,null,psychophysics,388,611055,0.0-3.0-1.189,,key,null,16.666,720,394.5,,,,,,,,
706.3,arrowleft,psychophysics,389,611764,0.0-3.0-0.190,,key,arrowleft,16.666,720,394.5,191,7,-1,27,15,25,35,TRUE
null,null,psychophysics,390,612766,0.0-3.0-1.190,,key,null,16.666,720,394.5,,,,,,,,
760.8,arrowright,psychophysics,391,613530,0.0-3.0-0.191,,key,arrowright,16.666,720,394.5,192,7,1,27,15,25,35,TRUE
null,null,psychophysics,392,614536,0.0-3.0-1.191,,key,null,16.666,720,394.5,,,,,,,,
1495.8,arrowleft,psychophysics,393,616035,0.0-3.0-0.192,,key,arrowleft,16.666,720,394.5,193,7,-1,27,35,25,35,TRUE
null,null,psychophysics,394,617038,0.0-3.0-1.192,,key,null,16.666,720,394.5,,,,,,,,
855.5,arrowright,psychophysics,395,617897,0.0-3.0-0.193,,key,arrowright,16.666,720,394.5,194,7,1,26,35,25,35,TRUE
null,null,psychophysics,396,618899,0.0-3.0-1.193,,key,null,16.666,720,394.5,,,,,,,,
1428.8,arrowright,psychophysics,397,620331,0.0-3.0-0.194,,key,arrowright,16.666,720,394.5,195,7,-1,20,15,25,35,FALSE
null,null,psychophysics,398,621333,0.0-3.0-1.194,,key,null,16.666,720,394.5,,,,,,,,
916.4,arrowright,psychophysics,399,622253,0.0-3.0-0.195,,key,arrowright,16.666,720,394.5,196,8,1,27,15,25,35,TRUE
null,null,psychophysics,400,623255,0.0-3.0-1.195,,key,null,16.666,720,394.5,,,,,,,,
63618.8,arrowright,html-keyboard-response,401,686877,0.0-3.0-2.195-0.195,"<div style=""color: white; text-align: center; vertical-align: top; display: inline-block; width: 800px; margin: auto""><p>You have completed 70% of the trials. You are on block 8 of 10. <br>Good job! Take a break if you need to.</p><p>Press any key to continue the experiment.</p></div>",,,,,,,,,,,,,
615.4,arrowright,psychophysics,402,688500,0.0-3.0-0.196,,key,arrowright,16.666,720,394.5,197,8,1,30,35,25,35,TRUE
null,null,psychophysics,403,689502,0.0-3.0-1.196,,key,null,16.666,720,394.5,,,,,,,,
738.9,arrowright,psychophysics,404,690244,0.0-3.0-0.197,,key,arrowright,16.666,720,394.5,198,8,1,27,35,25,35,TRUE
null,null,psychophysics,405,691246,0.0-3.0-1.197,,key,null,16.666,720,394.5,,,,,,,,
676.1,arrowright,psychophysics,406,691926,0.0-3.0-0.198,,key,arrowright,16.666,720,394.5,199,8,-1,24,35,25,35,FALSE
null,null,psychophysics,407,692929,0.0-3.0-1.198,,key,null,16.666,720,394.5,,,,,,,,
2296.6,arrowright,psychophysics,408,695229,0.0-3.0-0.199,,key,arrowright,16.666,720,394.5,200,8,1,26,35,25,35,TRUE
null,null,psychophysics,409,696235,0.0-3.0-1.199,,key,null,16.666,720,394.5,,,,,,,,
656.6,arrowleft,psychophysics,410,696895,0.0-3.0-0.200,,key,arrowleft,16.666,720,394.5,201,8,1,25,35,25,35,FALSE
null,null,psychophysics,411,697897,0.0-3.0-1.200,,key,null,16.666,720,394.5,,,,,,,,
707.2,arrowleft,psychophysics,412,698606,0.0-3.0-0.201,,key,arrowleft,16.666,720,394.5,202,8,-1,24,15,25,35,TRUE
null,null,psychophysics,413,699608,0.0-3.0-1.201,,key,null,16.666,720,394.5,,,,,,,,
706.4,arrowleft,psychophysics,414,700317,0.0-3.0-0.202,,key,arrowleft,16.666,720,394.5,203,8,-1,25,15,25,35,TRUE
null,null,psychophysics,415,701322,0.0-3.0-1.202,,key,null,16.666,720,394.5,,,,,,,,
619.2,arrowright,psychophysics,416,701945,0.0-3.0-0.203,,key,arrowright,16.666,720,394.5,204,8,1,27,35,25,35,TRUE
null,null,psychophysics,417,702950,0.0-3.0-1.203,,key,null,16.666,720,394.5,,,,,,,,
812.7,arrowleft,psychophysics,418,703767,0.0-3.0-0.204,,key,arrowleft,16.666,720,394.5,205,8,-1,25,35,25,35,TRUE
null,null,psychophysics,419,704769,0.0-3.0-1.204,,key,null,16.95334483,720,394.5,,,,,,,,
604.2,arrowright,psychophysics,420,705376,0.0-3.0-0.205,,key,arrowright,16.666,720,394.5,206,8,1,26,15,25,35,TRUE
null,null,psychophysics,421,706378,0.0-3.0-1.205,,key,null,16.666,720,394.5,,,,,,,,
481.4,arrowright,psychophysics,422,706863,0.0-3.0-0.206,,key,arrowright,16.666,720,394.5,207,8,-1,20,15,25,35,FALSE
null,null,psychophysics,423,707871,0.0-3.0-1.206,,key,null,16.65326667,720,394.5,,,,,,,,
757.5,arrowright,psychophysics,424,708633,0.0-3.0-0.207,,key,arrowright,16.666,720,394.5,208,8,1,25,35,25,35,TRUE
null,null,psychophysics,425,709635,0.0-3.0-1.207,,key,null,16.666,720,394.5,,,,,,,,
1203.8,arrowright,psychophysics,426,710842,0.0-3.0-0.208,,key,arrowright,16.666,720,394.5,209,8,1,27,35,25,35,TRUE
null,null,psychophysics,427,711844,0.0-3.0-1.208,,key,null,16.666,720,394.5,,,,,,,,
714.6,arrowright,psychophysics,428,712561,0.0-3.0-0.209,,key,arrowright,16.666,720,394.5,210,8,1,26,35,25,35,TRUE
null,null,psychophysics,429,713563,0.0-3.0-1.209,,key,null,16.666,720,394.5,,,,,,,,
642.3,arrowleft,psychophysics,430,714209,0.0-3.0-0.210,,key,arrowleft,16.666,720,394.5,211,8,-1,25,15,25,35,TRUE
null,null,psychophysics,431,715215,0.0-3.0-1.210,,key,null,16.666,720,394.5,,,,,,,,
693.2,arrowright,psychophysics,432,715911,0.0-3.0-0.211,,key,arrowright,16.666,720,394.5,212,8,-1,23,35,25,35,FALSE
null,null,psychophysics,433,716918,0.0-3.0-1.211,,key,null,16.666,720,394.5,,,,,,,,
1670.7,arrowright,psychophysics,434,718592,0.0-3.0-0.212,,key,arrowright,16.666,720,394.5,213,8,-1,23,15,25,35,FALSE
null,null,psychophysics,435,719594,0.0-3.0-1.212,,key,null,16.666,720,394.5,,,,,,,,
702.7,arrowright,psychophysics,436,720300,0.0-3.0-0.213,,key,arrowright,16.666,720,394.5,214,8,1,26,15,25,35,TRUE
null,null,psychophysics,437,721302,0.0-3.0-1.213,,key,null,16.666,720,394.5,,,,,,,,
2270.9,arrowleft,psychophysics,438,723576,0.0-3.0-0.214,,key,arrowleft,16.666,720,394.5,215,8,-1,25,35,25,35,TRUE
null,null,psychophysics,439,724578,0.0-3.0-1.214,,key,null,16.666,720,394.5,,,,,,,,
1066.1,arrowleft,psychophysics,440,725646,0.0-3.0-0.215,,key,arrowleft,16.666,720,394.5,216,8,-1,30,15,25,35,TRUE
null,null,psychophysics,441,726654,0.0-3.0-1.215,,key,null,16.666,720,394.5,,,,,,,,
718.5,arrowright,psychophysics,442,727376,0.0-3.0-0.216,,key,arrowright,16.67795238,720,394.5,217,8,-1,24,15,25,35,FALSE
null,null,psychophysics,443,728382,0.0-3.0-1.216,,key,null,16.666,720,394.5,,,,,,,,
647.5,arrowleft,psychophysics,444,729032,0.0-3.0-0.217,,key,arrowleft,16.666,720,394.5,218,8,-1,25,15,25,35,TRUE
null,null,psychophysics,445,730035,0.0-3.0-1.217,,key,null,16.666,720,394.5,,,,,,,,
790.1,arrowright,psychophysics,446,730829,0.0-3.0-0.218,,key,arrowright,16.666,720,394.5,219,8,-1,24,15,25,35,FALSE
null,null,psychophysics,447,731831,0.0-3.0-1.218,,key,null,16.666,720,394.5,,,,,,,,
991.1,arrowleft,psychophysics,448,732825,0.0-3.0-0.219,,key,arrowleft,16.666,720,394.5,220,8,1,25,35,25,35,FALSE
null,null,psychophysics,449,733827,0.0-3.0-1.219,,key,null,16.666,720,394.5,,,,,,,,
770.6,arrowright,psychophysics,450,734600,0.0-3.0-0.220,,key,arrowright,16.666,720,394.5,221,8,1,24,15,25,35,TRUE
null,null,psychophysics,451,735602,0.0-3.0-1.220,,key,null,16.666,720,394.5,,,,,,,,
688.3,arrowright,psychophysics,452,736295,0.0-3.0-0.221,,key,arrowright,16.666,720,394.5,222,8,-1,20,35,25,35,FALSE
null,null,psychophysics,453,737299,0.0-3.0-1.221,,key,null,16.666,720,394.5,,,,,,,,
2297.5,arrowleft,psychophysics,454,739600,0.0-3.0-0.222,,key,arrowleft,16.666,720,394.5,223,8,1,20,15,25,35,FALSE
null,null,psychophysics,455,740604,0.0-3.0-1.222,,key,null,16.666,720,394.5,,,,,,,,
553.2,arrowright,psychophysics,456,741162,0.0-3.0-0.223,,key,arrowright,16.666,720,394.5,224,9,1,30,15,25,35,TRUE
null,null,psychophysics,457,742165,0.0-3.0-1.223,,key,null,16.666,720,394.5,,,,,,,,
41480,arrowright,html-keyboard-response,458,783647,0.0-3.0-2.223-0.223,"<div style=""color: white; text-align: center; vertical-align: top; display: inline-block; width: 800px; margin: auto""><p>You have completed 80% of the trials. You are on block 9 of 10. <br>Good job! Take a break if you need to.</p><p>Press any key to continue the experiment.</p></div>",,,,,,,,,,,,,
2064.7,arrowleft,psychophysics,459,786718,0.0-3.0-0.224,,key,arrowleft,16.666,720,394.5,225,9,-1,23,15,25,35,TRUE
null,null,psychophysics,460,787720,0.0-3.0-1.224,,key,null,16.666,720,394.5,,,,,,,,
653.2,arrowleft,psychophysics,461,788378,0.0-3.0-0.225,,key,arrowleft,16.666,720,394.5,226,9,-1,30,15,25,35,TRUE
null,null,psychophysics,462,789381,0.0-3.0-1.225,,key,null,16.666,720,394.5,,,,,,,,
589.7,arrowright,psychophysics,463,789975,0.0-3.0-0.226,,key,arrowright,16.666,720,394.5,227,9,-1,23,35,25,35,FALSE
null,null,psychophysics,464,790976,0.0-3.0-1.226,,key,null,16.666,720,394.5,,,,,,,,
1095.7,arrowright,psychophysics,465,792075,0.0-3.0-0.227,,key,arrowright,16.666,720,394.5,228,9,-1,23,35,25,35,FALSE
null,null,psychophysics,466,793080,0.0-3.0-1.227,,key,null,16.666,720,394.5,,,,,,,,
544.7,arrowleft,psychophysics,467,793628,0.0-3.0-0.228,,key,arrowleft,16.666,720,394.5,229,9,-1,27,15,25,35,TRUE
null,null,psychophysics,468,794629,0.0-3.0-1.228,,key,null,16.666,720,394.5,,,,,,,,
661.4,arrowleft,psychophysics,469,795294,0.0-3.0-0.229,,key,arrowleft,16.666,720,394.5,230,9,-1,26,15,25,35,TRUE
null,null,psychophysics,470,796299,0.0-3.0-1.229,,key,null,16.666,720,394.5,,,,,,,,
608.9,arrowleft,psychophysics,471,796911,0.0-3.0-0.230,,key,arrowleft,16.666,720,394.5,231,9,-1,25,15,25,35,TRUE
null,null,psychophysics,472,797913,0.0-3.0-1.230,,key,null,16.666,720,394.5,,,,,,,,
828.5,arrowright,psychophysics,473,798744,0.0-3.0-0.231,,key,arrowright,16.666,720,394.5,232,9,-1,23,35,25,35,FALSE
null,null,psychophysics,474,799746,0.0-3.0-1.231,,key,null,16.666,720,394.5,,,,,,,,
862,arrowleft,psychophysics,475,800611,0.0-3.0-0.232,,key,arrowleft,16.666,720,394.5,233,9,-1,20,15,25,35,TRUE
null,null,psychophysics,476,801618,0.0-3.0-1.232,,key,null,16.666,720,394.5,,,,,,,,
967.3,arrowright,psychophysics,477,802591,0.0-3.0-0.233,,key,arrowright,16.666,720,394.5,234,9,-1,24,35,25,35,FALSE
null,null,psychophysics,478,803593,0.0-3.0-1.233,,key,null,16.666,720,394.5,,,,,,,,
746.1,arrowright,psychophysics,479,804342,0.0-3.0-0.234,,key,arrowright,16.69184091,720,394.5,235,9,1,23,15,25,35,TRUE
null,null,psychophysics,480,805343,0.0-3.0-1.234,,key,null,16.666,720,394.5,,,,,,,,
598.7,arrowright,psychophysics,481,805945,0.0-3.0-0.235,,key,arrowright,16.666,720,394.5,236,9,1,24,15,25,35,TRUE
null,null,psychophysics,482,806951,0.0-3.0-1.235,,key,null,16.666,720,394.5,,,,,,,,
630.4,arrowleft,psychophysics,483,807585,0.0-3.0-0.236,,key,arrowleft,16.666,720,394.5,237,9,-1,26,35,25,35,TRUE
null,null,psychophysics,484,808587,0.0-3.0-1.236,,key,null,16.666,720,394.5,,,,,,,,
533,arrowright,psychophysics,485,809124,0.0-3.0-0.237,,key,arrowright,16.666,720,394.5,238,9,1,24,35,25,35,TRUE
null,null,psychophysics,486,810125,0.0-3.0-1.237,,key,null,16.666,720,394.5,,,,,,,,
483.9,arrowright,psychophysics,487,810612,0.0-3.0-0.238,,key,arrowright,16.666,720,394.5,239,9,1,30,35,25,35,TRUE
null,null,psychophysics,488,811614,0.0-3.0-1.238,,key,null,16.666,720,394.5,,,,,,,,
507.4,arrowleft,psychophysics,489,812125,0.0-3.0-0.239,,key,arrowleft,16.666,720,394.5,240,9,-1,30,15,25,35,TRUE
null,null,psychophysics,490,813127,0.0-3.0-1.239,,key,null,16.666,720,394.5,,,,,,,,
672.4,arrowright,psychophysics,491,813802,0.0-3.0-0.240,,key,arrowright,16.666,720,394.5,241,9,-1,24,15,25,35,FALSE
null,null,psychophysics,492,814804,0.0-3.0-1.240,,key,null,16.666,720,394.5,,,,,,,,
517.2,arrowleft,psychophysics,493,815325,0.0-3.0-0.241,,key,arrowleft,16.666,720,394.5,242,9,1,23,35,25,35,FALSE
null,null,psychophysics,494,816327,0.0-3.0-1.241,,key,null,16.666,720,394.5,,,,,,,,
547.8,arrowleft,psychophysics,495,816878,0.0-3.0-0.242,,key,arrowleft,16.666,720,394.5,243,9,-1,30,35,25,35,TRUE
null,null,psychophysics,496,817880,0.0-3.0-1.242,,key,null,16.666,720,394.5,,,,,,,,
631.8,arrowright,psychophysics,497,818515,0.0-3.0-0.243,,key,arrowright,16.666,720,394.5,244,9,1,24,35,25,35,TRUE
null,null,psychophysics,498,819518,0.0-3.0-1.243,,key,null,16.666,720,394.5,,,,,,,,
612.4,arrowright,psychophysics,499,820134,0.0-3.0-0.244,,key,arrowright,16.666,720,394.5,245,9,1,27,35,25,35,TRUE
null,null,psychophysics,500,821136,0.0-3.0-1.244,,key,null,16.666,720,394.5,,,,,,,,
727.8,arrowleft,psychophysics,501,821868,0.0-3.0-0.245,,key,arrowleft,16.666,720,394.5,246,9,-1,25,15,25,35,TRUE
null,null,psychophysics,502,822870,0.0-3.0-1.245,,key,null,16.666,720,394.5,,,,,,,,
555.8,arrowleft,psychophysics,503,823430,0.0-3.0-0.246,,key,arrowleft,16.666,720,394.5,247,9,-1,30,15,25,35,TRUE
null,null,psychophysics,504,824435,0.0-3.0-1.246,,key,null,16.67513559,720,394.5,,,,,,,,
737.2,arrowright,psychophysics,505,825175,0.0-3.0-0.247,,key,arrowright,16.666,720,394.5,248,9,-1,25,35,25,35,FALSE
null,null,psychophysics,506,826176,0.0-3.0-1.247,,key,null,16.666,720,394.5,,,,,,,,
599,arrowright,psychophysics,507,826779,0.0-3.0-0.248,,key,arrowright,16.666,720,394.5,249,9,1,25,15,25,35,TRUE
null,null,psychophysics,508,827786,0.0-3.0-1.248,,key,null,16.666,720,394.5,,,,,,,,
556.6,arrowleft,psychophysics,509,828346,0.0-3.0-0.249,,key,arrowleft,16.666,720,394.5,250,9,-1,26,15,25,35,TRUE
null,null,psychophysics,510,829353,0.0-3.0-1.249,,key,null,16.666,720,394.5,,,,,,,,
613.3,arrowleft,psychophysics,511,829970,0.0-3.0-0.250,,key,arrowleft,16.666,720,394.5,251,9,-1,30,15,25,35,TRUE
null,null,psychophysics,512,830971,0.0-3.0-1.250,,key,null,16.666,720,394.5,,,,,,,,
571.3,arrowright,psychophysics,513,831546,0.0-3.0-0.251,,key,arrowright,16.666,720,394.5,252,10,1,30,35,25,35,TRUE
null,null,psychophysics,514,832553,0.0-3.0-1.251,,key,null,16.666,720,394.5,,,,,,,,
1667.1,arrowright,html-keyboard-response,515,834221,0.0-3.0-2.251-0.251,"<div style=""color: white; text-align: center; vertical-align: top; display: inline-block; width: 800px; margin: auto""><p>You have completed 90% of the trials. You are on block 10 of 10. <br>Good job! Take a break if you need to.</p><p>Press any key to continue the experiment.</p></div>",,,,,,,,,,,,,
1833.2,arrowright,psychophysics,516,837065,0.0-3.0-0.252,,key,arrowright,16.666,720,394.5,253,10,1,23,15,25,35,TRUE
null,null,psychophysics,517,838069,0.0-3.0-1.252,,key,null,16.666,720,394.5,,,,,,,,
728.6,arrowleft,psychophysics,518,838804,0.0-3.0-0.253,,key,arrowleft,16.666,720,394.5,254,10,-1,27,15,25,35,TRUE
null,null,psychophysics,519,839806,0.0-3.0-1.253,,key,null,16.666,720,394.5,,,,,,,,
1177.4,arrowright,psychophysics,520,840987,0.0-3.0-0.254,,key,arrowright,16.666,720,394.5,255,10,-1,20,15,25,35,FALSE
null,null,psychophysics,521,841993,0.0-3.0-1.254,,key,null,16.666,720,394.5,,,,,,,,
804.2,arrowright,psychophysics,522,842801,0.0-3.0-0.255,,key,arrowright,16.666,720,394.5,256,10,-1,24,35,25,35,FALSE
null,null,psychophysics,523,843803,0.0-3.0-1.255,,key,null,16.666,720,394.5,,,,,,,,
652.8,arrowright,psychophysics,524,844460,0.0-3.0-0.256,,key,arrowright,16.666,720,394.5,257,10,-1,23,35,25,35,FALSE
null,null,psychophysics,525,845463,0.0-3.0-1.256,,key,null,16.666,720,394.5,,,,,,,,
570.1,arrowright,psychophysics,526,846037,0.0-3.0-0.257,,key,arrowright,16.666,720,394.5,258,10,1,30,35,25,35,TRUE
null,null,psychophysics,527,847039,0.0-3.0-1.257,,key,null,16.666,720,394.5,,,,,,,,
567.7,arrowleft,psychophysics,528,847610,0.0-3.0-0.258,,key,arrowleft,16.666,720,394.5,259,10,-1,23,15,25,35,TRUE
null,null,psychophysics,529,848612,0.0-3.0-1.258,,key,null,16.666,720,394.5,,,,,,,,
612.1,arrowright,psychophysics,530,849228,0.0-3.0-0.259,,key,arrowright,16.666,720,394.5,260,10,-1,20,35,25,35,FALSE
null,null,psychophysics,531,850231,0.0-3.0-1.259,,key,null,16.666,720,394.5,,,,,,,,
815.6,arrowright,psychophysics,532,851050,0.0-3.0-0.260,,key,arrowright,16.666,720,394.5,261,10,1,24,35,25,35,TRUE
null,null,psychophysics,533,852052,0.0-3.0-1.260,,key,null,16.666,720,394.5,,,,,,,,
617.4,arrowright,psychophysics,534,852676,0.0-3.0-0.261,,key,arrowright,16.666,720,394.5,262,10,-1,25,35,25,35,FALSE
null,null,psychophysics,535,853678,0.0-3.0-1.261,,key,null,16.666,720,394.5,,,,,,,,
528.5,arrowright,psychophysics,536,854210,0.0-3.0-0.262,,key,arrowright,16.666,720,394.5,263,10,-1,20,35,25,35,FALSE
null,null,psychophysics,537,855214,0.0-3.0-1.262,,key,null,16.55083333,720,394.5,,,,,,,,
582.2,arrowleft,psychophysics,538,855800,0.0-3.0-0.263,,key,arrowleft,16.666,720,394.5,264,10,1,24,35,25,35,FALSE
null,null,psychophysics,539,856803,0.0-3.0-1.263,,key,null,16.666,720,394.5,,,,,,,,
562.4,arrowright,psychophysics,540,857369,0.0-3.0-0.264,,key,arrowright,16.666,720,394.5,265,10,1,30,15,25,35,TRUE
null,null,psychophysics,541,858370,0.0-3.0-1.264,,key,null,16.666,720,394.5,,,,,,,,
618.4,arrowright,psychophysics,542,858991,0.0-3.0-0.265,,key,arrowright,16.666,720,394.5,266,10,1,23,15,25,35,TRUE
null,null,psychophysics,543,859995,0.0-3.0-1.265,,key,null,16.666,720,394.5,,,,,,,,
1155.5,arrowright,psychophysics,544,861154,0.0-3.0-0.266,,key,arrowright,16.666,720,394.5,267,10,1,30,35,25,35,TRUE
null,null,psychophysics,545,862158,0.0-3.0-1.266,,key,null,16.666,720,394.5,,,,,,,,
626.9,arrowright,psychophysics,546,862788,0.0-3.0-0.267,,key,arrowright,16.666,720,394.5,268,10,1,26,15,25,35,TRUE
null,null,psychophysics,547,863790,0.0-3.0-1.267,,key,null,16.666,720,394.5,,,,,,,,
862.4,arrowleft,psychophysics,548,864656,0.0-3.0-0.268,,key,arrowleft,16.666,720,394.5,269,10,-1,26,35,25,35,TRUE
null,null,psychophysics,549,865661,0.0-3.0-1.268,,key,null,16.666,720,394.5,,,,,,,,
673.3,arrowleft,psychophysics,550,866338,0.0-3.0-0.269,,key,arrowleft,16.666,720,394.5,270,10,-1,26,15,25,35,TRUE
null,null,psychophysics,551,867341,0.0-3.0-1.269,,key,null,16.666,720,394.5,,,,,,,,
942.4,arrowright,psychophysics,552,868288,0.0-3.0-0.270,,key,arrowright,16.666,720,394.5,271,10,1,27,35,25,35,TRUE
null,null,psychophysics,553,869295,0.0-3.0-1.270,,key,null,16.666,720,394.5,,,,,,,,
981.5,arrowleft,psychophysics,554,870280,0.0-3.0-0.271,,key,arrowleft,16.666,720,394.5,272,10,1,20,15,25,35,FALSE
null,null,psychophysics,555,871281,0.0-3.0-1.271,,key,null,16.666,720,394.5,,,,,,,,
752.6,arrowleft,psychophysics,556,872038,0.0-3.0-0.272,,key,arrowleft,16.666,720,394.5,273,10,1,20,35,25,35,FALSE
null,null,psychophysics,557,873044,0.0-3.0-1.272,,key,null,16.666,720,394.5,,,,,,,,
1010,arrowright,psychophysics,558,874057,0.0-3.0-0.273,,key,arrowright,16.666,720,394.5,274,10,1,23,35,25,35,TRUE
null,null,psychophysics,559,875061,0.0-3.0-1.273,,key,null,16.67637288,720,394.5,,,,,,,,
596.9,arrowright,psychophysics,560,875661,0.0-3.0-0.274,,key,arrowright,16.666,720,394.5,275,10,1,30,35,25,35,TRUE
null,null,psychophysics,561,876663,0.0-3.0-1.274,,key,null,16.666,720,394.5,,,,,,,,
739.8,arrowright,psychophysics,562,877407,0.0-3.0-0.275,,key,arrowright,16.666,720,394.5,276,10,1,23,15,25,35,TRUE
null,null,psychophysics,563,878411,0.0-3.0-1.275,,key,null,16.666,720,394.5,,,,,,,,
773.3,arrowleft,psychophysics,564,879188,0.0-3.0-0.276,,key,arrowleft,16.666,720,394.5,277,10,-1,26,35,25,35,TRUE
null,null,psychophysics,565,880191,0.0-3.0-1.276,,key,null,16.666,720,394.5,,,,,,,,
660.2,arrowleft,psychophysics,566,880855,0.0-3.0-0.277,,key,arrowleft,16.666,720,394.5,278,10,-1,30,35,25,35,TRUE
null,null,psychophysics,567,881858,0.0-3.0-1.277,,key,null,16.666,720,394.5,,,,,,,,
626.3,arrowleft,psychophysics,568,882488,0.0-3.0-0.278,,key,arrowleft,16.666,720,394.5,279,10,-1,30,15,25,35,TRUE
null,null,psychophysics,569,883490,0.0-3.0-1.278,,key,null,16.666,720,394.5,,,,,,,,
718.2,arrowright,psychophysics,570,884212,0.0-3.0-0.279,,key,arrowright,16.666,720,394.5,280,11,1,23,15,25,35,TRUE
null,null,psychophysics,571,885213,0.0-3.0-1.279,,key,null,16.666,720,394.5,,,,,,,,