rt,response,trial_type,trial_index,time_elapsed,internal_node_id,stimulus,response_type,key_press,avg_frame_time,center_x,center_y,trial,block,test_pos,test_inner_radius,test_outer_radius,ref_inner_radius,ref_outer_radius,test_bigger
78414,"{""p_id"":""1966"",""age"":""19"",""handedness"":""right"",""sex"":""male"",""other_sex"":""""}",survey-html-form,0,78417,0.0-0.0,,,,,,,,,,,,,,
16881, ,html-keyboard-response,1,95302,0.0-1.0,"<p style=""color: white"">Welcome to the Size Judgment Experiment. <br>There will be 10 blocks in this experiment. <br>There will be 28 trials in each block. <br>You will be given a chance to take a break between blocks. <br>Press any key to start the experiment.</p>",,,,,,,,,,,,,
21590, ,psychophysics,2,116899,0.0-2.0,,key, ,15.38346401,565,534.5,,,,,,,,
5317,arrowleft,psychophysics,3,122213,0.0-3.0-0.0,,key,arrowleft,16.66666667,565,534.5,1,1,-1,27,35,25,35,TRUE
null,null,psychophysics,4,123215,0.0-3.0-1.0,,key,null,16.66101695,565,534.5,,,,,,,,
3978,arrowleft,psychophysics,5,127193,0.0-3.0-0.1,,key,arrowleft,16.6512605,565,534.5,2,1,-1,24,15,25,35,TRUE
null,null,psychophysics,6,128197,0.0-3.0-1.1,,key,null,16.63333333,565,534.5,,,,,,,,
3333,arrowleft,psychophysics,7,131531,0.0-3.0-0.2,,key,arrowleft,16.66834171,565,534.5,3,1,1,20,35,25,35,FALSE
null,null,psychophysics,8,132534,0.0-3.0-1.2,,key,null,16.66101695,565,534.5,,,,,,,,
3471,arrowright,psychophysics,9,136008,0.0-3.0-0.3,,key,arrowright,16.66826923,565,534.5,4,1,-1,23,15,25,35,FALSE
null,null,psychophysics,10,137010,0.0-3.0-1.3,,key,null,16.6779661,565,534.5,,,,,,,,
2323,arrowright,psychophysics,11,139335,0.0-3.0-0.4,,key,arrowright,16.66666667,565,534.5,5,1,1,24,35,25,35,TRUE
null,null,psychophysics,12,140339,0.0-3.0-1.4,,key,null,16.65,565,534.5,,,,,,,,
2433,arrowright,psychophysics,13,142774,0.0-3.0-0.5,,key,arrowright,16.66896552,565,534.5,6,1,1,24,35,25,35,TRUE
null,null,psychophysics,14,143776,0.0-3.0-1.5,,key,null,16.6779661,565,534.5,,,,,,,,
1157,arrowleft,psychophysics,15,144938,0.0-3.0-0.6,,key,arrowleft,16.66666667,565,534.5,7,1,1,23,35,25,35,FALSE
null,null,psychophysics,16,145941,0.0-3.0-1.6,,key,null,16.66101695,565,534.5,,,,,,,,
1377,arrowleft,psychophysics,17,147323,0.0-3.0-0.7,,key,arrowleft,16.67073171,565,534.5,8,1,-1,30,35,25,35,TRUE
null,null,psychophysics,18,148326,0.0-3.0-1.7,,key,null,16.6779661,565,534.5,,,,,,,,
12397,arrowleft,psychophysics,19,160726,0.0-3.0-0.8,,key,arrowleft,16.66621803,565,534.5,9,1,1,27,15,25,35,FALSE
null,null,psychophysics,20,161729,0.0-3.0-1.8,,key,null,16.66101695,565,534.5,,,,,,,,
3942,arrowright,psychophysics,21,165677,0.0-3.0-0.9,,key,arrowright,16.66101695,565,534.5,10,1,-1,26,35,25,35,FALSE
null,null,psychophysics,22,166682,0.0-3.0-1.9,,key,null,16.6779661,565,534.5,,,,,,,,
7364,arrowright,psychophysics,23,174050,0.0-3.0-0.10,,key,arrowright,16.6561086,565,534.5,11,1,1,23,35,25,35,TRUE
null,null,psychophysics,24,175052,0.0-3.0-1.10,,key,null,16.6779661,565,534.5,,,,,,,,
2365,arrowright,psychophysics,25,177421,0.0-3.0-0.11,,key,arrowright,16.67375887,565,534.5,12,1,-1,24,15,25,35,FALSE
null,null,psychophysics,26,178424,0.0-3.0-1.11,,key,null,16.6779661,565,534.5,,,,,,,,
1509,arrowright,psychophysics,27,179939,0.0-3.0-0.12,,key,arrowright,16.66666667,565,534.5,13,1,-1,27,15,25,35,FALSE
null,null,psychophysics,28,180944,0.0-3.0-1.12,,key,null,16.66101695,565,534.5,,,,,,,,
1288,arrowleft,psychophysics,29,182236,0.0-3.0-0.13,,key,arrowleft,16.66233766,565,534.5,14,1,1,25,15,25,35,FALSE
null,null,psychophysics,30,183239,0.0-3.0-1.13,,key,null,16.66101695,565,534.5,,,,,,,,
1085,arrowright,psychophysics,31,184328,0.0-3.0-0.14,,key,arrowright,16.671875,565,534.5,15,1,1,27,35,25,35,TRUE
null,null,psychophysics,32,185333,0.0-3.0-1.14,,key,null,16.65,565,534.5,,,,,,,,
2118,arrowleft,psychophysics,33,187455,0.0-3.0-0.15,,key,arrowleft,16.66666667,565,534.5,16,1,-1,25,35,25,35,TRUE
null,null,psychophysics,34,188459,0.0-3.0-1.15,,key,null,16.66101695,565,534.5,,,,,,,,
1059,arrowright,psychophysics,35,189525,0.0-3.0-0.16,,key,arrowright,16.65079365,565,534.5,17,1,1,27,15,25,35,TRUE
null,null,psychophysics,36,190529,0.0-3.0-1.16,,key,null,16.6779661,565,534.5,,,,,,,,
1918,arrowright,psychophysics,37,192451,0.0-3.0-0.17,,key,arrowright,16.64347826,565,534.5,18,1,-1,20,15,25,35,FALSE
null,null,psychophysics,38,193454,0.0-3.0-1.17,,key,null,16.66101695,565,534.5,,,,,,,,
1558,arrowleft,psychophysics,39,195017,0.0-3.0-0.18,,key,arrowleft,16.67741935,565,534.5,19,1,-1,23,35,25,35,TRUE
null,null,psychophysics,40,196019,0.0-3.0-1.18,,key,null,16.6779661,565,534.5,,,,,,,,
1247,arrowright,psychophysics,41,197269,0.0-3.0-0.19,,key,arrowright,16.67567568,565,534.5,20,1,1,25,35,25,35,TRUE
null,null,psychophysics,42,198272,0.0-3.0-1.19,,key,null,16.6440678,565,534.5,,,,,,,,
1261,arrowright,psychophysics,43,199538,0.0-3.0-0.20,,key,arrowright,16.66666667,565,534.5,21,1,-1,23,15,25,35,FALSE
null,null,psychophysics,44,200541,0.0-3.0-1.20,,key,null,16.6779661,565,534.5,,,,,,,,
1758,arrowleft,psychophysics,45,202303,0.0-3.0-0.21,,key,arrowleft,16.66666667,565,534.5,22,1,1,26,15,25,35,FALSE
null,null,psychophysics,46,203306,0.0-3.0-1.21,,key,null,16.66101695,565,534.5,,,,,,,,
1559,arrowleft,psychophysics,47,204869,0.0-3.0-0.22,,key,arrowleft,16.65591398,565,534.5,23,1,1,30,15,25,35,FALSE
null,null,psychophysics,48,205872,0.0-3.0-1.22,,key,null,16.6779661,565,534.5,,,,,,,,
1378,arrowright,psychophysics,49,207255,0.0-3.0-0.23,,key,arrowright,16.67073171,565,534.5,24,1,-1,20,35,25,35,FALSE
null,null,psychophysics,50,208258,0.0-3.0-1.23,,key,null,16.66101695,565,534.5,,,,,,,,
3358,arrowright,psychophysics,51,211620,0.0-3.0-0.24,,key,arrowright,16.67164179,565,534.5,25,1,-1,23,15,25,35,FALSE
null,null,psychophysics,52,212626,0.0-3.0-1.24,,key,null,16.6779661,565,534.5,,,,,,,,
27186,arrowright,psychophysics,53,239817,0.0-3.0-0.25,,key,arrowright,16.66646229,565,534.5,26,1,1,25,35,25,35,TRUE
null,null,psychophysics,54,240820,0.0-3.0-1.25,,key,null,16.6779661,565,534.5,,,,,,,,
1460,arrowright,psychophysics,55,242285,0.0-3.0-0.26,,key,arrowright,16.66666667,565,534.5,27,1,-1,26,35,25,35,FALSE
null,null,psychophysics,56,243288,0.0-3.0-1.26,,key,null,16.66101695,565,534.5,,,,,,,,
1649,arrowleft,psychophysics,57,244942,0.0-3.0-0.27,,key,arrowleft,16.66326531,565,534.5,28,2,1,24,35,25,35,FALSE
null,null,psychophysics,58,245946,0.0-3.0-1.27,,key,null,16.66101695,565,534.5,,,,,,,,
111000, ,html-keyboard-response,59,356947,0.0-3.0-2.27-0.27,"<div style=""color: white; text-align: center; vertical-align: top; display: inline-block; width: 800px; margin: auto""><p>You have completed 10% of the trials. You are on block 2 of 10. <br>Good job! Take a break if you need to.</p><p>Press any key to continue the experiment.</p></div>",,,,,,,,,,,,,
2728,arrowleft,psychophysics,60,360682,0.0-3.0-0.28,,key,arrowleft,16.66871166,565,534.5,29,2,-1,27,35,25,35,TRUE
null,null,psychophysics,61,361685,0.0-3.0-1.28,,key,null,16.6779661,565,534.5,,,,,,,,
1264,arrowright,psychophysics,62,362953,0.0-3.0-0.29,,key,arrowright,16.66666667,565,534.5,30,2,1,26,35,25,35,TRUE
null,null,psychophysics,63,363957,0.0-3.0-1.29,,key,null,16.66101695,565,534.5,,,,,,,,
1805,arrowleft,psychophysics,64,365768,0.0-3.0-0.30,,key,arrowleft,16.66666667,565,534.5,31,2,-1,27,15,25,35,TRUE
null,null,psychophysics,65,366771,0.0-3.0-1.30,,key,null,16.66101695,565,534.5,,,,,,,,
1286,arrowright,psychophysics,66,368060,0.0-3.0-0.31,,key,arrowright,16.65789474,565,534.5,32,2,-1,20,35,25,35,FALSE
null,null,psychophysics,67,369065,0.0-3.0-1.31,,key,null,16.65,565,534.5,,,,,,,,
2166,arrowleft,psychophysics,68,371234,0.0-3.0-0.32,,key,arrowleft,16.6744186,565,534.5,33,2,-1,25,15,25,35,TRUE
null,null,psychophysics,69,372237,0.0-3.0-1.32,,key,null,16.6779661,565,534.5,,,,,,,,
2276,arrowright,psychophysics,70,374518,0.0-3.0-0.33,,key,arrowright,16.67647059,565,534.5,34,2,-1,23,15,25,35,FALSE
null,null,psychophysics,71,375520,0.0-3.0-1.33,,key,null,16.6779661,565,534.5,,,,,,,,
1785,arrowright,psychophysics,72,377309,0.0-3.0-0.34,,key,arrowright,16.66981132,565,534.5,35,2,1,25,15,25,35,TRUE
null,null,psychophysics,73,378312,0.0-3.0-1.34,,key,null,16.66101695,565,534.5,,,,,,,,
1649,arrowleft,psychophysics,74,379965,0.0-3.0-0.35,,key,arrowleft,16.63636364,565,534.5,36,2,1,23,35,25,35,FALSE
null,null,psychophysics,75,380966,0.0-3.0-1.35,,key,null,16.6779661,565,534.5,,,,,,,,
1381,arrowright,psychophysics,76,382350,0.0-3.0-0.36,,key,arrowright,16.67073171,565,534.5,37,2,1,30,15,25,35,TRUE
null,null,psychophysics,77,383353,0.0-3.0-1.36,,key,null,16.66101695,565,534.5,,,,,,,,
1625,arrowright,psychophysics,78,384982,0.0-3.0-0.37,,key,arrowright,16.67010309,565,534.5,38,2,-1,20,15,25,35,FALSE
null,null,psychophysics,79,385984,0.0-3.0-1.37,,key,null,16.6779661,565,534.5,,,,,,,,
2841,arrowright,psychophysics,80,388827,0.0-3.0-0.38,,key,arrowright,16.66863905,565,534.5,39,2,1,26,35,25,35,TRUE
null,null,psychophysics,81,389831,0.0-3.0-1.38,,key,null,16.65,565,534.5,,,,,,,,
1152,arrowleft,psychophysics,82,390985,0.0-3.0-0.39,,key,arrowleft,16.67647059,565,534.5,40,2,1,20,15,25,35,FALSE
null,null,psychophysics,83,391987,0.0-3.0-1.39,,key,null,16.6779661,565,534.5,,,,,,,,
1273,arrowleft,psychophysics,84,393265,0.0-3.0-0.40,,key,arrowleft,16.67105263,565,534.5,41,2,-1,24,15,25,35,TRUE
null,null,psychophysics,85,394266,0.0-3.0-1.40,,key,null,16.6779661,565,534.5,,,,,,,,
1514,arrowleft,psychophysics,86,395783,0.0-3.0-0.41,,key,arrowleft,16.67777778,565,534.5,42,2,-1,27,15,25,35,TRUE
null,null,psychophysics,87,396786,0.0-3.0-1.41,,key,null,16.6779661,565,534.5,,,,,,,,
1195,arrowleft,psychophysics,88,397984,0.0-3.0-0.42,,key,arrowleft,16.67605634,565,534.5,43,2,1,20,15,25,35,FALSE
null,null,psychophysics,89,398987,0.0-3.0-1.42,,key,null,16.6779661,565,534.5,,,,,,,,
1289,arrowleft,psychophysics,90,400282,0.0-3.0-0.43,,key,arrowleft,16.67532468,565,534.5,44,2,-1,30,15,25,35,TRUE
null,null,psychophysics,91,401284,0.0-3.0-1.43,,key,null,16.6779661,565,534.5,,,,,,,,
1848,arrowleft,psychophysics,92,403136,0.0-3.0-0.44,,key,arrowleft,16.67272727,565,534.5,45,2,-1,26,15,25,35,TRUE
null,null,psychophysics,93,404140,0.0-3.0-1.44,,key,null,16.6779661,565,534.5,,,,,,,,
1624,arrowright,psychophysics,94,405769,0.0-3.0-0.45,,key,arrowright,16.67010309,565,534.5,46,2,-1,24,35,25,35,FALSE
null,null,psychophysics,95,406774,0.0-3.0-1.45,,key,null,16.66101695,565,534.5,,,,,,,,
1739,arrowleft,psychophysics,96,408516,0.0-3.0-0.46,,key,arrowleft,16.67307692,565,534.5,47,2,-1,27,35,25,35,TRUE
null,null,psychophysics,97,409519,0.0-3.0-1.46,,key,null,16.66101695,565,534.5,,,,,,,,
1465,arrowright,psychophysics,98,410988,0.0-3.0-0.47,,key,arrowright,16.66666667,565,534.5,48,2,-1,23,35,25,35,FALSE
null,null,psychophysics,99,411992,0.0-3.0-1.47,,key,null,16.6779661,565,534.5,,,,,,,,
3247,arrowright,psychophysics,100,415242,0.0-3.0-0.48,,key,arrowright,16.66494845,565,534.5,49,2,-1,24,35,25,35,FALSE
null,null,psychophysics,101,416245,0.0-3.0-1.48,,key,null,16.66101695,565,534.5,,,,,,,,
1008,arrowleft,psychophysics,102,417256,0.0-3.0-0.49,,key,arrowleft,16.6,565,534.5,50,2,1,20,15,25,35,FALSE
null,null,psychophysics,103,418259,0.0-3.0-1.49,,key,null,16.66101695,565,534.5,,,,,,,,
1659,arrowleft,psychophysics,104,419922,0.0-3.0-0.50,,key,arrowleft,16.65656566,565,534.5,51,2,-1,30,35,25,35,TRUE
null,null,psychophysics,105,420926,0.0-3.0-1.50,,key,null,16.6779661,565,534.5,,,,,,,,
837,arrowright,psychophysics,106,421768,0.0-3.0-0.51,,key,arrowright,16.6,565,534.5,52,2,1,30,15,25,35,TRUE
null,null,psychophysics,107,422772,0.0-3.0-1.51,,key,null,16.66101695,565,534.5,,,,,,,,
971,arrowleft,psychophysics,108,423748,0.0-3.0-0.52,,key,arrowleft,16.67241379,565,534.5,53,2,-1,30,35,25,35,TRUE
null,null,psychophysics,109,424750,0.0-3.0-1.52,,key,null,16.66101695,565,534.5,,,,,,,,
3362,arrowleft,psychophysics,110,428114,0.0-3.0-0.53,,key,arrowleft,16.66666667,565,534.5,54,2,1,24,35,25,35,FALSE
null,null,psychophysics,111,429116,0.0-3.0-1.53,,key,null,16.66101695,565,534.5,,,,,,,,
948,arrowright,psychophysics,112,430067,0.0-3.0-0.54,,key,arrowright,16.66071429,565,534.5,55,2,1,27,35,25,35,TRUE
null,null,psychophysics,113,431070,0.0-3.0-1.54,,key,null,16.6779661,565,534.5,,,,,,,,
1022,arrowleft,psychophysics,114,432096,0.0-3.0-0.55,,key,arrowleft,16.6557377,565,534.5,56,3,-1,30,35,25,35,TRUE
null,null,psychophysics,115,433098,0.0-3.0-1.55,,key,null,16.66101695,565,534.5,,,,,,,,
114268,arrowright,html-keyboard-response,116,547366,0.0-3.0-2.55-0.55,"<div style=""color: white; text-align: center; vertical-align: top; display: inline-block; width: 800px; margin: auto""><p>You have completed 20% of the trials. You are on block 3 of 10. <br>Good job! Take a break if you need to.</p><p>Press any key to continue the experiment.</p></div>",,,,,,,,,,,,,
1242,arrowright,psychophysics,117,549613,0.0-3.0-0.56,,key,arrowright,16.67567568,565,534.5,57,3,-1,23,35,25,35,FALSE
null,null,psychophysics,118,550615,0.0-3.0-1.56,,key,null,16.66101695,565,534.5,,,,,,,,
1179,arrowleft,psychophysics,119,551796,0.0-3.0-0.57,,key,arrowleft,16.65714286,565,534.5,58,3,-1,20,15,25,35,TRUE
null,null,psychophysics,120,552798,0.0-3.0-1.57,,key,null,16.66101695,565,534.5,,,,,,,,
1153,arrowright,psychophysics,121,553954,0.0-3.0-0.58,,key,arrowright,16.66176471,565,534.5,59,3,1,23,35,25,35,TRUE
null,null,psychophysics,122,554958,0.0-3.0-1.58,,key,null,16.6779661,565,534.5,,,,,,,,
791,arrowright,psychophysics,123,555753,0.0-3.0-0.59,,key,arrowright,16.61702128,565,534.5,60,3,1,30,35,25,35,TRUE
null,null,psychophysics,124,556758,0.0-3.0-1.59,,key,null,16.66101695,565,534.5,,,,,,,,
788,arrowleft,psychophysics,125,557552,0.0-3.0-0.60,,key,arrowleft,16.59574468,565,534.5,61,3,-1,26,15,25,35,TRUE
null,null,psychophysics,126,558555,0.0-3.0-1.60,,key,null,16.6779661,565,534.5,,,,,,,,
1131,arrowleft,psychophysics,127,559691,0.0-3.0-0.61,,key,arrowleft,16.67164179,565,534.5,62,3,1,23,15,25,35,FALSE
null,null,psychophysics,128,560694,0.0-3.0-1.61,,key,null,16.6779661,565,534.5,,,,,,,,
769,arrowleft,psychophysics,129,561466,0.0-3.0-0.62,,key,arrowleft,16.54347826,565,534.5,63,3,1,24,35,25,35,FALSE
null,null,psychophysics,130,562470,0.0-3.0-1.62,,key,null,16.66101695,565,534.5,,,,,,,,
708,arrowright,psychophysics,131,563182,0.0-3.0-0.63,,key,arrowright,16.66666667,565,534.5,64,3,1,26,15,25,35,TRUE
null,null,psychophysics,132,564185,0.0-3.0-1.63,,key,null,16.6779661,565,534.5,,,,,,,,
1350,arrowleft,psychophysics,133,565541,0.0-3.0-0.64,,key,arrowleft,16.675,565,534.5,65,3,-1,26,35,25,35,TRUE
null,null,psychophysics,134,566546,0.0-3.0-1.64,,key,null,16.65,565,534.5,,,,,,,,
4999,arrowleft,psychophysics,135,571548,0.0-3.0-0.65,,key,arrowleft,16.66555184,565,534.5,66,3,-1,30,15,25,35,TRUE
null,null,psychophysics,136,572550,0.0-3.0-1.65,,key,null,16.66101695,565,534.5,,,,,,,,
978,arrowleft,psychophysics,137,573531,0.0-3.0-0.66,,key,arrowleft,16.67241379,565,534.5,67,3,-1,30,35,25,35,TRUE
null,null,psychophysics,138,574534,0.0-3.0-1.66,,key,null,16.6779661,565,534.5,,,,,,,,
1084,arrowleft,psychophysics,139,575621,0.0-3.0-0.67,,key,arrowleft,16.671875,565,534.5,68,3,-1,25,35,25,35,TRUE
null,null,psychophysics,140,576625,0.0-3.0-1.67,,key,null,16.66101695,565,534.5,,,,,,,,
1018,arrowleft,psychophysics,141,577646,0.0-3.0-0.68,,key,arrowleft,16.63934426,565,534.5,69,3,-1,25,15,25,35,TRUE
null,null,psychophysics,142,578648,0.0-3.0-1.68,,key,null,16.6779661,565,534.5,,,,,,,,
1515,arrowleft,psychophysics,143,580165,0.0-3.0-0.69,,key,arrowleft,16.66666667,565,534.5,70,3,-1,27,35,25,35,TRUE
null,null,psychophysics,144,581168,0.0-3.0-1.69,,key,null,16.66101695,565,534.5,,,,,,,,
1379,arrowright,psychophysics,145,582551,0.0-3.0-0.70,,key,arrowright,16.65853659,565,534.5,71,3,1,26,35,25,35,TRUE
null,null,psychophysics,146,583557,0.0-3.0-1.70,,key,null,16.66101695,565,534.5,,,,,,,,
1401,arrowleft,psychophysics,147,584963,0.0-3.0-0.71,,key,arrowleft,16.64285714,565,534.5,72,3,1,23,35,25,35,FALSE
null,null,psychophysics,148,585965,0.0-3.0-1.71,,key,null,16.66101695,565,534.5,,,,,,,,
832,arrowright,psychophysics,149,586801,0.0-3.0-0.72,,key,arrowright,16.65306122,565,534.5,73,3,1,25,35,25,35,TRUE
null,null,psychophysics,150,587805,0.0-3.0-1.72,,key,null,16.66101695,565,534.5,,,,,,,,
1021,arrowright,psychophysics,151,588829,0.0-3.0-0.73,,key,arrowright,16.67213115,565,534.5,74,3,1,24,15,25,35,TRUE
null,null,psychophysics,152,589831,0.0-3.0-1.73,,key,null,16.6779661,565,534.5,,,,,,,,
815,arrowright,psychophysics,153,590649,0.0-3.0-0.74,,key,arrowright,16.66666667,565,534.5,75,3,1,27,35,25,35,TRUE
null,null,psychophysics,154,591653,0.0-3.0-1.74,,key,null,16.66101695,565,534.5,,,,,,,,
1511,arrowleft,psychophysics,155,593169,0.0-3.0-0.75,,key,arrowleft,16.66666667,565,534.5,76,3,-1,26,35,25,35,TRUE
null,null,psychophysics,156,594173,0.0-3.0-1.75,,key,null,16.66101695,565,534.5,,,,,,,,
1064,arrowright,psychophysics,157,595241,0.0-3.0-0.76,,key,arrowright,16.66666667,565,534.5,77,3,-1,20,15,25,35,FALSE
null,null,psychophysics,158,596246,0.0-3.0-1.76,,key,null,16.65,565,534.5,,,,,,,,
3470,arrowright,psychophysics,159,599718,0.0-3.0-0.77,,key,arrowright,16.66666667,565,534.5,78,3,-1,24,35,25,35,FALSE
null,null,psychophysics,160,600721,0.0-3.0-1.77,,key,null,16.6779661,565,534.5,,,,,,,,
1337,arrowleft,psychophysics,161,602063,0.0-3.0-0.78,,key,arrowleft,16.6625,565,534.5,79,3,-1,24,35,25,35,TRUE
null,null,psychophysics,162,603064,0.0-3.0-1.78,,key,null,16.66101695,565,534.5,,,,,,,,
1582,arrowright,psychophysics,163,604649,0.0-3.0-0.79,,key,arrowright,16.65957447,565,534.5,80,3,-1,20,35,25,35,FALSE
null,null,psychophysics,164,605651,0.0-3.0-1.79,,key,null,16.6779661,565,534.5,,,,,,,,
1111,arrowleft,psychophysics,165,606766,0.0-3.0-0.80,,key,arrowleft,16.66666667,565,534.5,81,3,-1,30,15,25,35,TRUE
null,null,psychophysics,166,607771,0.0-3.0-1.80,,key,null,16.66101695,565,534.5,,,,,,,,
1009,arrowleft,psychophysics,167,608786,0.0-3.0-0.81,,key,arrowleft,16.66666667,565,534.5,82,3,1,23,15,25,35,FALSE
null,null,psychophysics,168,609790,0.0-3.0-1.81,,key,null,16.6779661,565,534.5,,,,,,,,
789,arrowleft,psychophysics,169,610584,0.0-3.0-0.82,,key,arrowleft,16.61702128,565,534.5,83,3,-1,30,15,25,35,TRUE
null,null,psychophysics,170,611588,0.0-3.0-1.82,,key,null,16.6779661,565,534.5,,,,,,,,
815,arrowright,psychophysics,171,612408,0.0-3.0-0.83,,key,arrowright,16.66666667,565,534.5,84,4,-1,26,15,25,35,FALSE
null,null,psychophysics,172,613412,0.0-3.0-1.83,,key,null,16.63333333,565,534.5,,,,,,,,
28761, ,html-keyboard-response,173,642175,0.0-3.0-2.83-0.83,"<div style=""color: white; text-align: center; vertical-align: top; display: inline-block; width: 800px; margin: auto""><p>You have completed 30% of the trials. You are on block 4 of 10. <br>Good job! Take a break if you need to.</p><p>Press any key to continue the experiment.</p></div>",,,,,,,,,,,,,
7999,arrowright,psychophysics,174,651179,0.0-3.0-0.84,,key,arrowright,16.66597077,565,534.5,85,4,-1,25,35,25,35,FALSE
null,null,psychophysics,175,652181,0.0-3.0-1.84,,key,null,16.6779661,565,534.5,,,,,,,,
1761,arrowright,psychophysics,176,653945,0.0-3.0-0.85,,key,arrowright,16.66666667,565,534.5,86,4,-1,24,35,25,35,FALSE
null,null,psychophysics,177,654947,0.0-3.0-1.85,,key,null,16.66101695,565,534.5,,,,,,,,
1130,arrowleft,psychophysics,178,656080,0.0-3.0-0.86,,key,arrowleft,16.67164179,565,534.5,87,4,1,20,35,25,35,FALSE
null,null,psychophysics,179,657083,0.0-3.0-1.86,,key,null,16.6779661,565,534.5,,,,,,,,
2078,arrowleft,psychophysics,180,659165,0.0-3.0-0.87,,key,arrowleft,16.66935484,565,534.5,88,4,-1,26,15,25,35,TRUE
null,null,psychophysics,181,660168,0.0-3.0-1.87,,key,null,16.66101695,565,534.5,,,,,,,,
1508,arrowleft,psychophysics,182,661683,0.0-3.0-0.88,,key,arrowleft,16.66666667,565,534.5,89,4,1,20,15,25,35,FALSE
null,null,psychophysics,183,662687,0.0-3.0-1.88,,key,null,16.66101695,565,534.5,,,,,,,,
1221,arrowleft,psychophysics,184,663912,0.0-3.0-0.89,,key,arrowleft,16.67123288,565,534.5,90,4,-1,27,15,25,35,TRUE
null,null,psychophysics,185,664914,0.0-3.0-1.89,,key,null,16.66101695,565,534.5,,,,,,,,
1062,arrowleft,psychophysics,186,665981,0.0-3.0-0.90,,key,arrowleft,16.66666667,565,534.5,91,4,1,20,15,25,35,FALSE
null,null,psychophysics,187,666983,0.0-3.0-1.90,,key,null,16.6779661,565,534.5,,,,,,,,
2019,arrowright,psychophysics,188,669005,0.0-3.0-0.91,,key,arrowright,16.66666667,565,534.5,92,4,1,26,35,25,35,TRUE
null,null,psychophysics,189,670009,0.0-3.0-1.91,,key,null,16.66101695,565,534.5,,,,,,,,
4290,arrowright,psychophysics,190,674305,0.0-3.0-0.92,,key,arrowright,16.64980545,565,534.5,93,4,1,25,35,25,35,TRUE
null,null,psychophysics,191,675308,0.0-3.0-1.92,,key,null,16.66101695,565,534.5,,,,,,,,
2211,arrowleft,psychophysics,192,677522,0.0-3.0-0.93,,key,arrowleft,16.65151515,565,534.5,94,4,1,23,15,25,35,FALSE
null,null,psychophysics,193,678525,0.0-3.0-1.93,,key,null,16.66101695,565,534.5,,,,,,,,
4077,arrowright,psychophysics,194,682607,0.0-3.0-0.94,,key,arrowright,16.6557377,565,534.5,95,4,1,24,15,25,35,TRUE
null,null,psychophysics,195,683612,0.0-3.0-1.94,,key,null,16.61666667,565,534.5,,,,,,,,
1331,arrowleft,psychophysics,196,684947,0.0-3.0-0.95,,key,arrowleft,16.67088608,565,534.5,96,4,1,20,15,25,35,FALSE
null,null,psychophysics,197,685950,0.0-3.0-1.95,,key,null,16.6779661,565,534.5,,,,,,,,
3406,arrowright,psychophysics,198,689361,0.0-3.0-0.96,,key,arrowright,16.66666667,565,534.5,97,4,-1,25,35,25,35,FALSE
null,null,psychophysics,199,690363,0.0-3.0-1.96,,key,null,16.66101695,565,534.5,,,,,,,,
2183,arrowleft,psychophysics,200,692550,0.0-3.0-0.97,,key,arrowleft,16.66153846,565,534.5,98,4,1,23,35,25,35,FALSE
null,null,psychophysics,201,693553,0.0-3.0-1.97,,key,null,16.59322034,565,534.5,,,,,,,,
2167,arrowright,psychophysics,202,695724,0.0-3.0-0.98,,key,arrowright,16.66666667,565,534.5,99,4,1,26,35,25,35,TRUE
null,null,psychophysics,203,696728,0.0-3.0-1.98,,key,null,16.63333333,565,534.5,,,,,,,,
2146,arrowleft,psychophysics,204,698879,0.0-3.0-0.99,,key,arrowleft,16.671875,565,534.5,100,4,1,20,15,25,35,FALSE
null,null,psychophysics,205,699880,0.0-3.0-1.99,,key,null,16.66101695,565,534.5,,,,,,,,
2882,arrowleft,psychophysics,206,702767,0.0-3.0-0.100,,key,arrowleft,16.6627907,565,534.5,101,4,-1,27,35,25,35,TRUE
null,null,psychophysics,207,703771,0.0-3.0-1.100,,key,null,16.66101695,565,534.5,,,,,,,,
1155,arrowleft,psychophysics,208,704930,0.0-3.0-0.101,,key,arrowleft,16.66666667,565,534.5,102,4,1,20,35,25,35,FALSE
null,null,psychophysics,209,705932,0.0-3.0-1.101,,key,null,16.6779661,565,534.5,,,,,,,,
1082,arrowright,psychophysics,210,707019,0.0-3.0-0.102,,key,arrowright,16.671875,565,534.5,103,4,-1,24,35,25,35,FALSE
null,null,psychophysics,211,708024,0.0-3.0-1.102,,key,null,16.66101695,565,534.5,,,,,,,,
901,arrowleft,psychophysics,212,708930,0.0-3.0-0.103,,key,arrowleft,16.59259259,565,534.5,104,4,1,20,35,25,35,FALSE
null,null,psychophysics,213,709933,0.0-3.0-1.103,,key,null,16.6779661,565,534.5,,,,,,,,
893,arrowright,psychophysics,214,710832,0.0-3.0-0.104,,key,arrowright,16.67924528,565,534.5,105,4,1,26,15,25,35,TRUE
null,null,psychophysics,215,711835,0.0-3.0-1.104,,key,null,16.66101695,565,534.5,,,,,,,,
825,arrowleft,psychophysics,216,712664,0.0-3.0-0.105,,key,arrowleft,16.65306122,565,534.5,106,4,-1,30,35,25,35,TRUE
null,null,psychophysics,217,713667,0.0-3.0-1.105,,key,null,16.66101695,565,534.5,,,,,,,,
931,arrowright,psychophysics,218,714603,0.0-3.0-0.106,,key,arrowright,16.67272727,565,534.5,107,4,-1,23,35,25,35,FALSE
null,null,psychophysics,219,715606,0.0-3.0-1.106,,key,null,16.6779661,565,534.5,,,,,,,,
1632,arrowright,psychophysics,220,717243,0.0-3.0-0.107,,key,arrowright,16.63265306,565,534.5,108,4,-1,25,35,25,35,FALSE
null,null,psychophysics,221,718244,0.0-3.0-1.107,,key,null,16.66101695,565,534.5,,,,,,,,
1217,arrowright,psychophysics,222,719463,0.0-3.0-0.108,,key,arrowright,16.66666667,565,534.5,109,4,1,26,15,25,35,TRUE
null,null,psychophysics,223,720465,0.0-3.0-1.108,,key,null,16.66101695,565,534.5,,,,,,,,
1310,arrowleft,psychophysics,224,721780,0.0-3.0-0.109,,key,arrowleft,16.66666667,565,534.5,110,4,1,23,15,25,35,FALSE
null,null,psychophysics,225,722782,0.0-3.0-1.109,,key,null,16.6779661,565,534.5,,,,,,,,
950,arrowright,psychophysics,226,723735,0.0-3.0-0.110,,key,arrowright,16.66071429,565,534.5,111,4,-1,20,35,25,35,FALSE
null,null,psychophysics,227,724739,0.0-3.0-1.110,,key,null,16.6779661,565,534.5,,,,,,,,
4236,arrowright,psychophysics,228,728980,0.0-3.0-0.111,,key,arrowright,16.66141732,565,534.5,112,5,1,26,15,25,35,TRUE
null,null,psychophysics,229,729984,0.0-3.0-1.111,,key,null,16.6779661,565,534.5,,,,,,,,
57251, ,html-keyboard-response,230,787237,0.0-3.0-2.111-0.111,"<div style=""color: white; text-align: center; vertical-align: top; display: inline-block; width: 800px; margin: auto""><p>You have completed 40% of the trials. You are on block 5 of 10. <br>Good job! Take a break if you need to.</p><p>Press any key to continue the experiment.</p></div>",,,,,,,,,,,,,
1259,arrowleft,psychophysics,231,789504,0.0-3.0-0.112,,key,arrowleft,16.66216216,565,534.5,113,5,1,30,35,25,35,FALSE
null,null,psychophysics,232,790508,0.0-3.0-1.112,,key,null,16.6779661,565,534.5,,,,,,,,
994,arrowright,psychophysics,233,791506,0.0-3.0-0.113,,key,arrowright,16.59322034,565,534.5,114,5,1,30,15,25,35,TRUE
null,null,psychophysics,234,792510,0.0-3.0-1.113,,key,null,16.63333333,565,534.5,,,,,,,,
1219,arrowright,psychophysics,235,793732,0.0-3.0-0.114,,key,arrowright,16.66666667,565,534.5,115,5,1,24,15,25,35,TRUE
null,null,psychophysics,236,794735,0.0-3.0-1.114,,key,null,16.6779661,565,534.5,,,,,,,,
659,arrowleft,psychophysics,237,795398,0.0-3.0-0.115,,key,arrowleft,16.69230769,565,534.5,116,5,1,30,15,25,35,FALSE
null,null,psychophysics,238,796401,0.0-3.0-1.115,,key,null,16.6779661,565,534.5,,,,,,,,
992,arrowleft,psychophysics,239,797398,0.0-3.0-0.116,,key,arrowleft,16.6779661,565,534.5,117,5,-1,26,15,25,35,TRUE
null,null,psychophysics,240,798403,0.0-3.0-1.116,,key,null,16.69491525,565,534.5,,,,,,,,
7273,arrowleft,psychophysics,241,805679,0.0-3.0-0.117,,key,arrowleft,16.66972477,565,534.5,118,5,-1,26,35,25,35,TRUE
null,null,psychophysics,242,806681,0.0-3.0-1.117,,key,null,16.66101695,565,534.5,,,,,,,,
1158,arrowright,psychophysics,243,807843,0.0-3.0-0.118,,key,arrowright,16.66666667,565,534.5,119,5,1,27,15,25,35,TRUE
null,null,psychophysics,244,808845,0.0-3.0-1.118,,key,null,16.6779661,565,534.5,,,,,,,,
1041,arrowright,psychophysics,245,809889,0.0-3.0-0.119,,key,arrowright,16.67213115,565,534.5,120,5,1,25,15,25,35,TRUE
null,null,psychophysics,246,810894,0.0-3.0-1.119,,key,null,16.63333333,565,534.5,,,,,,,,
1216,arrowleft,psychophysics,247,812114,0.0-3.0-0.120,,key,arrowleft,16.66666667,565,534.5,121,5,1,20,35,25,35,FALSE
null,null,psychophysics,248,813117,0.0-3.0-1.120,,key,null,16.66101695,565,534.5,,,,,,,,
1378,arrowright,psychophysics,249,814499,0.0-3.0-0.121,,key,arrowright,16.67073171,565,534.5,122,5,1,24,35,25,35,TRUE
null,null,psychophysics,250,815503,0.0-3.0-1.121,,key,null,16.6779661,565,534.5,,,,,,,,
839,arrowright,psychophysics,251,816346,0.0-3.0-0.122,,key,arrowright,16.68,565,534.5,123,5,1,30,15,25,35,TRUE
null,null,psychophysics,252,817348,0.0-3.0-1.122,,key,null,16.6779661,565,534.5,,,,,,,,
1130,arrowright,psychophysics,253,818482,0.0-3.0-0.123,,key,arrowright,16.67164179,565,534.5,124,5,-1,23,35,25,35,FALSE
null,null,psychophysics,254,819486,0.0-3.0-1.123,,key,null,16.6779661,565,534.5,,,,,,,,
589,arrowleft,psychophysics,255,820080,0.0-3.0-0.124,,key,arrowleft,16.62857143,565,534.5,125,5,1,20,15,25,35,FALSE
null,null,psychophysics,256,821082,0.0-3.0-1.124,,key,null,16.66101695,565,534.5,,,,,,,,
1085,arrowleft,psychophysics,257,822172,0.0-3.0-0.125,,key,arrowleft,16.671875,565,534.5,126,5,1,23,35,25,35,FALSE
null,null,psychophysics,258,823177,0.0-3.0-1.125,,key,null,16.65,565,534.5,,,,,,,,
1627,arrowleft,psychophysics,259,824806,0.0-3.0-0.126,,key,arrowleft,16.67708333,565,534.5,127,5,-1,24,15,25,35,TRUE
null,null,psychophysics,260,825810,0.0-3.0-1.126,,key,null,16.63333333,565,534.5,,,,,,,,
1581,arrowright,psychophysics,261,827394,0.0-3.0-0.127,,key,arrowright,16.67021277,565,534.5,128,5,1,25,35,25,35,TRUE
null,null,psychophysics,262,828396,0.0-3.0-1.127,,key,null,16.6779661,565,534.5,,,,,,,,
1739,arrowright,psychophysics,263,830138,0.0-3.0-0.128,,key,arrowright,16.66990291,565,534.5,129,5,-1,26,15,25,35,FALSE
null,null,psychophysics,264,831144,0.0-3.0-1.128,,key,null,16.66666667,565,534.5,,,,,,,,
748,arrowleft,psychophysics,265,831896,0.0-3.0-0.129,,key,arrowleft,16.68181818,565,534.5,130,5,-1,30,15,25,35,TRUE
null,null,psychophysics,266,832899,0.0-3.0-1.129,,key,null,16.6779661,565,534.5,,,,,,,,
2117,arrowleft,psychophysics,267,835020,0.0-3.0-0.130,,key,arrowleft,16.66666667,565,534.5,131,5,-1,25,15,25,35,TRUE
null,null,psychophysics,268,836024,0.0-3.0-1.130,,key,null,16.66101695,565,534.5,,,,,,,,
1373,arrowright,psychophysics,269,837409,0.0-3.0-0.131,,key,arrowright,16.61445783,565,534.5,132,5,-1,27,35,25,35,FALSE
null,null,psychophysics,270,838411,0.0-3.0-1.131,,key,null,16.66101695,565,534.5,,,,,,,,
1267,arrowright,psychophysics,271,839680,0.0-3.0-0.132,,key,arrowright,16.66666667,565,534.5,133,5,1,30,15,25,35,TRUE
null,null,psychophysics,272,840683,0.0-3.0-1.132,,key,null,16.66101695,565,534.5,,,,,,,,
1175,arrowright,psychophysics,273,841862,0.0-3.0-0.133,,key,arrowright,16.67142857,565,534.5,134,5,-1,23,15,25,35,FALSE
null,null,psychophysics,274,842866,0.0-3.0-1.133,,key,null,16.66101695,565,534.5,,,,,,,,
879,arrowright,psychophysics,275,843749,0.0-3.0-0.134,,key,arrowright,16.67307692,565,534.5,135,5,-1,20,15,25,35,FALSE
null,null,psychophysics,276,844753,0.0-3.0-1.134,,key,null,16.6779661,565,534.5,,,,,,,,
1921,arrowright,psychophysics,277,846677,0.0-3.0-0.135,,key,arrowright,16.66956522,565,534.5,136,5,-1,25,35,25,35,FALSE
null,null,psychophysics,278,847678,0.0-3.0-1.135,,key,null,16.6779661,565,534.5,,,,,,,,
1112,arrowleft,psychophysics,279,848793,0.0-3.0-0.136,,key,arrowleft,16.66666667,565,534.5,137,5,1,25,15,25,35,FALSE
null,null,psychophysics,280,849795,0.0-3.0-1.136,,key,null,16.6779661,565,534.5,,,,,,,,
767,arrowright,psychophysics,281,850565,0.0-3.0-0.137,,key,arrowright,16.66666667,565,534.5,138,5,-1,25,35,25,35,FALSE
null,null,psychophysics,282,851568,0.0-3.0-1.137,,key,null,16.66101695,565,534.5,,,,,,,,
908,arrowleft,psychophysics,283,852481,0.0-3.0-0.138,,key,arrowleft,16.66666667,565,534.5,139,5,1,24,15,25,35,FALSE
null,null,psychophysics,284,853486,0.0-3.0-1.138,,key,null,16.6779661,565,534.5,,,,,,,,
812,arrowleft,psychophysics,285,854305,0.0-3.0-0.139,,key,arrowleft,16.64583333,565,534.5,140,6,-1,30,35,25,35,TRUE
null,null,psychophysics,286,855310,0.0-3.0-1.139,,key,null,16.65,565,534.5,,,,,,,,
196463, ,html-keyboard-response,287,1051772,0.0-3.0-2.139-0.139,"<div style=""color: white; text-align: center; vertical-align: top; display: inline-block; width: 800px; margin: auto""><p>You have completed 50% of the trials. You are on block 6 of 10. <br>Good job! Take a break if you need to.</p><p>Press any key to continue the experiment.</p></div>",,,,,,,,,,,,,
4247,arrowright,psychophysics,288,1057027,0.0-3.0-0.140,,key,arrowright,16.66535433,565,534.5,141,6,-1,24,15,25,35,FALSE
null,null,psychophysics,289,1058029,0.0-3.0-1.140,,key,null,16.66101695,565,534.5,,,,,,,,
1041,arrowright,psychophysics,290,1059075,0.0-3.0-0.141,,key,arrowright,16.66129032,565,534.5,142,6,1,30,35,25,35,TRUE
null,null,psychophysics,291,1060077,0.0-3.0-1.141,,key,null,16.66101695,565,534.5,,,,,,,,
1063,arrowright,psychophysics,292,1061143,0.0-3.0-0.142,,key,arrowright,16.66666667,565,534.5,143,6,-1,24,35,25,35,FALSE
null,null,psychophysics,293,1062146,0.0-3.0-1.142,,key,null,16.6779661,565,534.5,,,,,,,,
3695,arrowright,psychophysics,294,1065845,0.0-3.0-0.143,,key,arrowright,16.66968326,565,534.5,144,6,-1,23,15,25,35,FALSE
null,null,psychophysics,295,1066847,0.0-3.0-1.143,,key,null,16.6779661,565,534.5,,,,,,,,
2031,arrowright,psychophysics,296,1068882,0.0-3.0-0.144,,key,arrowright,16.66942149,565,534.5,145,6,-1,23,15,25,35,FALSE
null,null,psychophysics,297,1069887,0.0-3.0-1.144,,key,null,16.6779661,565,534.5,,,,,,,,
728,arrowleft,psychophysics,298,1070618,0.0-3.0-0.145,,key,arrowleft,16.60465116,565,534.5,146,6,-1,30,15,25,35,TRUE
null,null,psychophysics,299,1071621,0.0-3.0-1.145,,key,null,16.66101695,565,534.5,,,,,,,,
924,arrowright,psychophysics,300,1072547,0.0-3.0-0.146,,key,arrowright,16.61818182,565,534.5,147,6,1,30,35,25,35,TRUE
null,null,psychophysics,301,1073551,0.0-3.0-1.146,,key,null,16.69491525,565,534.5,,,,,,,,
1290,arrowleft,psychophysics,302,1074845,0.0-3.0-0.147,,key,arrowleft,16.67532468,565,534.5,148,6,-1,25,15,25,35,TRUE
null,null,psychophysics,303,1075851,0.0-3.0-1.147,,key,null,16.6779661,565,534.5,,,,,,,,
1058,arrowright,psychophysics,304,1076915,0.0-3.0-0.148,,key,arrowright,16.63492063,565,534.5,149,6,1,30,35,25,35,TRUE
null,null,psychophysics,305,1077919,0.0-3.0-1.148,,key,null,16.66101695,565,534.5,,,,,,,,
3489,arrowright,psychophysics,306,1081413,0.0-3.0-0.149,,key,arrowright,16.65550239,565,534.5,150,6,-1,24,35,25,35,FALSE
null,null,psychophysics,307,1082416,0.0-3.0-1.149,,key,null,16.66101695,565,534.5,,,,,,,,
1022,arrowright,psychophysics,308,1083443,0.0-3.0-0.150,,key,arrowright,16.67213115,565,534.5,151,6,-1,20,35,25,35,FALSE
null,null,psychophysics,309,1084445,0.0-3.0-1.150,,key,null,16.6779661,565,534.5,,,,,,,,
760,arrowleft,psychophysics,310,1085209,0.0-3.0-0.151,,key,arrowleft,16.66666667,565,534.5,152,6,-1,27,15,25,35,TRUE
null,null,psychophysics,311,1086212,0.0-3.0-1.151,,key,null,16.66101695,565,534.5,,,,,,,,
1092,arrowright,psychophysics,312,1087310,0.0-3.0-0.152,,key,arrowright,16.66153846,565,534.5,153,6,-1,23,35,25,35,FALSE
null,null,psychophysics,313,1088313,0.0-3.0-1.152,,key,null,16.66101695,565,534.5,,,,,,,,
1224,arrowleft,psychophysics,314,1089541,0.0-3.0-0.153,,key,arrowleft,16.67123288,565,534.5,154,6,1,25,35,25,35,FALSE
null,null,psychophysics,315,1090542,0.0-3.0-1.153,,key,null,16.6779661,565,534.5,,,,,,,,
938,arrowright,psychophysics,316,1091483,0.0-3.0-0.154,,key,arrowright,16.67272727,565,534.5,155,6,1,26,15,25,35,TRUE
null,null,psychophysics,317,1092487,0.0-3.0-1.154,,key,null,16.66101695,565,534.5,,,,,,,,
3283,arrowleft,psychophysics,318,1095773,0.0-3.0-0.155,,key,arrowleft,16.65482234,565,534.5,156,6,1,20,15,25,35,FALSE
null,null,psychophysics,319,1096775,0.0-3.0-1.155,,key,null,16.66101695,565,534.5,,,,,,,,
1714,arrowleft,psychophysics,320,1098493,0.0-3.0-0.156,,key,arrowleft,16.66666667,565,534.5,157,6,-1,26,35,25,35,TRUE
null,null,psychophysics,321,1099495,0.0-3.0-1.156,,key,null,16.6779661,565,534.5,,,,,,,,
1646,arrowleft,psychophysics,322,1101146,0.0-3.0-0.157,,key,arrowleft,16.67346939,565,534.5,158,6,1,20,35,25,35,FALSE
null,null,psychophysics,323,1102150,0.0-3.0-1.157,,key,null,16.6779661,565,534.5,,,,,,,,
1382,arrowright,psychophysics,324,1103544,0.0-3.0-0.158,,key,arrowright,16.65060241,565,534.5,159,6,-1,23,15,25,35,FALSE
null,null,psychophysics,325,1104548,0.0-3.0-1.158,,key,null,16.6779661,565,534.5,,,,,,,,
1163,arrowleft,psychophysics,326,1105716,0.0-3.0-0.159,,key,arrowleft,16.66666667,565,534.5,160,6,-1,30,35,25,35,TRUE
null,null,psychophysics,327,1106720,0.0-3.0-1.159,,key,null,16.66101695,565,534.5,,,,,,,,
769,arrowright,psychophysics,328,1107493,0.0-3.0-0.160,,key,arrowright,16.60869565,565,534.5,161,6,-1,20,35,25,35,FALSE
null,null,psychophysics,329,1108496,0.0-3.0-1.160,,key,null,16.6779661,565,534.5,,,,,,,,
907,arrowright,psychophysics,330,1109407,0.0-3.0-0.161,,key,arrowright,16.66666667,565,534.5,162,6,-1,20,35,25,35,FALSE
null,null,psychophysics,331,1110409,0.0-3.0-1.161,,key,null,16.66101695,565,534.5,,,,,,,,
747,arrowleft,psychophysics,332,1111159,0.0-3.0-0.162,,key,arrowleft,16.65909091,565,534.5,163,6,1,20,15,25,35,FALSE
null,null,psychophysics,333,1112163,0.0-3.0-1.162,,key,null,16.66101695,565,534.5,,,,,,,,
2089,arrowleft,psychophysics,334,1114257,0.0-3.0-0.163,,key,arrowleft,16.664,565,534.5,164,6,-1,24,15,25,35,TRUE
null,null,psychophysics,335,1115258,0.0-3.0-1.163,,key,null,16.6779661,565,534.5,,,,,,,,
696,arrowright,psychophysics,336,1115956,0.0-3.0-0.164,,key,arrowright,16.65853659,565,534.5,165,6,1,30,15,25,35,TRUE
null,null,psychophysics,337,1116958,0.0-3.0-1.164,,key,null,16.66101695,565,534.5,,,,,,,,
1514,arrowright,psychophysics,338,1118474,0.0-3.0-0.165,,key,arrowright,16.66666667,565,534.5,166,6,1,27,35,25,35,TRUE
null,null,psychophysics,339,1119476,0.0-3.0-1.165,,key,null,16.66101695,565,534.5,,,,,,,,
1783,arrowright,psychophysics,340,1121262,0.0-3.0-0.166,,key,arrowright,16.66037736,565,534.5,167,6,1,25,35,25,35,TRUE
null,null,psychophysics,341,1122266,0.0-3.0-1.166,,key,null,16.66101695,565,534.5,,,,,,,,
1782,arrowright,psychophysics,342,1124052,0.0-3.0-0.167,,key,arrowright,16.66981132,565,534.5,168,7,1,24,15,25,35,TRUE
null,null,psychophysics,343,1125057,0.0-3.0-1.167,,key,null,16.65,565,534.5,,,,,,,,
148303, ,html-keyboard-response,344,1273360,0.0-3.0-2.167-0.167,"<div style=""color: white; text-align: center; vertical-align: top; display: inline-block; width: 800px; margin: auto""><p>You have completed 60% of the trials. You are on block 7 of 10. <br>Good job! Take a break if you need to.</p><p>Press any key to continue the experiment.</p></div>",,,,,,,,,,,,,
1470,arrowleft,psychophysics,345,1275838,0.0-3.0-0.168,,key,arrowleft,16.66666667,565,534.5,169,7,-1,25,15,25,35,TRUE
null,null,psychophysics,346,1276840,0.0-3.0-1.168,,key,null,16.6779661,565,534.5,,,,,,,,
949,arrowright,psychophysics,347,1277792,0.0-3.0-0.169,,key,arrowright,16.67857143,565,534.5,170,7,1,25,15,25,35,TRUE
null,null,psychophysics,348,1278797,0.0-3.0-1.169,,key,null,16.6779661,565,534.5,,,,,,,,
1508,arrowright,psychophysics,349,1280310,0.0-3.0-0.170,,key,arrowright,16.66666667,565,534.5,171,7,1,30,35,25,35,TRUE
null,null,psychophysics,350,1281312,0.0-3.0-1.170,,key,null,16.6779661,565,534.5,,,,,,,,
957,arrowright,psychophysics,351,1282274,0.0-3.0-0.171,,key,arrowright,16.66666667,565,534.5,172,7,1,24,15,25,35,TRUE
null,null,psychophysics,352,1283276,0.0-3.0-1.171,,key,null,16.66101695,565,534.5,,,,,,,,
928,arrowright,psychophysics,353,1284207,0.0-3.0-0.172,,key,arrowright,16.65454545,565,534.5,173,7,1,30,35,25,35,TRUE
null,null,psychophysics,354,1285211,0.0-3.0-1.172,,key,null,16.66101695,565,534.5,,,,,,,,
877,arrowleft,psychophysics,355,1286092,0.0-3.0-0.173,,key,arrowleft,16.67307692,565,534.5,174,7,-1,26,15,25,35,TRUE
null,null,psychophysics,356,1287095,0.0-3.0-1.173,,key,null,16.6779661,565,534.5,,,,,,,,
44402,arrowleft,psychophysics,357,1331500,0.0-3.0-0.174,,key,arrowleft,16.66691701,565,534.5,175,7,1,25,35,25,35,FALSE
null,null,psychophysics,358,1332504,0.0-3.0-1.174,,key,null,16.65,565,534.5,,,,,,,,
998,arrowright,psychophysics,359,1333505,0.0-3.0-0.175,,key,arrowright,16.66101695,565,534.5,176,7,1,27,15,25,35,TRUE
null,null,psychophysics,360,1334507,0.0-3.0-1.175,,key,null,16.66101695,565,534.5,,,,,,,,
1146,arrowright,psychophysics,361,1335655,0.0-3.0-0.176,,key,arrowright,16.66176471,565,534.5,177,7,1,23,15,25,35,TRUE
null,null,psychophysics,362,1336657,0.0-3.0-1.176,,key,null,16.66101695,565,534.5,,,,,,,,
782,arrowright,psychophysics,363,1337441,0.0-3.0-0.177,,key,arrowright,16.65217391,565,534.5,178,7,-1,26,35,25,35,FALSE
null,null,psychophysics,364,1338443,0.0-3.0-1.177,,key,null,16.6779661,565,534.5,,,,,,,,
2675,arrowright,psychophysics,365,1341122,0.0-3.0-0.178,,key,arrowright,16.66875,565,534.5,179,7,1,23,15,25,35,TRUE
null,null,psychophysics,366,1342123,0.0-3.0-1.178,,key,null,16.6779661,565,534.5,,,,,,,,
1165,arrowleft,psychophysics,367,1343291,0.0-3.0-0.179,,key,arrowleft,16.66666667,565,534.5,180,7,-1,27,15,25,35,TRUE
null,null,psychophysics,368,1344296,0.0-3.0-1.179,,key,null,16.6779661,565,534.5,,,,,,,,
925,arrowright,psychophysics,369,1345226,0.0-3.0-0.180,,key,arrowright,16.67272727,565,534.5,181,7,-1,23,35,25,35,FALSE
null,null,psychophysics,370,1346230,0.0-3.0-1.180,,key,null,16.66101695,565,534.5,,,,,,,,
837,arrowright,psychophysics,371,1347072,0.0-3.0-0.181,,key,arrowright,16.68,565,534.5,182,7,1,26,15,25,35,TRUE
null,null,psychophysics,372,1348074,0.0-3.0-1.181,,key,null,16.66101695,565,534.5,,,,,,,,
1331,arrowright,psychophysics,373,1349408,0.0-3.0-0.182,,key,arrowright,16.67088608,565,534.5,183,7,-1,20,15,25,35,FALSE
null,null,psychophysics,374,1350411,0.0-3.0-1.182,,key,null,16.66101695,565,534.5,,,,,,,,
658,arrowleft,psychophysics,375,1351074,0.0-3.0-0.183,,key,arrowleft,16.66666667,565,534.5,184,7,-1,30,15,25,35,TRUE
null,null,psychophysics,376,1352077,0.0-3.0-1.183,,key,null,16.6779661,565,534.5,,,,,,,,
880,arrowright,psychophysics,377,1352962,0.0-3.0-0.184,,key,arrowright,16.67307692,565,534.5,185,7,1,26,15,25,35,TRUE
null,null,psychophysics,378,1353965,0.0-3.0-1.184,,key,null,16.61016949,565,534.5,,,,,,,,
935,arrowleft,psychophysics,379,1354904,0.0-3.0-0.185,,key,arrowleft,16.64285714,565,534.5,186,7,-1,30,35,25,35,TRUE
null,null,psychophysics,380,1355905,0.0-3.0-1.185,,key,null,16.66101695,565,534.5,,,,,,,,
1829,arrowleft,psychophysics,381,1357737,0.0-3.0-0.186,,key,arrowleft,16.66055046,565,534.5,187,7,1,24,35,25,35,FALSE
null,null,psychophysics,382,1358738,0.0-3.0-1.186,,key,null,16.6779661,565,534.5,,,,,,,,
1085,arrowright,psychophysics,383,1359825,0.0-3.0-0.187,,key,arrowright,16.671875,565,534.5,188,7,1,26,35,25,35,TRUE
null,null,psychophysics,384,1360828,0.0-3.0-1.187,,key,null,16.6779661,565,534.5,,,,,,,,
1163,arrowright,psychophysics,385,1361996,0.0-3.0-0.188,,key,arrowright,16.66666667,565,534.5,189,7,1,27,35,25,35,TRUE
null,null,psychophysics,386,1362999,0.0-3.0-1.188,,key,null,16.6779661,565,534.5,,,,,,,,
1037,arrowright,psychophysics,387,1364043,0.0-3.0-0.189,,key,arrowright,16.59677419,565,534.5,190,7,1,26,15,25,35,TRUE
null,null,psychophysics,388,1365048,0.0-3.0-1.189,,key,null,16.66101695,565,534.5,,,,,,,,
1254,arrowleft,psychophysics,389,1366307,0.0-3.0-0.190,,key,arrowleft,16.65333333,565,534.5,191,7,1,20,35,25,35,FALSE
null,null,psychophysics,390,1367310,0.0-3.0-1.190,,key,null,16.66101695,565,534.5,,,,,,,,
1190,arrowright,psychophysics,391,1368504,0.0-3.0-0.191,,key,arrowright,16.66197183,565,534.5,192,7,1,26,35,25,35,TRUE
null,null,psychophysics,392,1369506,0.0-3.0-1.191,,key,null,16.66101695,565,534.5,,,,,,,,
1318,arrowleft,psychophysics,393,1370826,0.0-3.0-0.192,,key,arrowleft,16.66666667,565,534.5,193,7,-1,23,15,25,35,TRUE
null,null,psychophysics,394,1371830,0.0-3.0-1.192,,key,null,16.6779661,565,534.5,,,,,,,,
1244,arrowleft,psychophysics,395,1373079,0.0-3.0-0.193,,key,arrowleft,16.66216216,565,534.5,194,7,1,23,35,25,35,FALSE
null,null,psychophysics,396,1374083,0.0-3.0-1.193,,key,null,16.6779661,565,534.5,,,,,,,,
655,arrowright,psychophysics,397,1374743,0.0-3.0-0.194,,key,arrowright,16.61538462,565,534.5,195,7,-1,23,35,25,35,FALSE
null,null,psychophysics,398,1375747,0.0-3.0-1.194,,key,null,16.66101695,565,534.5,,,,,,,,
886,arrowright,psychophysics,399,1376637,0.0-3.0-0.195,,key,arrowright,16.66037736,565,534.5,196,8,-1,23,35,25,35,FALSE
null,null,psychophysics,400,1377638,0.0-3.0-1.195,,key,null,16.66101695,565,534.5,,,,,,,,
61009,arrowright,html-keyboard-response,401,1438648,0.0-3.0-2.195-0.195,"<div style=""color: white; text-align: center; vertical-align: top; display: inline-block; width: 800px; margin: auto""><p>You have completed 70% of the trials. You are on block 8 of 10. <br>Good job! Take a break if you need to.</p><p>Press any key to continue the experiment.</p></div>",,,,,,,,,,,,,
1603,arrowleft,psychophysics,402,1441255,0.0-3.0-0.196,,key,arrowleft,16.66315789,565,534.5,197,8,-1,24,15,25,35,TRUE
null,null,psychophysics,403,1442258,0.0-3.0-1.196,,key,null,16.66101695,565,534.5,,,,,,,,
948,arrowright,psychophysics,404,1443210,0.0-3.0-0.197,,key,arrowright,16.66071429,565,534.5,198,8,-1,24,35,25,35,FALSE
null,null,psychophysics,405,1444214,0.0-3.0-1.197,,key,null,16.66101695,565,534.5,,,,,,,,
972,arrowright,psychophysics,406,1445190,0.0-3.0-0.198,,key,arrowright,16.63793103,565,534.5,199,8,1,23,15,25,35,TRUE
null,null,psychophysics,407,1446193,0.0-3.0-1.198,,key,null,16.66101695,565,534.5,,,,,,,,
909,arrowright,psychophysics,408,1447106,0.0-3.0-0.199,,key,arrowright,16.66666667,565,534.5,200,8,-1,26,35,25,35,FALSE
null,null,psychophysics,409,1448110,0.0-3.0-1.199,,key,null,16.6779661,565,534.5,,,,,,,,
722,arrowright,psychophysics,410,1448839,0.0-3.0-0.200,,key,arrowright,16.65116279,565,534.5,201,8,1,25,35,25,35,TRUE
null,null,psychophysics,411,1449842,0.0-3.0-1.200,,key,null,16.6779661,565,534.5,,,,,,,,
859,arrowright,psychophysics,412,1450706,0.0-3.0-0.201,,key,arrowright,16.66666667,565,534.5,202,8,-1,27,35,25,35,FALSE
null,null,psychophysics,413,1451709,0.0-3.0-1.201,,key,null,16.66101695,565,534.5,,,,,,,,
657,arrowright,psychophysics,414,1452371,0.0-3.0-0.202,,key,arrowright,16.64102564,565,534.5,203,8,-1,20,35,25,35,FALSE
null,null,psychophysics,415,1453373,0.0-3.0-1.202,,key,null,16.6779661,565,534.5,,,,,,,,
1082,arrowright,psychophysics,416,1454460,0.0-3.0-0.203,,key,arrowright,16.671875,565,534.5,204,8,1,27,15,25,35,TRUE
null,null,psychophysics,417,1455464,0.0-3.0-1.203,,key,null,16.66101695,565,534.5,,,,,,,,
758,arrowright,psychophysics,418,1456228,0.0-3.0-0.204,,key,arrowright,16.62222222,565,534.5,205,8,1,27,35,25,35,TRUE
null,null,psychophysics,419,1457231,0.0-3.0-1.204,,key,null,16.6779661,565,534.5,,,,,,,,
736,arrowleft,psychophysics,420,1457972,0.0-3.0-0.205,,key,arrowleft,16.63636364,565,534.5,206,8,1,20,35,25,35,FALSE
null,null,psychophysics,421,1458974,0.0-3.0-1.205,,key,null,16.6779661,565,534.5,,,,,,,,
814,arrowright,psychophysics,422,1459792,0.0-3.0-0.206,,key,arrowright,16.66666667,565,534.5,207,8,1,25,15,25,35,TRUE
null,null,psychophysics,423,1460795,0.0-3.0-1.206,,key,null,16.66101695,565,534.5,,,,,,,,
1673,arrowleft,psychophysics,424,1462472,0.0-3.0-0.207,,key,arrowleft,16.66,565,534.5,208,8,-1,27,15,25,35,TRUE
null,null,psychophysics,425,1463474,0.0-3.0-1.207,,key,null,16.6779661,565,534.5,,,,,,,,
2029,arrowleft,psychophysics,426,1465507,0.0-3.0-0.208,,key,arrowleft,16.66942149,565,534.5,209,8,-1,30,15,25,35,TRUE
null,null,psychophysics,427,1466509,0.0-3.0-1.208,,key,null,16.66101695,565,534.5,,,,,,,,
884,arrowright,psychophysics,428,1467398,0.0-3.0-0.209,,key,arrowright,16.65384615,565,534.5,210,8,1,27,15,25,35,TRUE
null,null,psychophysics,429,1468403,0.0-3.0-1.209,,key,null,16.65,565,534.5,,,,,,,,
1109,arrowright,psychophysics,430,1469514,0.0-3.0-0.210,,key,arrowright,16.67692308,565,534.5,211,8,1,27,15,25,35,TRUE
null,null,psychophysics,431,1470520,0.0-3.0-1.210,,key,null,16.66666667,565,534.5,,,,,,,,
1484,arrowleft,psychophysics,432,1472008,0.0-3.0-0.211,,key,arrowleft,16.67045455,565,534.5,212,8,1,27,35,25,35,FALSE
null,null,psychophysics,433,1473012,0.0-3.0-1.211,,key,null,16.66101695,565,534.5,,,,,,,,
3022,arrowleft,psychophysics,434,1476038,0.0-3.0-0.212,,key,arrowleft,16.66850829,565,534.5,213,8,-1,27,35,25,35,TRUE
null,null,psychophysics,435,1477041,0.0-3.0-1.212,,key,null,16.66101695,565,534.5,,,,,,,,
9092,arrowright,psychophysics,436,1486139,0.0-3.0-0.213,,key,arrowright,16.66788991,565,534.5,214,8,1,25,35,25,35,TRUE
null,null,psychophysics,437,1487141,0.0-3.0-1.213,,key,null,16.66101695,565,534.5,,,,,,,,
953,arrowleft,psychophysics,438,1488099,0.0-3.0-0.214,,key,arrowleft,16.66071429,565,534.5,215,8,-1,25,15,25,35,TRUE
null,null,psychophysics,439,1489103,0.0-3.0-1.214,,key,null,16.63333333,565,534.5,,,,,,,,
4866,arrowright,psychophysics,440,1493972,0.0-3.0-0.215,,key,arrowright,16.66666667,565,534.5,216,8,1,27,35,25,35,TRUE
null,null,psychophysics,441,1494975,0.0-3.0-1.215,,key,null,16.6779661,565,534.5,,,,,,,,
1308,arrowleft,psychophysics,442,1496288,0.0-3.0-0.216,,key,arrowleft,16.66666667,565,534.5,217,8,1,26,35,25,35,FALSE
null,null,psychophysics,443,1497291,0.0-3.0-1.216,,key,null,16.66101695,565,534.5,,,,,,,,
793,arrowleft,psychophysics,444,1498088,0.0-3.0-0.217,,key,arrowleft,16.65957447,565,534.5,218,8,1,20,35,25,35,FALSE
null,null,psychophysics,445,1499091,0.0-3.0-1.217,,key,null,16.66101695,565,534.5,,,,,,,,
792,arrowleft,psychophysics,446,1499888,0.0-3.0-0.218,,key,arrowleft,16.65957447,565,534.5,219,8,-1,27,15,25,35,TRUE
null,null,psychophysics,447,1500891,0.0-3.0-1.218,,key,null,16.66101695,565,534.5,,,,,,,,
975,arrowleft,psychophysics,448,1501870,0.0-3.0-0.219,,key,arrowleft,16.67241379,565,534.5,220,8,-1,25,15,25,35,TRUE
null,null,psychophysics,449,1502872,0.0-3.0-1.219,,key,null,16.6779661,565,534.5,,,,,,,,
3963,arrowright,psychophysics,450,1506839,0.0-3.0-0.220,,key,arrowright,16.66666667,565,534.5,221,8,1,26,35,25,35,TRUE
null,null,psychophysics,451,1507842,0.0-3.0-1.220,,key,null,16.66101695,565,534.5,,,,,,,,
1244,arrowleft,psychophysics,452,1509090,0.0-3.0-0.221,,key,arrowleft,16.66216216,565,534.5,222,8,-1,23,15,25,35,TRUE
null,null,psychophysics,453,1510094,0.0-3.0-1.221,,key,null,16.66101695,565,534.5,,,,,,,,
993,arrowleft,psychophysics,454,1511091,0.0-3.0-0.222,,key,arrowleft,16.66101695,565,534.5,223,8,-1,24,15,25,35,TRUE
null,null,psychophysics,455,1512094,0.0-3.0-1.222,,key,null,16.66101695,565,534.5,,,,,,,,
1242,arrowright,psychophysics,456,1513340,0.0-3.0-0.223,,key,arrowright,16.66216216,565,534.5,224,9,1,27,15,25,35,TRUE
null,null,psychophysics,457,1514343,0.0-3.0-1.223,,key,null,16.6779661,565,534.5,,,,,,,,
5593, ,html-keyboard-response,458,1519938,0.0-3.0-2.223-0.223,"<div style=""color: white; text-align: center; vertical-align: top; display: inline-block; width: 800px; margin: auto""><p>You have completed 80% of the trials. You are on block 9 of 10. <br>Good job! Take a break if you need to.</p><p>Press any key to continue the experiment.</p></div>",,,,,,,,,,,,,
1465,arrowright,psychophysics,459,1522408,0.0-3.0-0.224,,key,arrowright,16.66666667,565,534.5,225,9,1,27,35,25,35,TRUE
null,null,psychophysics,460,1523412,0.0-3.0-1.224,,key,null,16.6779661,565,534.5,,,,,,,,
839,arrowright,psychophysics,461,1524255,0.0-3.0-0.225,,key,arrowright,16.66,565,534.5,226,9,-1,20,15,25,35,FALSE
null,null,psychophysics,462,1525257,0.0-3.0-1.225,,key,null,16.66101695,565,534.5,,,,,,,,
909,arrowleft,psychophysics,463,1526171,0.0-3.0-0.226,,key,arrowleft,16.66666667,565,534.5,227,9,-1,24,15,25,35,TRUE
null,null,psychophysics,464,1527173,0.0-3.0-1.226,,key,null,16.6779661,565,534.5,,,,,,,,
1376,arrowleft,psychophysics,465,1528554,0.0-3.0-0.227,,key,arrowleft,16.67073171,565,534.5,228,9,-1,25,15,25,35,TRUE
null,null,psychophysics,466,1529558,0.0-3.0-1.227,,key,null,16.6779661,565,534.5,,,,,,,,
676,arrowleft,psychophysics,467,1530240,0.0-3.0-0.228,,key,arrowleft,16.65,565,534.5,229,9,-1,27,15,25,35,TRUE
null,null,psychophysics,468,1531244,0.0-3.0-1.228,,key,null,16.66101695,565,534.5,,,,,,,,
1444,arrowleft,psychophysics,469,1532693,0.0-3.0-0.229,,key,arrowleft,16.6627907,565,534.5,230,9,-1,25,15,25,35,TRUE
null,null,psychophysics,470,1533697,0.0-3.0-1.229,,key,null,16.66101695,565,534.5,,,,,,,,
1017,arrowright,psychophysics,471,1534719,0.0-3.0-0.230,,key,arrowright,16.62295082,565,534.5,231,9,1,25,15,25,35,TRUE
null,null,psychophysics,472,1535721,0.0-3.0-1.230,,key,null,16.6779661,565,534.5,,,,,,,,
948,arrowleft,psychophysics,473,1536673,0.0-3.0-0.231,,key,arrowleft,16.66071429,565,534.5,232,9,-1,27,35,25,35,TRUE
null,null,psychophysics,474,1537678,0.0-3.0-1.231,,key,null,16.6779661,565,534.5,,,,,,,,
793,arrowleft,psychophysics,475,1538477,0.0-3.0-0.232,,key,arrowleft,16.65957447,565,534.5,233,9,-1,27,35,25,35,TRUE
null,null,psychophysics,476,1539480,0.0-3.0-1.232,,key,null,16.66101695,565,534.5,,,,,,,,
972,arrowleft,psychophysics,477,1540454,0.0-3.0-0.233,,key,arrowleft,16.67241379,565,534.5,234,9,-1,26,15,25,35,TRUE
null,null,psychophysics,478,1541456,0.0-3.0-1.233,,key,null,16.66101695,565,534.5,,,,,,,,
749,arrowright,psychophysics,479,1542209,0.0-3.0-0.234,,key,arrowright,16.65909091,565,534.5,235,9,-1,20,15,25,35,FALSE
null,null,psychophysics,480,1543213,0.0-3.0-1.234,,key,null,16.66101695,565,534.5,,,,,,,,
954,arrowleft,psychophysics,481,1544171,0.0-3.0-0.235,,key,arrowleft,16.66666667,565,534.5,236,9,-1,25,35,25,35,TRUE
null,null,psychophysics,482,1545174,0.0-3.0-1.235,,key,null,16.6779661,565,534.5,,,,,,,,
658,arrowright,psychophysics,483,1545836,0.0-3.0-0.236,,key,arrowright,16.66666667,565,534.5,237,9,1,30,15,25,35,TRUE
null,null,psychophysics,484,1546837,0.0-3.0-1.236,,key,null,16.66101695,565,534.5,,,,,,,,
1521,arrowright,psychophysics,485,1548362,0.0-3.0-0.237,,key,arrowright,16.67777778,565,534.5,238,9,1,25,15,25,35,TRUE
null,null,psychophysics,486,1549366,0.0-3.0-1.237,,key,null,16.66101695,565,534.5,,,,,,,,
1007,arrowright,psychophysics,487,1550376,0.0-3.0-0.238,,key,arrowright,16.61666667,565,534.5,239,9,-1,20,15,25,35,FALSE
null,null,psychophysics,488,1551380,0.0-3.0-1.238,,key,null,16.6779661,565,534.5,,,,,,,,
1017,arrowleft,psychophysics,489,1552404,0.0-3.0-0.239,,key,arrowleft,16.60655738,565,534.5,240,9,-1,26,15,25,35,TRUE
null,null,psychophysics,490,1553407,0.0-3.0-1.239,,key,null,16.66101695,565,534.5,,,,,,,,
879,arrowright,psychophysics,491,1554291,0.0-3.0-0.240,,key,arrowright,16.65384615,565,534.5,241,9,1,25,15,25,35,TRUE
null,null,psychophysics,492,1555295,0.0-3.0-1.240,,key,null,16.66101695,565,534.5,,,,,,,,
3538,arrowleft,psychophysics,493,1558837,0.0-3.0-0.241,,key,arrowleft,16.66037736,565,534.5,242,9,-1,26,15,25,35,TRUE
null,null,psychophysics,494,1559840,0.0-3.0-1.241,,key,null,16.66101695,565,534.5,,,,,,,,
1558,arrowleft,psychophysics,495,1561402,0.0-3.0-0.242,,key,arrowleft,16.66666667,565,534.5,243,9,1,24,35,25,35,FALSE
null,null,psychophysics,496,1562404,0.0-3.0-1.242,,key,null,16.66101695,565,534.5,,,,,,,,
931,arrowright,psychophysics,497,1563338,0.0-3.0-0.243,,key,arrowright,16.65454545,565,534.5,244,9,1,27,35,25,35,TRUE
null,null,psychophysics,498,1564343,0.0-3.0-1.243,,key,null,16.66101695,565,534.5,,,,,,,,
1491,arrowleft,psychophysics,499,1565837,0.0-3.0-0.244,,key,arrowleft,16.66292135,565,534.5,245,9,1,23,15,25,35,FALSE
null,null,psychophysics,500,1566839,0.0-3.0-1.244,,key,null,16.66101695,565,534.5,,,,,,,,
770,arrowright,psychophysics,501,1567613,0.0-3.0-0.245,,key,arrowright,16.66666667,565,534.5,246,9,-1,20,35,25,35,FALSE
null,null,psychophysics,502,1568616,0.0-3.0-1.245,,key,null,16.66101695,565,534.5,,,,,,,,
2033,arrowright,psychophysics,503,1570652,0.0-3.0-0.246,,key,arrowright,16.63934426,565,534.5,247,9,1,24,15,25,35,TRUE
null,null,psychophysics,504,1571654,0.0-3.0-1.246,,key,null,16.66101695,565,534.5,,,,,,,,
2815,arrowright,psychophysics,505,1574475,0.0-3.0-0.247,,key,arrowright,16.66666667,565,534.5,248,9,1,26,15,25,35,TRUE
null,null,psychophysics,506,1575479,0.0-3.0-1.247,,key,null,16.6779661,565,534.5,,,,,,,,
992,arrowright,psychophysics,507,1576476,0.0-3.0-0.248,,key,arrowright,16.6440678,565,534.5,249,9,1,30,35,25,35,TRUE
null,null,psychophysics,508,1577479,0.0-3.0-1.248,,key,null,16.6779661,565,534.5,,,,,,,,
1579,arrowright,psychophysics,509,1579064,0.0-3.0-0.249,,key,arrowright,16.64893617,565,534.5,250,9,1,26,35,25,35,TRUE
null,null,psychophysics,510,1580068,0.0-3.0-1.249,,key,null,16.65,565,534.5,,,,,,,,
1085,arrowleft,psychophysics,511,1581155,0.0-3.0-0.250,,key,arrowleft,16.671875,565,534.5,251,9,-1,25,35,25,35,TRUE
null,null,psychophysics,512,1582159,0.0-3.0-1.250,,key,null,16.66101695,565,534.5,,,,,,,,
5224,arrowright,psychophysics,513,1587387,0.0-3.0-0.251,,key,arrowright,16.66453674,565,534.5,252,10,1,24,15,25,35,TRUE
null,null,psychophysics,514,1588390,0.0-3.0-1.251,,key,null,16.66101695,565,534.5,,,,,,,,
3024, ,html-keyboard-response,515,1591416,0.0-3.0-2.251-0.251,"<div style=""color: white; text-align: center; vertical-align: top; display: inline-block; width: 800px; margin: auto""><p>You have completed 90% of the trials. You are on block 10 of 10. <br>Good job! Take a break if you need to.</p><p>Press any key to continue the experiment.</p></div>",,,,,,,,,,,,,
1222,arrowleft,psychophysics,516,1593644,0.0-3.0-0.252,,key,arrowleft,16.66666667,565,534.5,253,10,1,20,35,25,35,FALSE
null,null,psychophysics,517,1594648,0.0-3.0-1.252,,key,null,16.66101695,565,534.5,,,,,,,,
1174,arrowleft,psychophysics,518,1595825,0.0-3.0-0.253,,key,arrowleft,16.64285714,565,534.5,254,10,-1,24,15,25,35,TRUE
null,null,psychophysics,519,1596829,0.0-3.0-1.253,,key,null,16.6779661,565,534.5,,,,,,,,
1107,arrowright,psychophysics,520,1597941,0.0-3.0-0.254,,key,arrowright,16.65151515,565,534.5,255,10,1,24,35,25,35,TRUE
null,null,psychophysics,521,1598945,0.0-3.0-1.254,,key,null,16.66101695,565,534.5,,,,,,,,
1488,arrowright,psychophysics,522,1600439,0.0-3.0-0.255,,key,arrowright,16.64044944,565,534.5,256,10,-1,24,35,25,35,FALSE
null,null,psychophysics,523,1601444,0.0-3.0-1.255,,key,null,16.66101695,565,534.5,,,,,,,,
1397,arrowright,psychophysics,524,1602846,0.0-3.0-0.256,,key,arrowright,16.6626506,565,534.5,257,10,1,25,15,25,35,TRUE
null,null,psychophysics,525,1603851,0.0-3.0-1.256,,key,null,16.65,565,534.5,,,,,,,,
2414,arrowright,psychophysics,526,1606268,0.0-3.0-0.257,,key,arrowright,16.66666667,565,534.5,258,10,1,23,15,25,35,TRUE
null,null,psychophysics,527,1607270,0.0-3.0-1.257,,key,null,16.6779661,565,534.5,,,,,,,,
1112,arrowleft,psychophysics,528,1608385,0.0-3.0-0.258,,key,arrowleft,16.66666667,565,534.5,259,10,1,23,35,25,35,FALSE
null,null,psychophysics,529,1609387,0.0-3.0-1.258,,key,null,16.66101695,565,534.5,,,,,,,,
1513,arrowright,psychophysics,530,1610903,0.0-3.0-0.259,,key,arrowright,16.66666667,565,534.5,260,10,-1,20,15,25,35,FALSE
null,null,psychophysics,531,1611907,0.0-3.0-1.259,,key,null,16.6440678,565,534.5,,,,,,,,
2364,arrowleft,psychophysics,532,1614275,0.0-3.0-0.260,,key,arrowleft,16.67375887,565,534.5,261,10,-1,30,15,25,35,TRUE
null,null,psychophysics,533,1615279,0.0-3.0-1.260,,key,null,16.6779661,565,534.5,,,,,,,,
1020,arrowright,psychophysics,534,1616303,0.0-3.0-0.261,,key,arrowright,16.63934426,565,534.5,262,10,-1,20,35,25,35,FALSE
null,null,psychophysics,535,1617305,0.0-3.0-1.261,,key,null,16.6779661,565,534.5,,,,,,,,
813,arrowright,psychophysics,536,1618122,0.0-3.0-0.262,,key,arrowright,16.66666667,565,534.5,263,10,1,30,35,25,35,TRUE
null,null,psychophysics,537,1619125,0.0-3.0-1.262,,key,null,16.66101695,565,534.5,,,,,,,,
1243,arrowright,psychophysics,538,1620372,0.0-3.0-0.263,,key,arrowright,16.67567568,565,534.5,264,10,1,24,15,25,35,TRUE
null,null,psychophysics,539,1621375,0.0-3.0-1.263,,key,null,16.69491525,565,534.5,,,,,,,,
658,arrowleft,psychophysics,540,1622038,0.0-3.0-0.264,,key,arrowleft,16.66666667,565,534.5,265,10,-1,30,15,25,35,TRUE
null,null,psychophysics,541,1623040,0.0-3.0-1.264,,key,null,16.66101695,565,534.5,,,,,,,,
818,arrowright,psychophysics,542,1623863,0.0-3.0-0.265,,key,arrowright,16.66666667,565,534.5,266,10,-1,25,35,25,35,FALSE
null,null,psychophysics,543,1624867,0.0-3.0-1.265,,key,null,16.61666667,565,534.5,,,,,,,,
901,arrowright,psychophysics,544,1625772,0.0-3.0-0.266,,key,arrowright,16.67924528,565,534.5,267,10,-1,23,35,25,35,FALSE
null,null,psychophysics,545,1626775,0.0-3.0-1.266,,key,null,16.6779661,565,534.5,,,,,,,,
707,arrowright,psychophysics,546,1627487,0.0-3.0-0.267,,key,arrowright,16.66666667,565,534.5,268,10,1,30,15,25,35,TRUE
null,null,psychophysics,547,1628489,0.0-3.0-1.267,,key,null,16.66101695,565,534.5,,,,,,,,
697,arrowright,psychophysics,548,1629191,0.0-3.0-0.268,,key,arrowright,16.65853659,565,534.5,269,10,1,27,15,25,35,TRUE
null,null,psychophysics,549,1630196,0.0-3.0-1.268,,key,null,16.6779661,565,534.5,,,,,,,,
824,arrowright,psychophysics,550,1631037,0.0-3.0-0.269,,key,arrowright,16.66,565,534.5,270,10,1,24,15,25,35,TRUE
null,null,psychophysics,551,1632040,0.0-3.0-1.269,,key,null,16.66101695,565,534.5,,,,,,,,
1157,arrowleft,psychophysics,552,1633202,0.0-3.0-0.270,,key,arrowleft,16.66666667,565,534.5,271,10,1,23,35,25,35,FALSE
null,null,psychophysics,553,1634203,0.0-3.0-1.270,,key,null,16.66101695,565,534.5,,,,,,,,
1963,arrowleft,psychophysics,554,1636169,0.0-3.0-0.271,,key,arrowleft,16.67521368,565,534.5,272,10,-1,26,35,25,35,TRUE
null,null,psychophysics,555,1637171,0.0-3.0-1.271,,key,null,16.66101695,565,534.5,,,,,,,,
2053,arrowright,psychophysics,556,1639228,0.0-3.0-0.272,,key,arrowright,16.67213115,565,534.5,273,10,1,27,15,25,35,TRUE
null,null,psychophysics,557,1640231,0.0-3.0-1.272,,key,null,16.66101695,565,534.5,,,,,,,,
1175,arrowright,psychophysics,558,1641410,0.0-3.0-0.273,,key,arrowright,16.61428571,565,534.5,274,10,-1,25,15,25,35,FALSE
null,null,psychophysics,559,1642414,0.0-3.0-1.273,,key,null,16.6779661,565,534.5,,,,,,,,
1604,arrowright,psychophysics,560,1644020,0.0-3.0-0.274,,key,arrowright,16.64583333,565,534.5,275,10,1,23,15,25,35,TRUE
null,null,psychophysics,561,1645023,0.0-3.0-1.274,,key,null,16.66101695,565,534.5,,,,,,,,
995,arrowleft,psychophysics,562,1646022,0.0-3.0-0.275,,key,arrowleft,16.66101695,565,534.5,276,10,-1,27,15,25,35,TRUE
null,null,psychophysics,563,1647024,0.0-3.0-1.275,,key,null,16.66101695,565,534.5,,,,,,,,
1222,arrowright,psychophysics,564,1648251,0.0-3.0-0.276,,key,arrowright,16.67123288,565,534.5,277,10,1,30,35,25,35,TRUE
null,null,psychophysics,565,1649253,0.0-3.0-1.276,,key,null,16.6779661,565,534.5,,,,,,,,
1878,arrowleft,psychophysics,566,1651133,0.0-3.0-0.277,,key,arrowleft,16.66964286,565,534.5,278,10,-1,26,35,25,35,TRUE
null,null,psychophysics,567,1652135,0.0-3.0-1.277,,key,null,16.66101695,565,534.5,,,,,,,,
834,arrowright,psychophysics,568,1652974,0.0-3.0-0.278,,key,arrowright,16.65306122,565,534.5,279,10,1,24,35,25,35,TRUE
null,null,psychophysics,569,1653979,0.0-3.0-1.278,,key,null,16.6779661,565,534.5,,,,,,,,
1105,arrowleft,psychophysics,570,1655089,0.0-3.0-0.279,,key,arrowleft,16.63636364,565,534.5,280,11,-1,30,35,25,35,TRUE
null,null,psychophysics,571,1656093,0.0-3.0-1.279,,key,null,16.66101695,565,534.5,,,,,,,,