"rt","response","trial_type","trial_index","time_elapsed","internal_node_id","stimulus","response_type","key_press","avg_frame_time","center_x","center_y","trial","block","test_pos","test_inner_radius","test_outer_radius","ref_inner_radius","ref_outer_radius","test_bigger"
"14934.799999952316","{""p_id"":""7537"",""age"":""19"",""handedness"":""right"",""sex"":""female"",""other_sex"":""""}","survey-html-form","0","14938","0.0-0.0","","","","","","","","","","","","","",""
"5511.800000190735"," ","html-keyboard-response","1","20452","0.0-1.0","<p style=""color: white"">Welcome to the Size Judgment Experiment. <br>There will be 10 blocks in this experiment. <br>There will be 28 trials in each block. <br>You will be given a chance to take a break between blocks. <br>Press any key to start the experiment.</p>","","","","","","","","","","","","",""
"103343.79999995232","arrowleft","psychophysics","2","123812","0.0-2.0","","key","arrowleft","16.6679880664409","683","328.5","","","","","","","",""
"4950","arrowright","psychophysics","3","128776","0.0-3.0-0.0","","key","arrowright","16.66935353535357","683","328.5","1","1","-1","30","15","25","35","false"
"null","null","psychophysics","4","129782","0.0-3.0-1.0","","key","null","16.66576271186439","683","328.5","","","","","","","",""
"5532.599999904633","arrowleft","psychophysics","5","135323","0.0-3.0-0.1","","key","arrowleft","16.66864759036143","683","328.5","2","1","-1","26","15","25","35","true"
"null","null","psychophysics","6","136332","0.0-3.0-1.1","","key","null","16.666983050847687","683","328.5","","","","","","","",""
"2078.5999999046326","arrowright","psychophysics","7","138420","0.0-3.0-0.2","","key","arrowright","16.66632799999998","683","328.5","3","1","1","27","15","25","35","true"
"null","null","psychophysics","8","139433","0.0-3.0-1.2","","key","null","16.668508474575948","683","328.5","","","","","","","",""
"1500","arrowright","psychophysics","9","140942","0.0-3.0-0.3","","key","arrowright","16.668255555555678","683","328.5","4","1","1","30","15","25","35","true"
"null","null","psychophysics","10","141947","0.0-3.0-1.3","","key","null","16.667779661017033","683","328.5","","","","","","","",""
"1140.2000000476837","arrowright","psychophysics","11","143103","0.0-3.0-0.4","","key","arrowright","16.674913043478096","683","328.5","5","1","1","30","35","25","35","true"
"null","null","psychophysics","12","144116","0.0-3.0-1.4","","key","null","16.667050847457624","683","328.5","","","","","","","",""
"1364.7000000476837","arrowright","psychophysics","13","145492","0.0-3.0-0.5","","key","arrowright","16.66610975609773","683","328.5","6","1","-1","20","15","25","35","false"
"null","null","psychophysics","14","146499","0.0-3.0-1.5","","key","null","16.672796610169115","683","328.5","","","","","","","",""
"6136.200000047684","arrowright","psychophysics","15","152646","0.0-3.0-0.6","","key","arrowright","16.667967391304284","683","328.5","7","1","1","27","15","25","35","true"
"null","null","psychophysics","16","153650","0.0-3.0-1.6","","key","null","16.661847457627104","683","328.5","","","","","","","",""
"2913","arrowleft","psychophysics","17","156571","0.0-3.0-0.7","","key","arrowleft","16.666680000000134","683","328.5","8","1","1","24","15","25","35","false"
"null","null","psychophysics","18","157584","0.0-3.0-1.7","","key","null","16.667474576271083","683","328.5","","","","","","","",""
"1176","arrowright","psychophysics","19","158779","0.0-3.0-0.8","","key","arrowright","16.668014084506684","683","328.5","9","1","-1","25","15","25","35","false"
"null","null","psychophysics","20","159783","0.0-3.0-1.8","","key","null","16.668016949152552","683","328.5","","","","","","","",""
"1464.0999999046326","arrowright","psychophysics","21","161258","0.0-3.0-0.9","","key","arrowright","16.673238636363582","683","328.5","10","1","1","27","15","25","35","true"
"null","null","psychophysics","22","162270","0.0-3.0-1.9","","key","null","16.6678833333334","683","328.5","","","","","","","",""
"2285.899999856949","arrowright","psychophysics","23","164565","0.0-3.0-0.10","","key","arrowright","16.671580882353094","683","328.5","11","1","-1","23","35","25","35","false"
"null","null","psychophysics","24","165567","0.0-3.0-1.10","","key","null","16.669406779661433","683","328.5","","","","","","","",""
"6869.5","arrowright","psychophysics","25","172445","0.0-3.0-0.11","","key","arrowright","16.667126213592233","683","328.5","12","1","-1","23","15","25","35","false"
"null","null","psychophysics","26","173451","0.0-3.0-1.11","","key","null","16.668627118643954","683","328.5","","","","","","","",""
"1092.9000000953674","arrowright","psychophysics","27","174555","0.0-3.0-0.12","","key","arrowright","16.66910606060595","683","328.5","13","1","-1","20","35","25","35","false"
"null","null","psychophysics","28","175569","0.0-3.0-1.12","","key","null","16.667474576271577","683","328.5","","","","","","","",""
"1829.4000000953674","arrowright","psychophysics","29","177413","0.0-3.0-0.13","","key","arrowright","16.66449090909102","683","328.5","14","1","-1","23","35","25","35","false"
"null","null","psychophysics","30","178416","0.0-3.0-1.13","","key","null","16.659457627118574","683","328.5","","","","","","","",""
"1847.7000000476837","arrowleft","psychophysics","31","180275","0.0-3.0-0.14","","key","arrowleft","16.67146846846843","683","328.5","15","1","-1","25","15","25","35","true"
"null","null","psychophysics","32","181286","0.0-3.0-1.14","","key","null","16.665881355931898","683","328.5","","","","","","","",""
"3127.7000000476837","arrowright","psychophysics","33","184422","0.0-3.0-0.15","","key","arrowright","16.66722872340417","683","328.5","16","1","-1","24","35","25","35","false"
"null","null","psychophysics","34","185431","0.0-3.0-1.15","","key","null","16.668779661017172","683","328.5","","","","","","","",""
"2254","arrowleft","psychophysics","35","187690","0.0-3.0-0.16","","key","arrowleft","16.66811851851849","683","328.5","17","1","1","23","35","25","35","false"
"null","null","psychophysics","36","188702","0.0-3.0-1.16","","key","null","16.67447457627109","683","328.5","","","","","","","",""
"1686.2999999523163","arrowright","psychophysics","37","190414","0.0-3.0-0.17","","key","arrowright","16.66797058823531","683","328.5","18","1","-1","24","35","25","35","false"
"null","null","psychophysics","38","191419","0.0-3.0-1.17","","key","null","16.67537288135559","683","328.5","","","","","","","",""
"980.2000000476837","arrowleft","psychophysics","39","192410","0.0-3.0-0.18","","key","arrowleft","16.667999999999697","683","328.5","19","1","-1","27","35","25","35","true"
"null","null","psychophysics","40","193420","0.0-3.0-1.18","","key","null","16.676084745762637","683","328.5","","","","","","","",""
"661.5999999046326","arrowright","psychophysics","41","194090","0.0-3.0-0.19","","key","arrowright","16.670524999999905","683","328.5","20","1","-1","23","15","25","35","false"
"null","null","psychophysics","42","195100","0.0-3.0-1.19","","key","null","16.66708474576284","683","328.5","","","","","","","",""
"907.5","arrowleft","psychophysics","43","196024","0.0-3.0-0.20","","key","arrowleft","16.667854545454347","683","328.5","21","1","1","23","15","25","35","false"
"null","null","psychophysics","44","197037","0.0-3.0-1.20","","key","null","16.667525423729153","683","328.5","","","","","","","",""
"1096.3999998569489","arrowright","psychophysics","45","198141","0.0-3.0-0.21","","key","arrowright","16.66956060606048","683","328.5","22","1","-1","20","35","25","35","false"
"null","null","psychophysics","46","199153","0.0-3.0-1.21","","key","null","16.668389830508435","683","328.5","","","","","","","",""
"859.7000000476837","arrowleft","psychophysics","47","200033","0.0-3.0-0.22","","key","arrowleft","16.658038461538336","683","328.5","23","1","-1","26","15","25","35","true"
"null","null","psychophysics","48","201038","0.0-3.0-1.22","","key","null","16.6678833333334","683","328.5","","","","","","","",""
"1544.5","arrowleft","psychophysics","49","202605","0.0-3.0-0.23","","key","arrowleft","16.668720430107438","683","328.5","24","1","-1","25","35","25","35","true"
"null","null","psychophysics","50","203620","0.0-3.0-1.23","","key","null","16.660118644067552","683","328.5","","","","","","","",""
"1398.2000000476837","arrowleft","psychophysics","51","205024","0.0-3.0-0.24","","key","arrowleft","16.667476190476183","683","328.5","25","1","1","20","15","25","35","false"
"null","null","psychophysics","52","206034","0.0-3.0-1.24","","key","null","16.668016949152552","683","328.5","","","","","","","",""
"3384.0999999046326","arrowright","psychophysics","53","209427","0.0-3.0-0.25","","key","arrowright","16.66866995073887","683","328.5","26","1","-1","25","15","25","35","false"
"null","null","psychophysics","54","210438","0.0-3.0-1.25","","key","null","16.668389830508435","683","328.5","","","","","","","",""
"1697.8999998569489","arrowright","psychophysics","55","212150","0.0-3.0-0.26","","key","arrowright","16.672049019607833","683","328.5","27","1","1","26","15","25","35","true"
"null","null","psychophysics","56","213154","0.0-3.0-1.26","","key","null","16.667508474576298","683","328.5","","","","","","","",""
"797.8999998569489","arrowleft","psychophysics","57","213962","0.0-3.0-0.27","","key","arrowleft","16.665187500000076","683","328.5","28","2","1","20","15","25","35","false"
"null","null","psychophysics","58","214971","0.0-3.0-1.27","","key","null","16.66991525423719","683","328.5","","","","","","","",""
"5132.699999809265"," ","html-keyboard-response","59","220108","0.0-3.0-2.27-0.27","<div style=""color: white; text-align: center; vertical-align: top; display: inline-block; width: 800px; margin: auto""><p>You have completed 10% of the trials. You are on block 2 of 10. <br>Good job! Take a break if you need to.</p><p>Press any key to continue the experiment.</p></div>","","","","","","","","","","","","",""
"4127","arrowleft","psychophysics","60","225250","0.0-3.0-0.28","","key","arrowleft","16.735093117408905","683","328.5","29","2","1","23","15","25","35","false"
"null","null","psychophysics","61","226256","0.0-3.0-1.28","","key","null","16.67033898305065","683","328.5","","","","","","","",""
"681","arrowleft","psychophysics","62","226946","0.0-3.0-0.29","","key","arrowleft","16.66853658536594","683","328.5","30","2","1","20","35","25","35","false"
"null","null","psychophysics","63","227956","0.0-3.0-1.29","","key","null","16.66720338983035","683","328.5","","","","","","","",""
"961.4000000953674","arrowright","psychophysics","64","228925","0.0-3.0-0.30","","key","arrowright","16.669603448275854","683","328.5","31","2","-1","23","35","25","35","false"
"null","null","psychophysics","65","229931","0.0-3.0-1.30","","key","null","16.66827118644043","683","328.5","","","","","","","",""
"940.7000000476837","arrowright","psychophysics","66","230876","0.0-3.0-0.31","","key","arrowright","16.664839285714283","683","328.5","32","2","1","30","15","25","35","true"
"null","null","psychophysics","67","231884","0.0-3.0-1.31","","key","null","16.666830508474465","683","328.5","","","","","","","",""
"966","arrowleft","psychophysics","68","232858","0.0-3.0-0.32","","key","arrowleft","16.67607017543847","683","328.5","33","2","1","20","35","25","35","false"
"null","null","psychophysics","69","233866","0.0-3.0-1.32","","key","null","16.67496666666654","683","328.5","","","","","","","",""
"942.8999998569489","arrowleft","psychophysics","70","234814","0.0-3.0-0.33","","key","arrowleft","16.66187500000004","683","328.5","34","2","-1","27","35","25","35","true"
"null","null","psychophysics","71","235818","0.0-3.0-1.33","","key","null","16.66757627118673","683","328.5","","","","","","","",""
"1078.2999999523163","arrowleft","psychophysics","72","236908","0.0-3.0-0.34","","key","arrowleft","16.670234374999836","683","328.5","35","2","1","23","35","25","35","false"
"null","null","psychophysics","73","237915","0.0-3.0-1.34","","key","null","16.664966666666928","683","328.5","","","","","","","",""
"1341","arrowright","psychophysics","74","239261","0.0-3.0-0.35","","key","arrowright","16.672375000000102","683","328.5","36","2","1","26","15","25","35","true"
"null","null","psychophysics","75","240266","0.0-3.0-1.35","","key","null","16.668627118644448","683","328.5","","","","","","","",""
"871.7999999523163","arrowleft","psychophysics","76","241142","0.0-3.0-0.36","","key","arrowleft","16.666596153846164","683","328.5","37","2","1","20","15","25","35","false"
"null","null","psychophysics","77","242148","0.0-3.0-1.36","","key","null","16.67313559322028","683","328.5","","","","","","","",""
"877.2000000476837","arrowright","psychophysics","78","243042","0.0-3.0-0.37","","key","arrowright","16.67080769230793","683","328.5","38","2","1","30","15","25","35","true"
"null","null","psychophysics","79","244051","0.0-3.0-1.37","","key","null","16.66948333333324","683","328.5","","","","","","","",""
"1241","arrowleft","psychophysics","80","245296","0.0-3.0-0.38","","key","arrowleft","16.66905405405418","683","328.5","39","2","1","23","35","25","35","false"
"null","null","psychophysics","81","246299","0.0-3.0-1.38","","key","null","16.671271186440855","683","328.5","","","","","","","",""
"987.5999999046326","arrowleft","psychophysics","82","247291","0.0-3.0-0.39","","key","arrowleft","16.6753275862068","683","328.5","40","2","1","23","35","25","35","false"
"null","null","psychophysics","83","248293","0.0-3.0-1.39","","key","null","16.675099999999897","683","328.5","","","","","","","",""
"977.2000000476837","arrowleft","psychophysics","84","249275","0.0-3.0-0.40","","key","arrowleft","16.667263157894475","683","328.5","41","2","1","25","35","25","35","false"
"null","null","psychophysics","85","250283","0.0-3.0-1.40","","key","null","16.674933333333563","683","328.5","","","","","","","",""
"3374.5","arrowleft","psychophysics","86","253662","0.0-3.0-0.41","","key","arrowleft","16.66757425742577","683","328.5","42","2","1","25","35","25","35","false"
"null","null","psychophysics","87","254667","0.0-3.0-1.41","","key","null","16.668016949152552","683","328.5","","","","","","","",""
"2000.5999999046326","arrowleft","psychophysics","88","256672","0.0-3.0-0.42","","key","arrowleft","16.667991596638732","683","328.5","43","2","-1","26","15","25","35","true"
"null","null","psychophysics","89","257675","0.0-3.0-1.42","","key","null","16.675305084745652","683","328.5","","","","","","","",""
"589.5999999046326","arrowright","psychophysics","90","258282","0.0-3.0-0.43","","key","arrowright","16.66833333333327","683","328.5","44","2","-1","23","15","25","35","false"
"null","null","psychophysics","91","259292","0.0-3.0-1.43","","key","null","16.66762711864381","683","328.5","","","","","","","",""
"1062.1000001430511","arrowleft","psychophysics","92","260362","0.0-3.0-0.44","","key","arrowleft","16.671218749999753","683","328.5","45","2","1","25","35","25","35","false"
"null","null","psychophysics","93","261371","0.0-3.0-1.44","","key","null","16.660864406779815","683","328.5","","","","","","","",""
"1103","arrowright","psychophysics","94","262478","0.0-3.0-0.45","","key","arrowright","16.670803030302825","683","328.5","46","2","1","30","15","25","35","true"
"null","null","psychophysics","95","263483","0.0-3.0-1.45","","key","null","16.667576271187222","683","328.5","","","","","","","",""
"2425.5999999046326","arrowleft","psychophysics","96","265913","0.0-3.0-0.46","","key","arrowleft","16.665434482758705","683","328.5","47","2","-1","25","15","25","35","true"
"null","null","psychophysics","97","266923","0.0-3.0-1.46","","key","null","16.66783050847461","683","328.5","","","","","","","",""
"8579.599999904633","arrowright","psychophysics","98","275512","0.0-3.0-0.47","","key","arrowright","16.668005825242805","683","328.5","48","2","-1","25","35","25","35","false"
"null","null","psychophysics","99","276514","0.0-3.0-1.47","","key","null","16.66554237288123","683","328.5","","","","","","","",""
"945.2999999523163","arrowleft","psychophysics","100","277464","0.0-3.0-0.48","","key","arrowleft","16.669732142857224","683","328.5","49","2","-1","30","15","25","35","true"
"null","null","psychophysics","101","278466","0.0-3.0-1.48","","key","null","16.66638983050815","683","328.5","","","","","","","",""
"1656.0999999046326","arrowleft","psychophysics","102","280131","0.0-3.0-0.49","","key","arrowleft","16.668555555555315","683","328.5","50","2","1","25","15","25","35","false"
"null","null","psychophysics","103","281138","0.0-3.0-1.49","","key","null","16.662694915254026","683","328.5","","","","","","","",""
"1251.5","arrowleft","psychophysics","104","282397","0.0-3.0-0.50","","key","arrowleft","16.674813333333006","683","328.5","51","2","-1","27","15","25","35","true"
"null","null","psychophysics","105","283402","0.0-3.0-1.50","","key","null","16.666457627118582","683","328.5","","","","","","","",""
"1197.8999998569489","arrowleft","psychophysics","106","284605","0.0-3.0-0.51","","key","arrowleft","16.67378873239406","683","328.5","52","2","1","27","35","25","35","false"
"null","null","psychophysics","107","285610","0.0-3.0-1.51","","key","null","16.6725593220336","683","328.5","","","","","","","",""
"1349.0999999046326","arrowright","psychophysics","108","286967","0.0-3.0-0.52","","key","arrowright","16.67202469135813","683","328.5","53","2","1","26","15","25","35","true"
"null","null","psychophysics","109","287971","0.0-3.0-1.52","","key","null","16.667576271186235","683","328.5","","","","","","","",""
"1110.7999999523163","arrowleft","psychophysics","110","289091","0.0-3.0-0.53","","key","arrowleft","16.669651515151298","683","328.5","54","2","1","24","35","25","35","false"
"null","null","psychophysics","111","290097","0.0-3.0-1.53","","key","null","16.675016666666487","683","328.5","","","","","","","",""
"847.5","arrowright","psychophysics","112","290949","0.0-3.0-0.54","","key","arrowright","16.67489999999991","683","328.5","55","2","-1","23","35","25","35","false"
"null","null","psychophysics","113","291954","0.0-3.0-1.54","","key","null","16.673491525423312","683","328.5","","","","","","","",""
"550.5999999046326","arrowleft","psychophysics","114","292514","0.0-3.0-0.55","","key","arrowleft","16.678575757576972","683","328.5","56","3","1","27","35","25","35","false"
"null","null","psychophysics","115","293522","0.0-3.0-1.55","","key","null","16.661864406779465","683","328.5","","","","","","","",""
"4832.699999809265"," ","html-keyboard-response","116","298356","0.0-3.0-2.55-0.55","<div style=""color: white; text-align: center; vertical-align: top; display: inline-block; width: 800px; margin: auto""><p>You have completed 20% of the trials. You are on block 3 of 10. <br>Good job! Take a break if you need to.</p><p>Press any key to continue the experiment.</p></div>","","","","","","","","","","","","",""
"720.9000000953674","arrowleft","psychophysics","117","300094","0.0-3.0-0.56","","key","arrowleft","16.675581395348566","683","328.5","57","3","-1","30","35","25","35","true"
"null","null","psychophysics","118","301097","0.0-3.0-1.56","","key","null","16.675750000000697","683","328.5","","","","","","","",""
"2641.899999856949","arrowleft","psychophysics","119","303744","0.0-3.0-0.57","","key","arrowleft","16.668222929936075","683","328.5","58","3","-1","23","15","25","35","true"
"null","null","psychophysics","120","304750","0.0-3.0-1.57","","key","null","16.667533333333754","683","328.5","","","","","","","",""
"1344.4000000953674","arrowleft","psychophysics","121","306109","0.0-3.0-0.58","","key","arrowleft","16.656049999999958","683","328.5","59","3","1","24","35","25","35","false"
"null","null","psychophysics","122","307112","0.0-3.0-1.58","","key","null","16.67259322033832","683","328.5","","","","","","","",""
"1345.2000000476837","arrowright","psychophysics","123","308467","0.0-3.0-0.59","","key","arrowright","16.66811111111145","683","328.5","60","3","-1","24","15","25","35","false"
"null","null","psychophysics","124","309479","0.0-3.0-1.59","","key","null","16.662288135593418","683","328.5","","","","","","","",""
"727.7000000476837","arrowleft","psychophysics","125","310223","0.0-3.0-0.60","","key","arrowleft","16.66772727272738","683","328.5","61","3","-1","30","35","25","35","true"
"null","null","psychophysics","126","311229","0.0-3.0-1.60","","key","null","16.66696610169434","683","328.5","","","","","","","",""
"660.7000000476837","arrowleft","psychophysics","127","311898","0.0-3.0-0.61","","key","arrowleft","16.656449999999314","683","328.5","62","3","-1","26","15","25","35","true"
"null","null","psychophysics","128","312912","0.0-3.0-1.61","","key","null","16.66733898305121","683","328.5","","","","","","","",""
"1022.4000000953674","arrowleft","psychophysics","129","313955","0.0-3.0-0.62","","key","arrowleft","16.66859677419322","683","328.5","63","3","1","20","35","25","35","false"
"null","null","psychophysics","130","314963","0.0-3.0-1.62","","key","null","16.67440677966066","683","328.5","","","","","","","",""
"818.2000000476837","arrowright","psychophysics","131","315790","0.0-3.0-0.63","","key","arrowright","16.666204081632063","683","328.5","64","3","-1","20","15","25","35","false"
"null","null","psychophysics","132","316796","0.0-3.0-1.63","","key","null","16.668016949152552","683","328.5","","","","","","","",""
"1005.5999999046326","arrowleft","psychophysics","133","317817","0.0-3.0-0.64","","key","arrowleft","16.669950819671627","683","328.5","65","3","-1","27","35","25","35","true"
"null","null","psychophysics","134","318822","0.0-3.0-1.64","","key","null","16.66786440677933","683","328.5","","","","","","","",""
"1028.7999999523163","arrowright","psychophysics","135","319856","0.0-3.0-0.65","","key","arrowright","16.67544262295066","683","328.5","66","3","-1","25","15","25","35","false"
"null","null","psychophysics","136","320863","0.0-3.0-1.65","","key","null","16.667813559322248","683","328.5","","","","","","","",""
"980.2000000476837","arrowright","psychophysics","137","321853","0.0-3.0-0.66","","key","arrowright","16.662135593221183","683","328.5","67","3","-1","20","35","25","35","false"
"null","null","psychophysics","138","322859","0.0-3.0-1.66","","key","null","16.666694915253604","683","328.5","","","","","","","",""
"1166.8000001907349","arrowright","psychophysics","139","324043","0.0-3.0-0.67","","key","arrowright","16.668528571428865","683","328.5","68","3","1","25","35","25","35","true"
"null","null","psychophysics","140","325046","0.0-3.0-1.67","","key","null","16.67567796610154","683","328.5","","","","","","","",""
"932.3000001907349","arrowleft","psychophysics","141","325987","0.0-3.0-0.68","","key","arrowleft","16.66946428571412","683","328.5","69","3","1","20","35","25","35","false"
"null","null","psychophysics","142","326997","0.0-3.0-1.68","","key","null","16.667593220338595","683","328.5","","","","","","","",""
"1276.5999999046326","arrowleft","psychophysics","143","328295","0.0-3.0-0.69","","key","arrowleft","16.665428571427974","683","328.5","70","3","-1","25","15","25","35","true"
"null","null","psychophysics","144","329297","0.0-3.0-1.69","","key","null","16.6763389830515","683","328.5","","","","","","","",""
"788.3000001907349","arrowleft","psychophysics","145","330105","0.0-3.0-0.70","","key","arrowleft","16.661187500000477","683","328.5","71","3","-1","25","35","25","35","true"
"null","null","psychophysics","146","331114","0.0-3.0-1.70","","key","null","16.675423728814152","683","328.5","","","","","","","",""
"686.2000000476837","arrowleft","psychophysics","147","331809","0.0-3.0-0.71","","key","arrowleft","16.657073170731763","683","328.5","72","3","1","23","15","25","35","false"
"null","null","psychophysics","148","332814","0.0-3.0-1.71","","key","null","16.66945762711802","683","328.5","","","","","","","",""
"983.0999999046326","arrowright","psychophysics","149","333810","0.0-3.0-0.72","","key","arrowright","16.668033898304913","683","328.5","73","3","-1","20","35","25","35","false"
"null","null","psychophysics","150","334814","0.0-3.0-1.72","","key","null","16.668271186440922","683","328.5","","","","","","","",""
"3234.2000000476837","arrowleft","psychophysics","151","338057","0.0-3.0-0.73","","key","arrowleft","16.668015463917683","683","328.5","74","3","1","26","35","25","35","false"
"null","null","psychophysics","152","339065","0.0-3.0-1.73","","key","null","16.668440677966505","683","328.5","","","","","","","",""
"618.2000000476837","arrowleft","psychophysics","153","339692","0.0-3.0-0.74","","key","arrowleft","16.6648378378375","683","328.5","75","3","1","24","15","25","35","false"
"null","null","psychophysics","154","340698","0.0-3.0-1.74","","key","null","16.668406779660796","683","328.5","","","","","","","",""
"1444.2999999523163","arrowright","psychophysics","155","342151","0.0-3.0-0.75","","key","arrowright","16.66524137931022","683","328.5","76","3","1","27","35","25","35","true"
"null","null","psychophysics","156","343159","0.0-3.0-1.75","","key","null","16.668796610170027","683","328.5","","","","","","","",""
"1472.3999998569489","arrowleft","psychophysics","157","344636","0.0-3.0-0.76","","key","arrowleft","16.667852272727362","683","328.5","77","3","1","24","35","25","35","false"
"null","null","psychophysics","158","345644","0.0-3.0-1.76","","key","null","16.659627118644156","683","328.5","","","","","","","",""
"837.9000000953674","arrowleft","psychophysics","159","346506","0.0-3.0-0.77","","key","arrowleft","16.679274509803566","683","328.5","78","3","-1","30","35","25","35","true"
"null","null","psychophysics","160","347515","0.0-3.0-1.77","","key","null","16.666864406779187","683","328.5","","","","","","","",""
"935.0999999046326","arrowleft","psychophysics","161","348459","0.0-3.0-0.78","","key","arrowleft","16.668678571428504","683","328.5","79","3","-1","24","15","25","35","true"
"null","null","psychophysics","162","349465","0.0-3.0-1.78","","key","null","16.675999999999352","683","328.5","","","","","","","",""
"2611.2999999523163","arrowright","psychophysics","163","352085","0.0-3.0-0.79","","key","arrowright","16.667312101910714","683","328.5","80","3","1","27","35","25","35","true"
"null","null","psychophysics","164","353098","0.0-3.0-1.79","","key","null","16.671542372882083","683","328.5","","","","","","","",""
"4400.400000095367","arrowleft","psychophysics","165","357519","0.0-3.0-0.80","","key","arrowleft","16.66955094339616","683","328.5","81","3","-1","26","35","25","35","true"
"null","null","psychophysics","166","358524","0.0-3.0-1.80","","key","null","16.659440677966213","683","328.5","","","","","","","",""
"779.2000000476837","arrowleft","psychophysics","167","359308","0.0-3.0-0.81","","key","arrowleft","16.67832608695734","683","328.5","82","3","1","24","35","25","35","false"
"null","null","psychophysics","168","360315","0.0-3.0-1.81","","key","null","16.66940677966094","683","328.5","","","","","","","",""
"611.1999998092651","arrowleft","psychophysics","169","360940","0.0-3.0-0.82","","key","arrowleft","16.670972972972997","683","328.5","83","3","1","23","35","25","35","false"
"null","null","psychophysics","170","361949","0.0-3.0-1.82","","key","null","16.66642372881386","683","328.5","","","","","","","",""
"694.8000001907349","arrowleft","psychophysics","171","362653","0.0-3.0-0.83","","key","arrowleft","16.668095238095184","683","328.5","84","4","1","20","35","25","35","false"
"null","null","psychophysics","172","363663","0.0-3.0-1.83","","key","null","16.66777966101654","683","328.5","","","","","","","",""
"2461.7999999523163"," ","html-keyboard-response","173","366131","0.0-3.0-2.83-0.83","<div style=""color: white; text-align: center; vertical-align: top; display: inline-block; width: 800px; margin: auto""><p>You have completed 30% of the trials. You are on block 4 of 10. <br>Good job! Take a break if you need to.</p><p>Press any key to continue the experiment.</p></div>","","","","","","","","","","","","",""
"988.7000000476837","arrowright","psychophysics","174","368147","0.0-3.0-0.84","","key","arrowright","16.662355932203848","683","328.5","85","4","1","26","15","25","35","true"
"null","null","psychophysics","175","369149","0.0-3.0-1.84","","key","null","16.675542372880678","683","328.5","","","","","","","",""
"1585","arrowright","psychophysics","176","370744","0.0-3.0-0.85","","key","arrowright","16.67073684210497","683","328.5","86","4","1","26","35","25","35","true"
"null","null","psychophysics","177","371751","0.0-3.0-1.85","","key","null","16.67181355932183","683","328.5","","","","","","","",""
"1190.4000000953674","arrowleft","psychophysics","178","372947","0.0-3.0-0.86","","key","arrowleft","16.668647887324585","683","328.5","87","4","1","26","35","25","35","false"
"null","null","psychophysics","179","373950","0.0-3.0-1.86","","key","null","16.673186440677856","683","328.5","","","","","","","",""
"574.3000001907349","arrowright","psychophysics","180","374538","0.0-3.0-0.87","","key","arrowright","16.671599999999827","683","328.5","88","4","-1","25","15","25","35","false"
"null","null","psychophysics","181","375549","0.0-3.0-1.87","","key","null","16.667457627118722","683","328.5","","","","","","","",""
"1050.5999999046326","arrowright","psychophysics","182","376609","0.0-3.0-0.88","","key","arrowright","16.674206349206905","683","328.5","89","4","1","27","15","25","35","true"
"null","null","psychophysics","183","377617","0.0-3.0-1.88","","key","null","16.668016949152552","683","328.5","","","","","","","",""
"1364.0999999046326","arrowright","psychophysics","184","378996","0.0-3.0-0.89","","key","arrowright","16.668207317073232","683","328.5","90","4","-1","20","35","25","35","false"
"null","null","psychophysics","185","380000","0.0-3.0-1.89","","key","null","16.660118644067552","683","328.5","","","","","","","",""
"796.3000001907349","arrowleft","psychophysics","186","380802","0.0-3.0-0.90","","key","arrowleft","16.667187499999272","683","328.5","91","4","-1","30","15","25","35","true"
"null","null","psychophysics","187","381813","0.0-3.0-1.90","","key","null","16.667525423728165","683","328.5","","","","","","","",""
"862","arrowleft","psychophysics","188","382678","0.0-3.0-0.91","","key","arrowleft","16.669117647058822","683","328.5","92","4","-1","26","35","25","35","true"
"null","null","psychophysics","189","383685","0.0-3.0-1.91","","key","null","16.669779661016822","683","328.5","","","","","","","",""
"1229.5999999046326","arrowleft","psychophysics","190","384938","0.0-3.0-0.92","","key","arrowleft","16.668199999999874","683","328.5","93","4","-1","26","35","25","35","true"
"null","null","psychophysics","191","385951","0.0-3.0-1.92","","key","null","16.667915254236412","683","328.5","","","","","","","",""
"628.7000000476837","arrowleft","psychophysics","192","386589","0.0-3.0-0.93","","key","arrowleft","16.654973684209644","683","328.5","94","4","-1","30","35","25","35","true"
"null","null","psychophysics","193","387600","0.0-3.0-1.93","","key","null","16.67205084745784","683","328.5","","","","","","","",""
"896.5999999046326","arrowleft","psychophysics","194","388509","0.0-3.0-0.94","","key","arrowleft","16.675592592592928","683","328.5","95","4","1","23","15","25","35","false"
"null","null","psychophysics","195","389518","0.0-3.0-1.94","","key","null","16.66749152542443","683","328.5","","","","","","","",""
"386.90000009536743","arrowleft","psychophysics","196","389923","0.0-3.0-0.95","","key","arrowleft","16.671166666666977","683","328.5","96","4","1","20","35","25","35","false"
"null","null","psychophysics","197","390935","0.0-3.0-1.95","","key","null","16.667711864406108","683","328.5","","","","","","","",""
"601.5","arrowright","psychophysics","198","391560","0.0-3.0-0.96","","key","arrowright","16.669162162162703","683","328.5","97","4","1","30","35","25","35","true"
"null","null","psychophysics","199","392566","0.0-3.0-1.96","","key","null","16.668355932203713","683","328.5","","","","","","","",""
"1088.7000000476837","arrowleft","psychophysics","200","393668","0.0-3.0-0.97","","key","arrowleft","16.673246153846133","683","328.5","98","4","1","27","15","25","35","false"
"null","null","psychophysics","201","394685","0.0-3.0-1.97","","key","null","16.67538333333311","683","328.5","","","","","","","",""
"1511.5","arrowleft","psychophysics","202","396205","0.0-3.0-0.98","","key","arrowleft","16.667549450549163","683","328.5","99","4","-1","25","15","25","35","true"
"null","null","psychophysics","203","397219","0.0-3.0-1.98","","key","null","16.676016949151713","683","328.5","","","","","","","",""
"1797.7999999523163","arrowleft","psychophysics","204","399025","0.0-3.0-0.99","","key","arrowleft","16.666842592592864","683","328.5","100","4","-1","27","15","25","35","true"
"null","null","psychophysics","205","400036","0.0-3.0-1.99","","key","null","16.675440677966513","683","328.5","","","","","","","",""
"1250.1000001430511","arrowleft","psychophysics","206","401295","0.0-3.0-0.100","","key","arrowleft","16.66721333333291","683","328.5","101","4","-1","26","35","25","35","true"
"null","null","psychophysics","207","402301","0.0-3.0-1.100","","key","null","16.67662711864361","683","328.5","","","","","","","",""
"1468.6000001430511","arrowright","psychophysics","208","403778","0.0-3.0-0.101","","key","arrowright","16.670909090909515","683","328.5","102","4","-1","23","35","25","35","false"
"null","null","psychophysics","209","404786","0.0-3.0-1.101","","key","null","16.67042372881344","683","328.5","","","","","","","",""
"1906.7000000476837","arrowright","psychophysics","210","406706","0.0-3.0-0.102","","key","arrowright","16.666278260869337","683","328.5","103","4","1","27","15","25","35","true"
"null","null","psychophysics","211","407718","0.0-3.0-1.102","","key","null","16.674559322033883","683","328.5","","","","","","","",""
"1135.6999998092651","arrowright","psychophysics","212","408867","0.0-3.0-0.103","","key","arrowright","16.674147058823593","683","328.5","104","4","-1","24","35","25","35","false"
"null","null","psychophysics","213","409870","0.0-3.0-1.103","","key","null","16.6760169491527","683","328.5","","","","","","","",""
"978.8000001907349","arrowleft","psychophysics","214","410874","0.0-3.0-0.104","","key","arrowleft","16.660716666666364","683","328.5","105","4","1","24","15","25","35","false"
"null","null","psychophysics","215","411886","0.0-3.0-1.104","","key","null","16.673915254237265","683","328.5","","","","","","","",""
"923","arrowright","psychophysics","216","412818","0.0-3.0-0.105","","key","arrowright","16.667672727272887","683","328.5","106","4","1","30","15","25","35","true"
"null","null","psychophysics","217","413822","0.0-3.0-1.105","","key","null","16.67553333333344","683","328.5","","","","","","","",""
"1292.4000000953674","arrowleft","psychophysics","218","415125","0.0-3.0-0.106","","key","arrowleft","16.675610389610352","683","328.5","107","4","-1","25","35","25","35","true"
"null","null","psychophysics","219","416132","0.0-3.0-1.106","","key","null","16.66394915254254","683","328.5","","","","","","","",""
"876.7999999523163","arrowright","psychophysics","220","417014","0.0-3.0-0.107","","key","arrowright","16.675326923077453","683","328.5","108","4","1","30","35","25","35","true"
"null","null","psychophysics","221","418020","0.0-3.0-1.107","","key","null","16.67586440677948","683","328.5","","","","","","","",""
"1062.1000001430511","arrowright","psychophysics","222","419091","0.0-3.0-0.108","","key","arrowright","16.659562499999993","683","328.5","109","4","1","27","35","25","35","true"
"null","null","psychophysics","223","420099","0.0-3.0-1.108","","key","null","16.667508474575804","683","328.5","","","","","","","",""
"1481.4000000953674","arrowleft","psychophysics","224","421593","0.0-3.0-0.109","","key","arrowleft","16.668775280898966","683","328.5","110","4","1","24","15","25","35","false"
"null","null","psychophysics","225","422604","0.0-3.0-1.109","","key","null","16.676152542372574","683","328.5","","","","","","","",""
"1135","arrowleft","psychophysics","226","423756","0.0-3.0-0.110","","key","arrowleft","16.663985507246412","683","328.5","111","4","1","20","15","25","35","false"
"null","null","psychophysics","227","424767","0.0-3.0-1.110","","key","null","16.667762711864178","683","328.5","","","","","","","",""
"3026.600000143051","arrowright","psychophysics","228","427806","0.0-3.0-0.111","","key","arrowright","16.655527472527375","683","328.5","112","5","-1","23","35","25","35","false"
"null","null","psychophysics","229","428819","0.0-3.0-1.111","","key","null","16.662915254237674","683","328.5","","","","","","","",""
"2124"," ","html-keyboard-response","230","430946","0.0-3.0-2.111-0.111","<div style=""color: white; text-align: center; vertical-align: top; display: inline-block; width: 800px; margin: auto""><p>You have completed 40% of the trials. You are on block 5 of 10. <br>Good job! Take a break if you need to.</p><p>Press any key to continue the experiment.</p></div>","","","","","","","","","","","","",""
"863.6000001430511","arrowright","psychophysics","231","432825","0.0-3.0-0.112","","key","arrowright","16.670173076922836","683","328.5","113","5","-1","25","15","25","35","false"
"null","null","psychophysics","232","433834","0.0-3.0-1.112","","key","null","16.66542372881273","683","328.5","","","","","","","",""
"726","arrowleft","psychophysics","233","434568","0.0-3.0-0.113","","key","arrowleft","16.67746511628028","683","328.5","114","5","-1","25","35","25","35","true"
"null","null","psychophysics","234","435571","0.0-3.0-1.113","","key","null","16.672016949153118","683","328.5","","","","","","","",""
"704.8999998569489","arrowleft","psychophysics","235","436283","0.0-3.0-0.114","","key","arrowleft","16.6689761904764","683","328.5","115","5","1","25","35","25","35","false"
"null","null","psychophysics","236","437288","0.0-3.0-1.114","","key","null","16.664474576270656","683","328.5","","","","","","","",""
"1261.1999998092651","arrowleft","psychophysics","237","438559","0.0-3.0-0.115","","key","arrowleft","16.666421052631403","683","328.5","116","5","-1","26","15","25","35","true"
"null","null","psychophysics","238","439571","0.0-3.0-1.115","","key","null","16.667711864407096","683","328.5","","","","","","","",""
"7072.900000095367","arrowleft","psychophysics","239","446659","0.0-3.0-0.116","","key","arrowleft","16.666957647058812","683","328.5","117","5","1","23","35","25","35","false"
"null","null","psychophysics","240","447668","0.0-3.0-1.116","","key","null","16.666864406780174","683","328.5","","","","","","","",""
"1276.2999999523163","arrowleft","psychophysics","241","448959","0.0-3.0-0.117","","key","arrowleft","16.672896103895656","683","328.5","118","5","1","25","35","25","35","false"
"null","null","psychophysics","242","449972","0.0-3.0-1.117","","key","null","16.669440677966648","683","328.5","","","","","","","",""
"1340.7000000476837","arrowleft","psychophysics","243","451325","0.0-3.0-0.118","","key","arrowleft","16.668246913580568","683","328.5","119","5","1","20","15","25","35","false"
"null","null","psychophysics","244","452339","0.0-3.0-1.118","","key","null","16.665305084745217","683","328.5","","","","","","","",""
"2279.2999999523163","arrowleft","psychophysics","245","454627","0.0-3.0-0.119","","key","arrowleft","16.668357664233593","683","328.5","120","5","1","24","15","25","35","false"
"null","null","psychophysics","246","455639","0.0-3.0-1.119","","key","null","16.65918644067784","683","328.5","","","","","","","",""
"1250.5999999046326","arrowright","psychophysics","247","456897","0.0-3.0-0.120","","key","arrowright","16.669120000000113","683","328.5","121","5","1","25","35","25","35","true"
"null","null","psychophysics","248","457906","0.0-3.0-1.120","","key","null","16.66816949152577","683","328.5","","","","","","","",""
"693.5999999046326","arrowright","psychophysics","249","458609","0.0-3.0-0.121","","key","arrowright","16.658476190476602","683","328.5","122","5","1","27","35","25","35","true"
"null","null","psychophysics","250","459623","0.0-3.0-1.121","","key","null","16.674661016950022","683","328.5","","","","","","","",""
"1517.9000000953674","arrowleft","psychophysics","251","461155","0.0-3.0-0.122","","key","arrowleft","16.668054945055","683","328.5","123","5","1","24","15","25","35","false"
"null","null","psychophysics","252","462158","0.0-3.0-1.122","","key","null","16.673783333333752","683","328.5","","","","","","","",""
"958.2999999523163","arrowleft","psychophysics","253","463126","0.0-3.0-0.123","","key","arrowleft","16.670631578947795","683","328.5","124","5","-1","27","15","25","35","true"
"null","null","psychophysics","254","464140","0.0-3.0-1.123","","key","null","16.668406779660796","683","328.5","","","","","","","",""
"960.0999999046326","arrowleft","psychophysics","255","465109","0.0-3.0-0.124","","key","arrowleft","16.659706896552333","683","328.5","125","5","-1","26","15","25","35","true"
"null","null","psychophysics","256","466123","0.0-3.0-1.124","","key","null","16.669118644067844","683","328.5","","","","","","","",""
"744.5","arrowright","psychophysics","257","466887","0.0-3.0-0.125","","key","arrowright","16.669977777778534","683","328.5","126","5","-1","24","35","25","35","false"
"null","null","psychophysics","258","467890","0.0-3.0-1.125","","key","null","16.67496610169449","683","328.5","","","","","","","",""
"697.2999999523163","arrowleft","psychophysics","259","468597","0.0-3.0-0.126","","key","arrowleft","16.661785714285326","683","328.5","127","5","1","23","35","25","35","false"
"null","null","psychophysics","260","469604","0.0-3.0-1.126","","key","null","16.660440677966353","683","328.5","","","","","","","",""
"585.4000000953674","arrowleft","psychophysics","261","470202","0.0-3.0-0.127","","key","arrowleft","16.68062857142816","683","328.5","128","5","-1","30","35","25","35","true"
"null","null","psychophysics","262","471207","0.0-3.0-1.127","","key","null","16.66808474576298","683","328.5","","","","","","","",""
"1097.2999999523163","arrowright","psychophysics","263","472313","0.0-3.0-0.128","","key","arrowright","16.666651515151678","683","328.5","129","5","1","27","15","25","35","true"
"null","null","psychophysics","264","473324","0.0-3.0-1.128","","key","null","16.668881355932818","683","328.5","","","","","","","",""
"1735.9000000953674","arrowright","psychophysics","265","475079","0.0-3.0-0.129","","key","arrowright","16.667742857142972","683","328.5","130","5","-1","23","15","25","35","false"
"null","null","psychophysics","266","476091","0.0-3.0-1.129","","key","null","16.668220338982852","683","328.5","","","","","","","",""
"1001.5999999046326","arrowleft","psychophysics","267","477104","0.0-3.0-0.130","","key","arrowleft","16.67014999999956","683","328.5","131","5","1","20","35","25","35","false"
"null","null","psychophysics","268","478107","0.0-3.0-1.130","","key","null","16.663288135592573","683","328.5","","","","","","","",""
"1017","arrowleft","psychophysics","269","479139","0.0-3.0-0.131","","key","arrowleft","16.66445901639355","683","328.5","132","5","-1","27","35","25","35","true"
"null","null","psychophysics","270","480143","0.0-3.0-1.131","","key","null","16.675233333333743","683","328.5","","","","","","","",""
"827.3000001907349","arrowleft","psychophysics","271","480978","0.0-3.0-0.132","","key","arrowleft","16.670244897959268","683","328.5","133","5","-1","25","35","25","35","true"
"null","null","psychophysics","272","481990","0.0-3.0-1.132","","key","null","16.672254237288143","683","328.5","","","","","","","",""
"1313.7000000476837","arrowleft","psychophysics","273","483331","0.0-3.0-0.133","","key","arrowleft","16.673962500000197","683","328.5","134","5","1","23","15","25","35","false"
"null","null","psychophysics","274","484341","0.0-3.0-1.133","","key","null","16.669220338982996","683","328.5","","","","","","","",""
"805.7000000476837","arrowleft","psychophysics","275","485165","0.0-3.0-0.134","","key","arrowleft","16.67500000000024","683","328.5","135","5","-1","30","35","25","35","true"
"null","null","psychophysics","276","486175","0.0-3.0-1.134","","key","null","16.669898305084335","683","328.5","","","","","","","",""
"1168.9000000953674","arrowleft","psychophysics","277","487353","0.0-3.0-0.135","","key","arrowleft","16.66251428571413","683","328.5","136","5","-1","26","35","25","35","true"
"null","null","psychophysics","278","488359","0.0-3.0-1.135","","key","null","16.66793220338976","683","328.5","","","","","","","",""
"1295.5999999046326","arrowleft","psychophysics","279","489663","0.0-3.0-0.136","","key","arrowleft","16.66234615384616","683","328.5","137","5","-1","27","15","25","35","true"
"null","null","psychophysics","280","490675","0.0-3.0-1.136","","key","null","16.670813559321687","683","328.5","","","","","","","",""
"1620.5","arrowleft","psychophysics","281","492308","0.0-3.0-0.137","","key","arrowleft","16.667958762886162","683","328.5","138","5","-1","30","35","25","35","true"
"null","null","psychophysics","282","493325","0.0-3.0-1.137","","key","null","16.670416666666277","683","328.5","","","","","","","",""
"2393.699999809265","arrowleft","psychophysics","283","495746","0.0-3.0-0.138","","key","arrowleft","16.66705517241378","683","328.5","139","5","-1","23","35","25","35","true"
"null","null","psychophysics","284","496759","0.0-3.0-1.138","","key","null","16.669830508473904","683","328.5","","","","","","","",""
"1644","arrowright","psychophysics","285","498413","0.0-3.0-0.139","","key","arrowright","16.664020202019735","683","328.5","140","6","-1","24","15","25","35","false"
"null","null","psychophysics","286","499425","0.0-3.0-1.139","","key","null","16.668627118644448","683","328.5","","","","","","","",""
"5789.5"," ","html-keyboard-response","287","505217","0.0-3.0-2.139-0.139","<div style=""color: white; text-align: center; vertical-align: top; display: inline-block; width: 800px; margin: auto""><p>You have completed 50% of the trials. You are on block 6 of 10. <br>Good job! Take a break if you need to.</p><p>Press any key to continue the experiment.</p></div>","","","","","","","","","","","","",""
"2124.300000190735","arrowleft","psychophysics","288","508352","0.0-3.0-0.140","","key","arrowleft","16.795905511811153","683","328.5","141","6","1","24","35","25","35","false"
"null","null","psychophysics","289","509360","0.0-3.0-1.140","","key","null","16.66657627118708","683","328.5","","","","","","","",""
"1179.3000001907349","arrowright","psychophysics","290","510548","0.0-3.0-0.141","","key","arrowright","16.66069014084486","683","328.5","142","6","1","26","35","25","35","true"
"null","null","psychophysics","291","511556","0.0-3.0-1.141","","key","null","16.670203389830778","683","328.5","","","","","","","",""
"1035.7000000476837","arrowright","psychophysics","292","512598","0.0-3.0-0.142","","key","arrowright","16.67464516128999","683","328.5","143","6","1","26","15","25","35","true"
"null","null","psychophysics","293","513609","0.0-3.0-1.142","","key","null","16.667644067796665","683","328.5","","","","","","","",""
"1213.4000000953674","arrowleft","psychophysics","294","514831","0.0-3.0-0.143","","key","arrowleft","16.675164383561796","683","328.5","144","6","-1","30","15","25","35","true"
"null","null","psychophysics","295","515839","0.0-3.0-1.143","","key","null","16.66620338983021","683","328.5","","","","","","","",""
"736.7999999523163","arrowright","psychophysics","296","516581","0.0-3.0-0.144","","key","arrowright","16.668227272727314","683","328.5","145","6","-1","20","35","25","35","false"
"null","null","psychophysics","297","517593","0.0-3.0-1.144","","key","null","16.675118644068696","683","328.5","","","","","","","",""
"2215.9000000953674","arrowright","psychophysics","298","519818","0.0-3.0-0.145","","key","arrowright","16.66899248120319","683","328.5","146","6","1","25","15","25","35","true"
"null","null","psychophysics","299","520828","0.0-3.0-1.145","","key","null","16.666186440677848","683","328.5","","","","","","","",""
"1288","arrowleft","psychophysics","300","522135","0.0-3.0-0.146","","key","arrowleft","16.668025641026013","683","328.5","147","6","1","23","35","25","35","false"
"null","null","psychophysics","301","523144","0.0-3.0-1.146","","key","null","16.664627118643878","683","328.5","","","","","","","",""
"780.7999999523163","arrowright","psychophysics","302","523948","0.0-3.0-0.147","","key","arrowright","16.671812499999458","683","328.5","148","6","-1","20","15","25","35","false"
"null","null","psychophysics","303","524961","0.0-3.0-1.147","","key","null","16.667983050846843","683","328.5","","","","","","","",""
"1658.8999998569489","arrowright","psychophysics","304","526633","0.0-3.0-0.148","","key","arrowright","16.67003000000026","683","328.5","149","6","-1","20","15","25","35","false"
"null","null","psychophysics","305","527645","0.0-3.0-1.148","","key","null","16.660237288136052","683","328.5","","","","","","","",""
"2333.2000000476837","arrowright","psychophysics","306","530001","0.0-3.0-0.149","","key","arrowright","16.66746099290755","683","328.5","150","6","-1","24","35","25","35","false"
"null","null","psychophysics","307","531012","0.0-3.0-1.149","","key","null","16.666830508474465","683","328.5","","","","","","","",""
"1110.2000000476837","arrowleft","psychophysics","308","532132","0.0-3.0-0.150","","key","arrowleft","16.66620895522299","683","328.5","151","6","1","30","15","25","35","false"
"null","null","psychophysics","309","533139","0.0-3.0-1.150","","key","null","16.66816949152577","683","328.5","","","","","","","",""
"1271","arrowleft","psychophysics","310","534415","0.0-3.0-0.151","","key","arrowleft","16.668447368421383","683","328.5","152","6","-1","30","35","25","35","true"
"null","null","psychophysics","311","535429","0.0-3.0-1.151","","key","null","16.660881355933654","683","328.5","","","","","","","",""
"700.5999999046326","arrowright","psychophysics","312","536148","0.0-3.0-0.152","","key","arrowright","16.664767441862306","683","328.5","153","6","-1","20","15","25","35","false"
"null","null","psychophysics","313","537162","0.0-3.0-1.152","","key","null","16.668457627118865","683","328.5","","","","","","","",""
"1238.9000000953674","arrowleft","psychophysics","314","538409","0.0-3.0-0.153","","key","arrowleft","16.667878378377726","683","328.5","154","6","1","23","35","25","35","false"
"null","null","psychophysics","315","539412","0.0-3.0-1.153","","key","null","16.674237288136066","683","328.5","","","","","","","",""
"1374.5","arrowleft","psychophysics","316","540800","0.0-3.0-0.154","","key","arrowleft","16.668602409637927","683","328.5","155","6","-1","25","35","25","35","true"
"null","null","psychophysics","317","541807","0.0-3.0-1.154","","key","null","16.66783050847461","683","328.5","","","","","","","",""
"2051.100000143051","arrowright","psychophysics","318","543867","0.0-3.0-0.155","","key","arrowright","16.672658536586024","683","328.5","156","6","1","25","35","25","35","true"
"null","null","psychophysics","319","544880","0.0-3.0-1.155","","key","null","16.667745762711817","683","328.5","","","","","","","",""
"1057.7000000476837","arrowleft","psychophysics","320","545946","0.0-3.0-0.156","","key","arrowleft","16.667920634921064","683","328.5","157","6","-1","27","35","25","35","true"
"null","null","psychophysics","321","546963","0.0-3.0-1.156","","key","null","16.673099999999007","683","328.5","","","","","","","",""
"768.5999999046326","arrowright","psychophysics","322","547740","0.0-3.0-0.157","","key","arrowright","16.67713043478358","683","328.5","158","6","-1","24","15","25","35","false"
"null","null","psychophysics","323","548746","0.0-3.0-1.157","","key","null","16.666932203390605","683","328.5","","","","","","","",""
"1546.7999999523163","arrowleft","psychophysics","324","550306","0.0-3.0-0.158","","key","arrowleft","16.668010752688172","683","328.5","159","6","-1","25","35","25","35","true"
"null","null","psychophysics","325","551313","0.0-3.0-1.158","","key","null","16.666898305085883","683","328.5","","","","","","","",""
"1343.8999998569489","arrowright","psychophysics","326","552666","0.0-3.0-0.159","","key","arrowright","16.66451851851853","683","328.5","160","6","1","26","15","25","35","true"
"null","null","psychophysics","327","553677","0.0-3.0-1.159","","key","null","16.66149152542259","683","328.5","","","","","","","",""
"1043.2999999523163","arrowleft","psychophysics","328","554737","0.0-3.0-0.160","","key","arrowleft","16.667619047618086","683","328.5","161","6","1","24","35","25","35","false"
"null","null","psychophysics","329","555747","0.0-3.0-1.160","","key","null","16.66137288135508","683","328.5","","","","","","","",""
"1215.8999998569489","arrowleft","psychophysics","330","556970","0.0-3.0-0.161","","key","arrowleft","16.6697945205482","683","328.5","162","6","-1","27","35","25","35","true"
"null","null","psychophysics","331","557981","0.0-3.0-1.161","","key","null","16.667186440678975","683","328.5","","","","","","","",""
"1161.3999998569489","arrowright","psychophysics","332","559151","0.0-3.0-0.162","","key","arrowright","16.669142857144056","683","328.5","163","6","-1","24","35","25","35","false"
"null","null","psychophysics","333","560157","0.0-3.0-1.162","","key","null","16.66755932203486","683","328.5","","","","","","","",""
"1178.6000001430511","arrowright","psychophysics","334","561348","0.0-3.0-0.163","","key","arrowright","16.674414285713073","683","328.5","164","6","-1","20","15","25","35","false"
"null","null","psychophysics","335","562360","0.0-3.0-1.163","","key","null","16.675116666666387","683","328.5","","","","","","","",""
"6885.200000047684","arrowright","psychophysics","336","569251","0.0-3.0-0.164","","key","arrowright","16.668552058111576","683","328.5","165","6","1","26","35","25","35","true"
"null","null","psychophysics","337","570265","0.0-3.0-1.164","","key","null","16.668813559321404","683","328.5","","","","","","","",""
"1995.9000000953674","arrowright","psychophysics","338","572269","0.0-3.0-0.165","","key","arrowright","16.664850000000055","683","328.5","166","6","1","26","15","25","35","true"
"null","null","psychophysics","339","573272","0.0-3.0-1.165","","key","null","16.66555932203458","683","328.5","","","","","","","",""
"802.5","arrowleft","psychophysics","340","574087","0.0-3.0-0.166","","key","arrowleft","16.67362500000066","683","328.5","167","6","-1","30","15","25","35","true"
"null","null","psychophysics","341","575099","0.0-3.0-1.166","","key","null","16.66716949152563","683","328.5","","","","","","","",""
"1856.6000001430511","arrowright","psychophysics","342","576968","0.0-3.0-0.167","","key","arrowright","16.664035714285482","683","328.5","168","7","1","26","15","25","35","true"
"null","null","psychophysics","343","577982","0.0-3.0-1.167","","key","null","16.670423728814427","683","328.5","","","","","","","",""
"4385.800000190735"," ","html-keyboard-response","344","582371","0.0-3.0-2.167-0.167","<div style=""color: white; text-align: center; vertical-align: top; display: inline-block; width: 800px; margin: auto""><p>You have completed 60% of the trials. You are on block 7 of 10. <br>Good job! Take a break if you need to.</p><p>Press any key to continue the experiment.</p></div>","","","","","","","","","","","","",""
"1113.4000000953674","arrowleft","psychophysics","345","584507","0.0-3.0-0.168","","key","arrowleft","16.665343283581784","683","328.5","169","7","-1","27","15","25","35","true"
"null","null","psychophysics","346","585515","0.0-3.0-1.168","","key","null","16.671355932203152","683","328.5","","","","","","","",""
"824.9000000953674","arrowright","psychophysics","347","586354","0.0-3.0-0.169","","key","arrowright","16.67811999999918","683","328.5","170","7","1","30","35","25","35","true"
"null","null","psychophysics","348","587366","0.0-3.0-1.169","","key","null","16.66383050847404","683","328.5","","","","","","","",""
"1305","arrowleft","psychophysics","349","588679","0.0-3.0-0.170","","key","arrowleft","16.662294871794682","683","328.5","171","7","1","23","35","25","35","false"
"null","null","psychophysics","350","589683","0.0-3.0-1.170","","key","null","16.66540677966037","683","328.5","","","","","","","",""
"770.2999999523163","arrowleft","psychophysics","351","590462","0.0-3.0-0.171","","key","arrowleft","16.668695652174115","683","328.5","172","7","1","20","35","25","35","false"
"null","null","psychophysics","352","591466","0.0-3.0-1.171","","key","null","16.667322033899836","683","328.5","","","","","","","",""
"1796.6000001430511","arrowleft","psychophysics","353","593272","0.0-3.0-0.172","","key","arrowleft","16.66800925925943","683","328.5","173","7","-1","26","35","25","35","true"
"null","null","psychophysics","354","594282","0.0-3.0-1.172","","key","null","16.6681186440677","683","328.5","","","","","","","",""
"1263.5","arrowright","psychophysics","355","595562","0.0-3.0-0.173","","key","arrowright","16.673684210527234","683","328.5","174","7","1","27","35","25","35","true"
"null","null","psychophysics","356","596567","0.0-3.0-1.173","","key","null","16.675322033899","683","328.5","","","","","","","",""
"2114.4000000953674","arrowleft","psychophysics","357","598690","0.0-3.0-0.174","","key","arrowleft","16.66869291338582","683","328.5","175","7","1","24","35","25","35","false"
"null","null","psychophysics","358","599700","0.0-3.0-1.174","","key","null","16.660084745763818","683","328.5","","","","","","","",""
"980.1000001430511","arrowleft","psychophysics","359","600690","0.0-3.0-0.175","","key","arrowleft","16.674372881354955","683","328.5","176","7","-1","27","15","25","35","true"
"null","null","psychophysics","360","601701","0.0-3.0-1.175","","key","null","16.667355932202586","683","328.5","","","","","","","",""
"1161.4000000953674","arrowleft","psychophysics","361","602870","0.0-3.0-0.176","","key","arrowleft","16.66307142857196","683","328.5","177","7","-1","23","15","25","35","true"
"null","null","psychophysics","362","603885","0.0-3.0-1.176","","key","null","16.66750847457482","683","328.5","","","","","","","",""
"1608.2000000476837","arrowright","psychophysics","363","605506","0.0-3.0-0.177","","key","arrowright","16.663134020618788","683","328.5","178","7","1","26","35","25","35","true"
"null","null","psychophysics","364","606518","0.0-3.0-1.177","","key","null","16.667966101695466","683","328.5","","","","","","","",""
"1000.5","arrowleft","psychophysics","365","607528","0.0-3.0-0.178","","key","arrowleft","16.667900000000373","683","328.5","179","7","-1","27","15","25","35","true"
"null","null","psychophysics","366","608532","0.0-3.0-1.178","","key","null","16.67408474576186","683","328.5","","","","","","","",""
"1134.6000001430511","arrowleft","psychophysics","367","609677","0.0-3.0-0.179","","key","arrowleft","16.67566176470513","683","328.5","180","7","-1","26","35","25","35","true"
"null","null","psychophysics","368","610685","0.0-3.0-1.179","","key","null","16.667610169490956","683","328.5","","","","","","","",""
"1201","arrowright","psychophysics","369","611895","0.0-3.0-0.180","","key","arrowright","16.666722222221626","683","328.5","181","7","1","27","15","25","35","true"
"null","null","psychophysics","370","612902","0.0-3.0-1.180","","key","null","16.675457627119858","683","328.5","","","","","","","",""
"1218.5","arrowright","psychophysics","371","614129","0.0-3.0-0.181","","key","arrowright","16.668123287671847","683","328.5","182","7","1","27","35","25","35","true"
"null","null","psychophysics","372","615135","0.0-3.0-1.181","","key","null","16.666355932204414","683","328.5","","","","","","","",""
"1077","arrowleft","psychophysics","373","616222","0.0-3.0-0.182","","key","arrowleft","16.663569230768974","683","328.5","183","7","-1","27","35","25","35","true"
"null","null","psychophysics","374","617236","0.0-3.0-1.182","","key","null","16.667576271186235","683","328.5","","","","","","","",""
"853.5999999046326","arrowleft","psychophysics","375","618099","0.0-3.0-0.183","","key","arrowleft","16.668941176471336","683","328.5","184","7","-1","27","35","25","35","true"
"null","null","psychophysics","376","619102","0.0-3.0-1.183","","key","null","16.666525423728025","683","328.5","","","","","","","",""
"755.8000001907349","arrowright","psychophysics","377","619866","0.0-3.0-0.184","","key","arrowright","16.668666666665942","683","328.5","185","7","1","30","35","25","35","true"
"null","null","psychophysics","378","620869","0.0-3.0-1.184","","key","null","16.671220338984266","683","328.5","","","","","","","",""
"1396.7999999523163","arrowright","psychophysics","379","622280","0.0-3.0-0.185","","key","arrowright","16.663047619047575","683","328.5","186","7","1","25","35","25","35","true"
"null","null","psychophysics","380","623285","0.0-3.0-1.185","","key","null","16.67610169491549","683","328.5","","","","","","","",""
"2820.7999999523163","arrowright","psychophysics","381","626126","0.0-3.0-0.186","","key","arrowright","16.670511764706358","683","328.5","187","7","-1","23","15","25","35","false"
"null","null","psychophysics","382","627136","0.0-3.0-1.186","","key","null","16.668898305086167","683","328.5","","","","","","","",""
"2187.7000000476837","arrowright","psychophysics","383","629333","0.0-3.0-0.187","","key","arrowright","16.666526717556824","683","328.5","188","7","1","25","15","25","35","true"
"null","null","psychophysics","384","630337","0.0-3.0-1.187","","key","null","16.670610169491383","683","328.5","","","","","","","",""
"1207.5","arrowright","psychophysics","385","631556","0.0-3.0-0.188","","key","arrowright","16.662589041095178","683","328.5","189","7","-1","24","15","25","35","false"
"null","null","psychophysics","386","632565","0.0-3.0-1.188","","key","null","16.668932203388916","683","328.5","","","","","","","",""
"1822.5","arrowright","psychophysics","387","634398","0.0-3.0-0.189","","key","arrowright","16.671440366971726","683","328.5","190","7","1","26","35","25","35","true"
"null","null","psychophysics","388","635404","0.0-3.0-1.189","","key","null","16.667542372881513","683","328.5","","","","","","","",""
"1397.1999998092651","arrowleft","psychophysics","389","636809","0.0-3.0-0.190","","key","arrowleft","16.66830952380856","683","328.5","191","7","1","25","35","25","35","false"
"null","null","psychophysics","390","637814","0.0-3.0-1.190","","key","null","16.665728813560158","683","328.5","","","","","","","",""
"928.7999999523163","arrowleft","psychophysics","391","638748","0.0-3.0-0.191","","key","arrowleft","16.669399999998596","683","328.5","192","7","-1","30","15","25","35","true"
"null","null","psychophysics","392","639755","0.0-3.0-1.191","","key","null","16.667406779660652","683","328.5","","","","","","","",""
"745.2999999523163","arrowright","psychophysics","393","640515","0.0-3.0-0.192","","key","arrowright","16.672533333335174","683","328.5","193","7","-1","20","15","25","35","false"
"null","null","psychophysics","394","641521","0.0-3.0-1.192","","key","null","16.66800000000019","683","328.5","","","","","","","",""
"859.7999999523163","arrowleft","psychophysics","395","642398","0.0-3.0-0.193","","key","arrowleft","16.66776923076787","683","328.5","194","7","1","23","15","25","35","false"
"null","null","psychophysics","396","643404","0.0-3.0-1.193","","key","null","16.667271186441766","683","328.5","","","","","","","",""
"792.0999999046326","arrowleft","psychophysics","397","644209","0.0-3.0-0.194","","key","arrowleft","16.659104166666413","683","328.5","195","7","-1","30","35","25","35","true"
"null","null","psychophysics","398","645221","0.0-3.0-1.194","","key","null","16.667762711865166","683","328.5","","","","","","","",""
"759.7999999523163","arrowright","psychophysics","399","646002","0.0-3.0-0.195","","key","arrowright","16.66736956521788","683","328.5","196","8","1","27","35","25","35","true"
"null","null","psychophysics","400","647005","0.0-3.0-1.195","","key","null","16.6736949152546","683","328.5","","","","","","","",""
"1999.4000000953674"," ","html-keyboard-response","401","649006","0.0-3.0-2.195-0.195","<div style=""color: white; text-align: center; vertical-align: top; display: inline-block; width: 800px; margin: auto""><p>You have completed 70% of the trials. You are on block 8 of 10. <br>Good job! Take a break if you need to.</p><p>Press any key to continue the experiment.</p></div>","","","","","","","","","","","","",""
"1985.9000000953674","arrowright","psychophysics","402","652011","0.0-3.0-0.196","","key","arrowright","16.66514285714287","683","328.5","197","8","1","25","15","25","35","true"
"null","null","psychophysics","403","653019","0.0-3.0-1.196","","key","null","16.669728813560727","683","328.5","","","","","","","",""
"1821.0999999046326","arrowleft","psychophysics","404","654851","0.0-3.0-0.197","","key","arrowleft","16.67183486238515","683","328.5","198","8","-1","24","15","25","35","true"
"null","null","psychophysics","405","655855","0.0-3.0-1.197","","key","null","16.66759322033761","683","328.5","","","","","","","",""
"776.5","arrowright","psychophysics","406","656646","0.0-3.0-0.198","","key","arrowright","16.669063829787156","683","328.5","199","8","-1","20","35","25","35","false"
"null","null","psychophysics","407","657651","0.0-3.0-1.198","","key","null","16.662152542371572","683","328.5","","","","","","","",""
"648.9000000953674","arrowleft","psychophysics","408","658309","0.0-3.0-0.199","","key","arrowleft","16.675076923076396","683","328.5","200","8","-1","30","35","25","35","true"
"null","null","psychophysics","409","659322","0.0-3.0-1.199","","key","null","16.666915254237257","683","328.5","","","","","","","",""
"1608.7999999523163","arrowleft","psychophysics","410","660943","0.0-3.0-0.200","","key","arrowleft","16.669051546391014","683","328.5","201","8","-1","26","15","25","35","true"
"null","null","psychophysics","411","661955","0.0-3.0-1.200","","key","null","16.668372881356074","683","328.5","","","","","","","",""
"1108.5999999046326","arrowleft","psychophysics","412","663077","0.0-3.0-0.201","","key","arrowleft","16.667238805969525","683","328.5","202","8","-1","24","15","25","35","true"
"null","null","psychophysics","413","664088","0.0-3.0-1.201","","key","null","16.673508474575673","683","328.5","","","","","","","",""
"2086.199999809265","arrowright","psychophysics","414","666183","0.0-3.0-0.202","","key","arrowright","16.66470399999991","683","328.5","203","8","1","23","15","25","35","true"
"null","null","psychophysics","415","667189","0.0-3.0-1.202","","key","null","16.668491525423587","683","328.5","","","","","","","",""
"1096.2000000476837","arrowleft","psychophysics","416","668294","0.0-3.0-0.203","","key","arrowleft","16.67142424242444","683","328.5","204","8","1","25","15","25","35","false"
"null","null","psychophysics","417","669302","0.0-3.0-1.203","","key","null","16.66642372881386","683","328.5","","","","","","","",""
"1656.2999999523163","arrowleft","psychophysics","418","670968","0.0-3.0-0.204","","key","arrowleft","16.672414141413146","683","328.5","205","8","1","26","35","25","35","false"
"null","null","psychophysics","419","671972","0.0-3.0-1.204","","key","null","16.692881355932283","683","328.5","","","","","","","",""
"2247.4000000953674","arrowright","psychophysics","420","674238","0.0-3.0-0.205","","key","arrowright","16.669399999999612","683","328.5","206","8","-1","24","15","25","35","false"
"null","null","psychophysics","421","675242","0.0-3.0-1.205","","key","null","16.67609999999986","683","328.5","","","","","","","",""
"3312.7999999523163","arrowright","psychophysics","422","678560","0.0-3.0-0.206","","key","arrowright","16.667202020202165","683","328.5","207","8","1","30","35","25","35","true"
"null","null","psychophysics","423","679572","0.0-3.0-1.206","","key","null","16.66772881355847","683","328.5","","","","","","","",""
"2768.7999999523163","arrowright","psychophysics","424","682350","0.0-3.0-0.207","","key","arrowright","16.6697771084342","683","328.5","208","8","-1","23","35","25","35","false"
"null","null","psychophysics","425","683357","0.0-3.0-1.207","","key","null","16.668271186439934","683","328.5","","","","","","","",""
"938.8999998569489","arrowright","psychophysics","426","684304","0.0-3.0-0.208","","key","arrowright","16.667660714287194","683","328.5","209","8","-1","20","15","25","35","false"
"null","null","psychophysics","427","685307","0.0-3.0-1.208","","key","null","16.67022033898215","683","328.5","","","","","","","",""
"2224.7000000476837","arrowleft","psychophysics","428","687543","0.0-3.0-0.209","","key","arrowleft","16.668544776119123","683","328.5","210","8","1","20","15","25","35","false"
"null","null","psychophysics","429","688554","0.0-3.0-1.209","","key","null","16.664966101695043","683","328.5","","","","","","","",""
"1260.9000000953674","arrowleft","psychophysics","430","689826","0.0-3.0-0.210","","key","arrowleft","16.667250000000134","683","328.5","211","8","1","20","15","25","35","false"
"null","null","psychophysics","431","690835","0.0-3.0-1.210","","key","null","16.665644067797366","683","328.5","","","","","","","",""
"1135.5","arrowleft","psychophysics","432","691978","0.0-3.0-0.211","","key","arrowleft","16.668588235294653","683","328.5","212","8","1","24","35","25","35","false"
"null","null","psychophysics","433","692991","0.0-3.0-1.211","","key","null","16.669728813558752","683","328.5","","","","","","","",""
"1213","arrowright","psychophysics","434","694213","0.0-3.0-0.212","","key","arrowright","16.667315068493647","683","328.5","213","8","1","30","15","25","35","true"
"null","null","psychophysics","435","695224","0.0-3.0-1.212","","key","null","16.666355932204414","683","328.5","","","","","","","",""
"4298","arrowright","psychophysics","436","699533","0.0-3.0-0.213","","key","arrowright","16.668255813953163","683","328.5","214","8","-1","24","15","25","35","false"
"null","null","psychophysics","437","700541","0.0-3.0-1.213","","key","null","16.66991525423571","683","328.5","","","","","","","",""
"1314.5","arrowleft","psychophysics","438","701879","0.0-3.0-0.214","","key","arrowleft","16.66937500000058","683","328.5","215","8","-1","27","15","25","35","true"
"null","null","psychophysics","439","702891","0.0-3.0-1.214","","key","null","16.66781355932126","683","328.5","","","","","","","",""
"808.1000001430511","arrowright","psychophysics","440","703708","0.0-3.0-0.215","","key","arrowright","16.667916666665406","683","328.5","216","8","1","24","15","25","35","true"
"null","null","psychophysics","441","704721","0.0-3.0-1.215","","key","null","16.67289999999921","683","328.5","","","","","","","",""
"599.7000000476837","arrowleft","psychophysics","442","705337","0.0-3.0-0.216","","key","arrowleft","16.681138888890725","683","328.5","217","8","-1","30","15","25","35","true"
"null","null","psychophysics","443","706342","0.0-3.0-1.216","","key","null","16.663627118643735","683","328.5","","","","","","","",""
"1394.6000001430511","arrowleft","psychophysics","444","707745","0.0-3.0-0.217","","key","arrowleft","16.667000000000588","683","328.5","218","8","-1","26","35","25","35","true"
"null","null","psychophysics","445","708758","0.0-3.0-1.217","","key","null","16.66949152542373","683","328.5","","","","","","","",""
"906.7000000476837","arrowleft","psychophysics","446","709682","0.0-3.0-0.218","","key","arrowleft","16.672381818182345","683","328.5","219","8","-1","27","35","25","35","true"
"null","null","psychophysics","447","710692","0.0-3.0-1.218","","key","null","16.665152542372","683","328.5","","","","","","","",""
"944.2999999523163","arrowright","psychophysics","448","711645","0.0-3.0-0.219","","key","arrowright","16.660438596491556","683","328.5","220","8","-1","23","15","25","35","false"
"null","null","psychophysics","449","712659","0.0-3.0-1.219","","key","null","16.67435593220358","683","328.5","","","","","","","",""
"1177.2999999523163","arrowleft","psychophysics","450","713854","0.0-3.0-0.220","","key","arrowleft","16.668014084507096","683","328.5","221","8","1","25","15","25","35","false"
"null","null","psychophysics","451","714859","0.0-3.0-1.220","","key","null","16.6681186440677","683","328.5","","","","","","","",""
"1136","arrowright","psychophysics","452","716007","0.0-3.0-0.221","","key","arrowright","16.664441176469314","683","328.5","222","8","1","24","15","25","35","true"
"null","null","psychophysics","453","717011","0.0-3.0-1.221","","key","null","16.675416666667054","683","328.5","","","","","","","",""
"1560.2000000476837","arrowleft","psychophysics","454","718580","0.0-3.0-0.222","","key","arrowleft","16.670172043010762","683","328.5","223","8","-1","24","35","25","35","true"
"null","null","psychophysics","455","719593","0.0-3.0-1.222","","key","null","16.66915254237454","683","328.5","","","","","","","",""
"780.8999998569489","arrowleft","psychophysics","456","720383","0.0-3.0-0.223","","key","arrowleft","16.668239130433548","683","328.5","224","9","1","25","15","25","35","false"
"null","null","psychophysics","457","721390","0.0-3.0-1.223","","key","null","16.673916666667598","683","328.5","","","","","","","",""
"1928"," ","html-keyboard-response","458","723320","0.0-3.0-2.223-0.223","<div style=""color: white; text-align: center; vertical-align: top; display: inline-block; width: 800px; margin: auto""><p>You have completed 80% of the trials. You are on block 9 of 10. <br>Good job! Take a break if you need to.</p><p>Press any key to continue the experiment.</p></div>","","","","","","","","","","","","",""
"781.6999998092651","arrowright","psychophysics","459","725124","0.0-3.0-0.224","","key","arrowright","16.668191489362297","683","328.5","225","9","1","30","35","25","35","true"
"null","null","psychophysics","460","726126","0.0-3.0-1.224","","key","null","16.67215254237299","683","328.5","","","","","","","",""
"907.5","arrowleft","psychophysics","461","727046","0.0-3.0-0.225","","key","arrowleft","16.661800000001676","683","328.5","226","9","1","25","15","25","35","false"
"null","null","psychophysics","462","728055","0.0-3.0-1.225","","key","null","16.669847457626265","683","328.5","","","","","","","",""
"870.6000001430511","arrowright","psychophysics","463","728930","0.0-3.0-0.226","","key","arrowright","16.67580769230755","683","328.5","227","9","1","30","35","25","35","true"
"null","null","psychophysics","464","729943","0.0-3.0-1.226","","key","null","16.667762711865166","683","328.5","","","","","","","",""
"1026","arrowright","psychophysics","465","730982","0.0-3.0-0.227","","key","arrowright","16.66230645161235","683","328.5","228","9","-1","20","15","25","35","false"
"null","null","psychophysics","466","731994","0.0-3.0-1.227","","key","null","16.669762711863477","683","328.5","","","","","","","",""
"712.5","arrowleft","psychophysics","467","732715","0.0-3.0-0.228","","key","arrowleft","16.667023255814648","683","328.5","229","9","1","20","35","25","35","false"
"null","null","psychophysics","468","733726","0.0-3.0-1.228","","key","null","16.667745762711817","683","328.5","","","","","","","",""
"1548.2999999523163","arrowleft","psychophysics","469","735297","0.0-3.0-0.229","","key","arrowleft","16.66787234042583","683","328.5","230","9","-1","24","35","25","35","true"
"null","null","psychophysics","470","736311","0.0-3.0-1.229","","key","null","16.675118644066725","683","328.5","","","","","","","",""
"1136.2000000476837","arrowleft","psychophysics","471","737464","0.0-3.0-0.230","","key","arrowleft","16.661405797101274","683","328.5","231","9","1","25","15","25","35","false"
"null","null","psychophysics","472","738478","0.0-3.0-1.230","","key","null","16.668677966102514","683","328.5","","","","","","","",""
"1106.1999998092651","arrowright","psychophysics","473","739609","0.0-3.0-0.231","","key","arrowright","16.667656716416285","683","328.5","232","9","-1","23","35","25","35","false"
"null","null","psychophysics","474","740613","0.0-3.0-1.231","","key","null","16.67599999999899","683","328.5","","","","","","","",""
"1415.8999998569489","arrowleft","psychophysics","475","742034","0.0-3.0-0.232","","key","arrowleft","16.667880952381807","683","328.5","233","9","-1","25","35","25","35","true"
"null","null","psychophysics","476","743045","0.0-3.0-1.232","","key","null","16.667322033897864","683","328.5","","","","","","","",""
"2102.9000000953674","arrowleft","psychophysics","477","745169","0.0-3.0-0.233","","key","arrowleft","16.667433070866796","683","328.5","234","9","1","20","15","25","35","false"
"null","null","psychophysics","478","746178","0.0-3.0-1.233","","key","null","16.665305084746205","683","328.5","","","","","","","",""
"7803.099999904633","arrowleft","psychophysics","479","753990","0.0-3.0-0.234","","key","arrowleft","16.66746794871795","683","328.5","235","9","1","23","15","25","35","false"
"null","null","psychophysics","480","754996","0.0-3.0-1.234","","key","null","16.667694915253747","683","328.5","","","","","","","",""
"1212.1999998092651","arrowleft","psychophysics","481","756220","0.0-3.0-0.235","","key","arrowleft","16.66665753424614","683","328.5","236","9","1","23","15","25","35","false"
"null","null","psychophysics","482","757229","0.0-3.0-1.235","","key","null","16.667644067795678","683","328.5","","","","","","","",""
"1096.7999999523163","arrowleft","psychophysics","483","758335","0.0-3.0-0.236","","key","arrowleft","16.663060606060423","683","328.5","237","9","1","23","15","25","35","false"
"null","null","psychophysics","484","759346","0.0-3.0-1.236","","key","null","16.667423728814","683","328.5","","","","","","","",""
"911.7999999523163","arrowright","psychophysics","485","760272","0.0-3.0-0.237","","key","arrowright","16.66867272727276","683","328.5","238","9","1","30","15","25","35","true"
"null","null","psychophysics","486","761279","0.0-3.0-1.237","","key","null","16.666830508474465","683","328.5","","","","","","","",""
"725","arrowleft","psychophysics","487","762020","0.0-3.0-0.238","","key","arrowleft","16.669681818182156","683","328.5","239","9","-1","26","15","25","35","true"
"null","null","psychophysics","488","763029","0.0-3.0-1.238","","key","null","16.66788135593268","683","328.5","","","","","","","",""
"993.3000001907349","arrowleft","psychophysics","489","764036","0.0-3.0-0.239","","key","arrowleft","16.65908333333403","683","328.5","240","9","1","24","15","25","35","false"
"null","null","psychophysics","490","765046","0.0-3.0-1.239","","key","null","16.67398305084572","683","328.5","","","","","","","",""
"1089.1000001430511","arrowleft","psychophysics","491","766144","0.0-3.0-0.240","","key","arrowleft","16.667661538460436","683","328.5","241","9","-1","24","35","25","35","true"
"null","null","psychophysics","492","767148","0.0-3.0-1.240","","key","null","16.675350000001103","683","328.5","","","","","","","",""
"1362.2000000476837","arrowleft","psychophysics","493","768516","0.0-3.0-0.241","","key","arrowleft","16.663777777778538","683","328.5","242","9","-1","25","15","25","35","true"
"null","null","psychophysics","494","769530","0.0-3.0-1.241","","key","null","16.667762711865166","683","328.5","","","","","","","",""
"752.2999999523163","arrowright","psychophysics","495","770310","0.0-3.0-0.242","","key","arrowright","16.66697826086918","683","328.5","243","9","1","30","15","25","35","true"
"null","null","psychophysics","496","771313","0.0-3.0-1.242","","key","null","16.675067796610627","683","328.5","","","","","","","",""
"1583.7000000476837","arrowright","psychophysics","497","772918","0.0-3.0-0.243","","key","arrowright","16.667270833332925","683","328.5","244","9","1","26","15","25","35","true"
"null","null","psychophysics","498","773930","0.0-3.0-1.243","","key","null","16.665644067797366","683","328.5","","","","","","","",""
"805.2999999523163","arrowleft","psychophysics","499","774751","0.0-3.0-0.244","","key","arrowleft","16.65851020408148","683","328.5","245","9","-1","27","15","25","35","true"
"null","null","psychophysics","500","775761","0.0-3.0-1.244","","key","null","16.675101694915348","683","328.5","","","","","","","",""
"783.7999999523163","arrowleft","psychophysics","501","776555","0.0-3.0-0.245","","key","arrowleft","16.677489361700978","683","328.5","246","9","1","20","15","25","35","false"
"null","null","psychophysics","502","777564","0.0-3.0-1.245","","key","null","16.674322033898857","683","328.5","","","","","","","",""
"983.5","arrowleft","psychophysics","503","778557","0.0-3.0-0.246","","key","arrowleft","16.66971186440738","683","328.5","247","9","1","26","35","25","35","false"
"null","null","psychophysics","504","779563","0.0-3.0-1.246","","key","null","16.676881355933954","683","328.5","","","","","","","",""
"779.2000000476837","arrowright","psychophysics","505","780351","0.0-3.0-0.247","","key","arrowright","16.679042553189806","683","328.5","248","9","-1","23","35","25","35","false"
"null","null","psychophysics","506","781364","0.0-3.0-1.247","","key","null","16.668016949151564","683","328.5","","","","","","","",""
"695.0999999046326","arrowleft","psychophysics","507","782068","0.0-3.0-0.248","","key","arrowleft","16.669714285712136","683","328.5","249","9","-1","30","15","25","35","true"
"null","null","psychophysics","508","783081","0.0-3.0-1.248","","key","null","16.66620338983021","683","328.5","","","","","","","",""
"877.7999999523163","arrowright","psychophysics","509","783968","0.0-3.0-0.249","","key","arrowright","16.67201886792395","683","328.5","250","9","1","27","35","25","35","true"
"null","null","psychophysics","510","784974","0.0-3.0-1.249","","key","null","16.668033898304913","683","328.5","","","","","","","",""
"847.5","arrowright","psychophysics","511","785825","0.0-3.0-0.250","","key","arrowright","16.66540000000037","683","328.5","251","9","-1","20","15","25","35","false"
"null","null","psychophysics","512","786831","0.0-3.0-1.250","","key","null","16.67225423728913","683","328.5","","","","","","","",""
"1046.5","arrowright","psychophysics","513","787886","0.0-3.0-0.251","","key","arrowright","16.663015873016167","683","328.5","252","10","1","30","15","25","35","true"
"null","null","psychophysics","514","788898","0.0-3.0-1.251","","key","null","16.67359322033846","683","328.5","","","","","","","",""
"996.5","arrowright","html-keyboard-response","515","789898","0.0-3.0-2.251-0.251","<div style=""color: white; text-align: center; vertical-align: top; display: inline-block; width: 800px; margin: auto""><p>You have completed 90% of the trials. You are on block 10 of 10. <br>Good job! Take a break if you need to.</p><p>Press any key to continue the experiment.</p></div>","","","","","","","","","","","","",""
"1331.2999999523163","arrowright","psychophysics","516","792256","0.0-3.0-0.252","","key","arrowright","16.668550000000685","683","328.5","253","10","1","27","15","25","35","true"
"null","null","psychophysics","517","793259","0.0-3.0-1.252","","key","null","16.66444067796495","683","328.5","","","","","","","",""
"975.9000000953674","arrowright","psychophysics","518","794239","0.0-3.0-0.253","","key","arrowright","16.67191379310178","683","328.5","254","10","1","27","15","25","35","true"
"null","null","psychophysics","519","795248","0.0-3.0-1.253","","key","null","16.665423728813717","683","328.5","","","","","","","",""
"1130.2999999523163","arrowleft","psychophysics","520","796388","0.0-3.0-0.254","","key","arrowleft","16.668161764706703","683","328.5","255","10","-1","25","35","25","35","true"
"null","null","psychophysics","521","797399","0.0-3.0-1.254","","key","null","16.673186440677856","683","328.5","","","","","","","",""
"742.5","arrowleft","psychophysics","522","798151","0.0-3.0-0.255","","key","arrowleft","16.657200000000497","683","328.5","256","10","-1","27","15","25","35","true"
"null","null","psychophysics","523","799155","0.0-3.0-1.255","","key","null","16.669610169491243","683","328.5","","","","","","","",""
"689.7999999523163","arrowleft","psychophysics","524","799852","0.0-3.0-0.256","","key","arrowleft","16.66031707317012","683","328.5","257","10","1","24","15","25","35","false"
"null","null","psychophysics","525","800862","0.0-3.0-1.256","","key","null","16.667593220339583","683","328.5","","","","","","","",""
"927.2000000476837","arrowright","psychophysics","526","801804","0.0-3.0-0.257","","key","arrowright","16.675857142857108","683","328.5","258","10","1","25","15","25","35","true"
"null","null","psychophysics","527","802813","0.0-3.0-1.257","","key","null","16.666694915253604","683","328.5","","","","","","","",""
"1023.5999999046326","arrowleft","psychophysics","528","803853","0.0-3.0-0.258","","key","arrowleft","16.677467741934027","683","328.5","259","10","1","24","35","25","35","false"
"null","null","psychophysics","529","804866","0.0-3.0-1.258","","key","null","16.663016949152826","683","328.5","","","","","","","",""
"714.6000001430511","arrowright","psychophysics","530","805591","0.0-3.0-0.259","","key","arrowright","16.672139534883765","683","328.5","260","10","-1","20","35","25","35","false"
"null","null","psychophysics","531","806600","0.0-3.0-1.259","","key","null","16.666389830507164","683","328.5","","","","","","","",""
"587","arrowleft","psychophysics","532","807205","0.0-3.0-0.260","","key","arrowleft","16.671444444445015","683","328.5","261","10","1","20","35","25","35","false"
"null","null","psychophysics","533","808216","0.0-3.0-1.260","","key","null","16.666491525423304","683","328.5","","","","","","","",""
"1324.4000000953674","arrowleft","psychophysics","534","809549","0.0-3.0-0.261","","key","arrowleft","16.669417721518503","683","328.5","262","10","-1","26","35","25","35","true"
"null","null","psychophysics","535","810555","0.0-3.0-1.261","","key","null","16.674766666665285","683","328.5","","","","","","","",""
"889.2000000476837","arrowleft","psychophysics","536","811449","0.0-3.0-0.262","","key","arrowleft","16.665134615383487","683","328.5","263","10","-1","24","35","25","35","true"
"null","null","psychophysics","537","812466","0.0-3.0-1.262","","key","null","16.676150000000295","683","328.5","","","","","","","",""
"780.7000000476837","arrowright","psychophysics","538","813256","0.0-3.0-0.263","","key","arrowright","16.665638297873034","683","328.5","264","10","1","30","35","25","35","true"
"null","null","psychophysics","539","814267","0.0-3.0-1.263","","key","null","16.674610169489977","683","328.5","","","","","","","",""
"893.7999999523163","arrowleft","psychophysics","540","815171","0.0-3.0-0.264","","key","arrowleft","16.666870370369267","683","328.5","265","10","1","20","15","25","35","false"
"null","null","psychophysics","541","816179","0.0-3.0-1.264","","key","null","16.664779661018084","683","328.5","","","","","","","",""
"1116.3999998569489","arrowleft","psychophysics","542","817300","0.0-3.0-0.265","","key","arrowleft","16.674378787878208","683","328.5","266","10","-1","27","35","25","35","true"
"null","null","psychophysics","543","818309","0.0-3.0-1.265","","key","null","16.676249999999225","683","328.5","","","","","","","",""
"756.2999999523163","arrowleft","psychophysics","544","819069","0.0-3.0-0.266","","key","arrowleft","16.658088888890212","683","328.5","267","10","-1","26","15","25","35","true"
"null","null","psychophysics","545","820084","0.0-3.0-1.266","","key","null","16.675796610171023","683","328.5","","","","","","","",""
"871.8999998569489","arrowright","psychophysics","546","820964","0.0-3.0-0.267","","key","arrowright","16.66663461538533","683","328.5","268","10","1","30","35","25","35","true"
"null","null","psychophysics","547","821967","0.0-3.0-1.267","","key","null","16.675254237287582","683","328.5","","","","","","","",""
"710.6999998092651","arrowleft","psychophysics","548","822687","0.0-3.0-0.268","","key","arrowleft","16.658093023254686","683","328.5","269","10","-1","30","15","25","35","true"
"null","null","psychophysics","549","823701","0.0-3.0-1.268","","key","null","16.672050847456855","683","328.5","","","","","","","",""
"609.1000001430511","arrowleft","psychophysics","550","824323","0.0-3.0-0.269","","key","arrowleft","16.663513513514772","683","328.5","270","10","-1","26","15","25","35","true"
"null","null","psychophysics","551","825334","0.0-3.0-1.269","","key","null","16.667677966102374","683","328.5","","","","","","","",""
"1965.2999999523163","arrowright","psychophysics","552","827308","0.0-3.0-0.270","","key","arrowright","16.6652288135591","683","328.5","271","10","-1","20","35","25","35","false"
"null","null","psychophysics","553","828318","0.0-3.0-1.270","","key","null","16.66784745762598","683","328.5","","","","","","","",""
"2146.0999999046326","arrowright","psychophysics","554","830485","0.0-3.0-0.271","","key","arrowright","16.667914728682792","683","328.5","272","10","1","26","35","25","35","true"
"null","null","psychophysics","555","831492","0.0-3.0-1.271","","key","null","16.676533333332433","683","328.5","","","","","","","",""
"703.7000000476837","arrowleft","psychophysics","556","832199","0.0-3.0-0.272","","key","arrowleft","16.656317073170367","683","328.5","273","10","-1","26","35","25","35","true"
"null","null","psychophysics","557","833203","0.0-3.0-1.272","","key","null","16.669966666668188","683","328.5","","","","","","","",""
"1221.5","arrowright","psychophysics","558","834432","0.0-3.0-0.273","","key","arrowright","16.674430555555674","683","328.5","274","10","-1","23","15","25","35","false"
"null","null","psychophysics","559","835435","0.0-3.0-1.273","","key","null","16.674999999999212","683","328.5","","","","","","","",""
"2071.7000000476837","arrowright","psychophysics","560","837521","0.0-3.0-0.274","","key","arrowright","16.665047999999487","683","328.5","275","10","-1","23","15","25","35","false"
"null","null","psychophysics","561","838535","0.0-3.0-1.274","","key","null","16.669338983051496","683","328.5","","","","","","","",""
"1295.4000000953674","arrowleft","psychophysics","562","839839","0.0-3.0-0.275","","key","arrowleft","16.666423076923447","683","328.5","276","10","-1","24","15","25","35","true"
"null","null","psychophysics","563","840844","0.0-3.0-1.275","","key","null","16.67435593220358","683","328.5","","","","","","","",""
"748.2999999523163","arrowright","psychophysics","564","841596","0.0-3.0-0.276","","key","arrowright","16.668227272727314","683","328.5","277","10","-1","20","35","25","35","false"
"null","null","psychophysics","565","842602","0.0-3.0-1.276","","key","null","16.663762711862624","683","328.5","","","","","","","",""
"673.2000000476837","arrowleft","psychophysics","566","843299","0.0-3.0-0.277","","key","arrowleft","16.671341463415203","683","328.5","278","10","-1","30","15","25","35","true"
"null","null","psychophysics","567","844302","0.0-3.0-1.277","","key","null","16.667135593218934","683","328.5","","","","","","","",""
"1148.4000000953674","arrowleft","psychophysics","568","845459","0.0-3.0-0.278","","key","arrowleft","16.671434782609087","683","328.5","279","10","1","24","35","25","35","false"
"null","null","psychophysics","569","846469","0.0-3.0-1.278","","key","null","16.6655932203393","683","328.5","","","","","","","",""
"1824.1000001430511","arrowright","psychophysics","570","848302","0.0-3.0-0.279","","key","arrowright","16.66711926605518","683","328.5","280","11","1","26","15","25","35","true"
"null","null","psychophysics","571","849318","0.0-3.0-1.279","","key","null","16.667749999999067","683","328.5","","","","","","","",""
