"rt","response","trial_type","trial_index","time_elapsed","internal_node_id","stimulus","response_type","key_press","avg_frame_time","center_x","center_y","trial","block","test_pos","test_inner_radius","test_outer_radius","ref_inner_radius","ref_outer_radius","test_bigger"
"47198.70000001788","{""p_id"":""1387"",""age"":""19"",""handedness"":""left"",""sex"":""female"",""other_sex"":""""}","survey-html-form","0","47201","0.0-0.0","","","","","","","","","","","","","",""
"5571.4000000059605"," ","html-keyboard-response","1","52776","0.0-1.0","<p style=""color: white"">Welcome to the Size Judgment Experiment. <br>There will be 10 blocks in this experiment. <br>There will be 28 trials in each block. <br>You will be given a chance to take a break between blocks. <br>Press any key to start the experiment.</p>","","","","","","","","","","","","",""
"7665.4000000059605"," ","psychophysics","2","60471","0.0-2.0","","key"," ","16.70341648590022","720","410.5","","","","","","","",""
"4901.5999999940395","arrowright","psychophysics","3","65377","0.0-3.0-0.0","","key","arrowright","16.66600000000002","720","410.5","1","1","1","23","35","25","35","true"
"null","null","psychophysics","4","66380","0.0-3.0-1.0","","key","null","16.665999999999865","720","410.5","","","","","","","",""
"6633.4000000059605","arrowright","psychophysics","5","73018","0.0-3.0-0.1","","key","arrowright","16.668899244332493","720","410.5","2","1","-1","30","35","25","35","false"
"null","null","psychophysics","6","74020","0.0-3.0-1.1","","key","null","16.665999999999904","720","410.5","","","","","","","",""
"4713.5","arrowleft","psychophysics","7","78736","0.0-3.0-0.2","","key","arrowleft","16.666000000000018","720","410.5","3","1","1","30","15","25","35","false"
"null","null","psychophysics","8","79743","0.0-3.0-1.2","","key","null","16.665999999999904","720","410.5","","","","","","","",""
"892.1999999880791","arrowleft","psychophysics","9","80636","0.0-3.0-0.3","","key","arrowleft","16.66599999999991","720","410.5","4","1","1","24","15","25","35","false"
"null","null","psychophysics","10","81643","0.0-3.0-1.3","","key","null","16.665999999999904","720","410.5","","","","","","","",""
"739","arrowright","psychophysics","11","82387","0.0-3.0-0.4","","key","arrowright","16.665999999999755","720","410.5","5","1","-1","30","15","25","35","false"
"null","null","psychophysics","12","83394","0.0-3.0-1.4","","key","null","16.665999999999904","720","410.5","","","","","","","",""
"3693","arrowright","psychophysics","13","87094","0.0-3.0-0.5","","key","arrowright","16.666000000000007","720","410.5","6","1","-1","20","35","25","35","false"
"null","null","psychophysics","14","88100","0.0-3.0-1.5","","key","null","16.666000000000107","720","410.5","","","","","","","",""
"962.5","arrowleft","psychophysics","15","89065","0.0-3.0-0.6","","key","arrowleft","16.665999999999993","720","410.5","7","1","1","23","15","25","35","false"
"null","null","psychophysics","16","90070","0.0-3.0-1.6","","key","null","16.665999999999904","720","410.5","","","","","","","",""
"1059.699999988079","arrowright","psychophysics","17","91131","0.0-3.0-0.7","","key","arrowright","16.66599999999998","720","410.5","8","1","1","23","35","25","35","true"
"null","null","psychophysics","18","92133","0.0-3.0-1.7","","key","null","16.665999999999904","720","410.5","","","","","","","",""
"731.5","arrowleft","psychophysics","19","92867","0.0-3.0-0.8","","key","arrowleft","16.666000000000146","720","410.5","9","1","1","25","15","25","35","false"
"null","null","psychophysics","20","93870","0.0-3.0-1.8","","key","null","16.68550847457639","720","410.5","","","","","","","",""
"738.5999999940395","arrowleft","psychophysics","21","94612","0.0-3.0-0.9","","key","arrowleft","16.666000000000146","720","410.5","10","1","1","27","15","25","35","false"
"null","null","psychophysics","22","95613","0.0-3.0-1.9","","key","null","16.665999999999904","720","410.5","","","","","","","",""
"468.5","arrowright","psychophysics","23","96083","0.0-3.0-0.10","","key","arrowright","16.666000000000036","720","410.5","11","1","-1","23","15","25","35","false"
"null","null","psychophysics","24","97086","0.0-3.0-1.10","","key","null","16.666000000000153","720","410.5","","","","","","","",""
"828.6999999880791","arrowright","psychophysics","25","97919","0.0-3.0-0.11","","key","arrowright","16.66600000000011","720","410.5","12","1","1","27","35","25","35","true"
"null","null","psychophysics","26","98921","0.0-3.0-1.11","","key","null","16.665999999999904","720","410.5","","","","","","","",""
"633.2000000178814","arrowright","psychophysics","27","99560","0.0-3.0-0.12","","key","arrowright","16.666000000000192","720","410.5","13","1","1","20","35","25","35","true"
"null","null","psychophysics","28","100562","0.0-3.0-1.12","","key","null","16.665999999999904","720","410.5","","","","","","","",""
"2076.100000023842","arrowright","psychophysics","29","102645","0.0-3.0-0.13","","key","arrowright","16.665999999999904","720","410.5","14","1","-1","23","35","25","35","false"
"null","null","psychophysics","30","103647","0.0-3.0-1.13","","key","null","16.665999999999865","720","410.5","","","","","","","",""
"1016.6000000238419","arrowright","psychophysics","31","104667","0.0-3.0-0.14","","key","arrowright","16.666000000000107","720","410.5","15","1","-1","23","35","25","35","false"
"null","null","psychophysics","32","105670","0.0-3.0-1.14","","key","null","16.665999999999904","720","410.5","","","","","","","",""
"673.9000000059605","arrowleft","psychophysics","33","106347","0.0-3.0-0.15","","key","arrowleft","16.665999999999986","720","410.5","16","1","1","26","15","25","35","false"
"null","null","psychophysics","34","107354","0.0-3.0-1.15","","key","null","16.665999999999904","720","410.5","","","","","","","",""
"741.5","arrowright","psychophysics","35","108100","0.0-3.0-0.16","","key","arrowright","16.666000000000086","720","410.5","17","1","1","23","35","25","35","true"
"null","null","psychophysics","36","109103","0.0-3.0-1.16","","key","null","16.666000000000153","720","410.5","","","","","","","",""
"860.0999999940395","arrowright","psychophysics","37","109968","0.0-3.0-0.17","","key","arrowright","16.666000000000007","720","410.5","18","1","-1","30","35","25","35","false"
"null","null","psychophysics","38","110970","0.0-3.0-1.17","","key","null","16.665999999999904","720","410.5","","","","","","","",""
"731.5","arrowright","psychophysics","39","111705","0.0-3.0-0.18","","key","arrowright","16.66599999999981","720","410.5","19","1","-1","30","35","25","35","false"
"null","null","psychophysics","40","112711","0.0-3.0-1.18","","key","null","16.666000000000153","720","410.5","","","","","","","",""
"640.0999999940395","arrowright","psychophysics","41","113358","0.0-3.0-0.19","","key","arrowright","16.696289473684278","720","410.5","20","1","1","25","35","25","35","true"
"null","null","psychophysics","42","114362","0.0-3.0-1.19","","key","null","16.665999999999904","720","410.5","","","","","","","",""
"3428.5999999940395","arrowright","psychophysics","43","117801","0.0-3.0-0.20","","key","arrowright","16.666000000000054","720","410.5","21","1","1","27","35","25","35","true"
"null","null","psychophysics","44","118803","0.0-3.0-1.20","","key","null","16.665999999999904","720","410.5","","","","","","","",""
"619.0999999940395","arrowright","psychophysics","45","119426","0.0-3.0-0.21","","key","arrowright","16.666000000000267","720","410.5","22","1","1","20","35","25","35","true"
"null","null","psychophysics","46","120429","0.0-3.0-1.21","","key","null","16.665999999999904","720","410.5","","","","","","","",""
"418.19999998807907","arrowright","psychophysics","47","120853","0.0-3.0-0.22","","key","arrowright","16.66600000000035","720","410.5","23","1","-1","24","15","25","35","false"
"null","null","psychophysics","48","121857","0.0-3.0-1.22","","key","null","16.665999999999904","720","410.5","","","","","","","",""
"838.9000000059605","arrowright","psychophysics","49","122700","0.0-3.0-0.23","","key","arrowright","16.665999999999766","720","410.5","24","1","-1","20","35","25","35","false"
"null","null","psychophysics","50","123706","0.0-3.0-1.23","","key","null","16.665999999999904","720","410.5","","","","","","","",""
"622.5999999940395","arrowleft","psychophysics","51","124333","0.0-3.0-0.24","","key","arrowleft","16.666000000000192","720","410.5","25","1","1","30","15","25","35","false"
"null","null","psychophysics","52","125336","0.0-3.0-1.24","","key","null","16.665999999999904","720","410.5","","","","","","","",""
"517.6000000238419","arrowleft","psychophysics","53","125858","0.0-3.0-0.25","","key","arrowleft","16.66600000000035","720","410.5","26","1","1","26","15","25","35","false"
"null","null","psychophysics","54","126866","0.0-3.0-1.25","","key","null","16.665999999999865","720","410.5","","","","","","","",""
"482.90000000596046","arrowright","psychophysics","55","127352","0.0-3.0-0.26","","key","arrowright","16.665999999999517","720","410.5","27","1","-1","26","35","25","35","false"
"null","null","psychophysics","56","128359","0.0-3.0-1.26","","key","null","16.665999999999904","720","410.5","","","","","","","",""
"502.19999998807907","arrowleft","psychophysics","57","128867","0.0-3.0-0.27","","key","arrowleft","16.665999999999865","720","410.5","28","2","1","20","15","25","35","false"
"null","null","psychophysics","58","129870","0.0-3.0-1.27","","key","null","16.665999999999904","720","410.5","","","","","","","",""
"323804.1999999881"," ","html-keyboard-response","59","453675","0.0-3.0-2.27-0.27","<div style=""color: white; text-align: center; vertical-align: top; display: inline-block; width: 800px; margin: auto""><p>You have completed 10% of the trials. You are on block 2 of 10. <br>Good job! Take a break if you need to.</p><p>Press any key to continue the experiment.</p></div>","","","","","","","","","","","","",""
"2266.300000011921","arrowright","psychophysics","60","456954","0.0-3.0-0.28","","key","arrowright","16.666000000000007","720","410.5","29","2","-1","26","15","25","35","false"
"null","null","psychophysics","61","457961","0.0-3.0-1.28","","key","null","16.665999999999904","720","410.5","","","","","","","",""
"756.5","arrowleft","psychophysics","62","458721","0.0-3.0-0.29","","key","arrowleft","16.66599999999938","720","410.5","30","2","1","20","15","25","35","false"
"null","null","psychophysics","63","459723","0.0-3.0-1.29","","key","null","16.665999999999904","720","410.5","","","","","","","",""
"932","arrowright","psychophysics","64","460658","0.0-3.0-0.30","","key","arrowright","16.666000000000086","720","410.5","31","2","1","24","35","25","35","true"
"null","null","psychophysics","65","461665","0.0-3.0-1.30","","key","null","16.665999999999904","720","410.5","","","","","","","",""
"682.1999999880791","arrowright","psychophysics","66","462353","0.0-3.0-0.31","","key","arrowright","16.666000000000988","720","410.5","32","2","-1","23","15","25","35","false"
"null","null","psychophysics","67","463356","0.0-3.0-1.31","","key","null","16.665999999999904","720","410.5","","","","","","","",""
"515.8000000119209","arrowleft","psychophysics","68","463876","0.0-3.0-0.32","","key","arrowleft","16.66599999999938","720","410.5","33","2","1","27","15","25","35","false"
"null","null","psychophysics","69","464882","0.0-3.0-1.32","","key","null","16.665999999999904","720","410.5","","","","","","","",""
"485","arrowright","psychophysics","70","465372","0.0-3.0-0.33","","key","arrowright","16.666000000000448","720","410.5","34","2","-1","23","15","25","35","false"
"null","null","psychophysics","71","466379","0.0-3.0-1.33","","key","null","16.665999999999904","720","410.5","","","","","","","",""
"676.7000000178814","arrowright","psychophysics","72","467061","0.0-3.0-0.34","","key","arrowright","16.66600000000035","720","410.5","35","2","-1","20","35","25","35","false"
"null","null","psychophysics","73","468065","0.0-3.0-1.34","","key","null","16.665999999999904","720","410.5","","","","","","","",""
"433.7999999821186","arrowleft","psychophysics","74","468504","0.0-3.0-0.35","","key","arrowleft","16.665999999999677","720","410.5","36","2","1","20","15","25","35","false"
"null","null","psychophysics","75","469511","0.0-3.0-1.35","","key","null","16.665999999999904","720","410.5","","","","","","","",""
"388.90000000596046","arrowright","psychophysics","76","469905","0.0-3.0-0.36","","key","arrowright","16.665999999998704","720","410.5","37","2","-1","27","15","25","35","false"
"null","null","psychophysics","77","470906","0.0-3.0-1.36","","key","null","16.665999999999904","720","410.5","","","","","","","",""
"514","arrowright","psychophysics","78","471424","0.0-3.0-0.37","","key","arrowright","16.66600000000132","720","410.5","38","2","-1","20","15","25","35","false"
"null","null","psychophysics","79","472427","0.0-3.0-1.37","","key","null","16.665999999999904","720","410.5","","","","","","","",""
"443.40000000596046","arrowright","psychophysics","80","472873","0.0-3.0-0.38","","key","arrowright","16.665999999999677","720","410.5","39","2","-1","27","15","25","35","false"
"null","null","psychophysics","81","473876","0.0-3.0-1.38","","key","null","16.686355932203313","720","410.5","","","","","","","",""
"916","arrowleft","psychophysics","82","474794","0.0-3.0-0.39","","key","arrowleft","16.666000000000672","720","410.5","40","2","1","25","35","25","35","false"
"null","null","psychophysics","83","475798","0.0-3.0-1.39","","key","null","16.665999999999904","720","410.5","","","","","","","",""
"568.8999999761581","arrowleft","psychophysics","84","476374","0.0-3.0-0.40","","key","arrowleft","16.66599999999915","720","410.5","41","2","1","23","15","25","35","false"
"null","null","psychophysics","85","477380","0.0-3.0-1.40","","key","null","16.665999999999904","720","410.5","","","","","","","",""
"462.40000000596046","arrowright","psychophysics","86","477849","0.0-3.0-0.41","","key","arrowright","16.666000000000672","720","410.5","42","2","1","30","15","25","35","true"
"null","null","psychophysics","87","478853","0.0-3.0-1.41","","key","null","16.66599999999938","720","410.5","","","","","","","",""
"1487.7000000178814","arrowleft","psychophysics","88","480343","0.0-3.0-0.42","","key","arrowleft","16.666000000000086","720","410.5","43","2","1","20","15","25","35","false"
"null","null","psychophysics","89","481348","0.0-3.0-1.42","","key","null","16.665999999999904","720","410.5","","","","","","","",""
"478.19999998807907","arrowleft","psychophysics","90","481832","0.0-3.0-0.43","","key","arrowleft","16.665999999999517","720","410.5","44","2","1","25","15","25","35","false"
"null","null","psychophysics","91","482835","0.0-3.0-1.43","","key","null","16.66599999999938","720","410.5","","","","","","","",""
"565","arrowleft","psychophysics","92","483403","0.0-3.0-0.44","","key","arrowleft","16.666000000000086","720","410.5","45","2","1","20","15","25","35","false"
"null","null","psychophysics","93","484406","0.0-3.0-1.44","","key","null","16.665999999999904","720","410.5","","","","","","","",""
"678.4000000059605","arrowright","psychophysics","94","485088","0.0-3.0-0.45","","key","arrowright","16.66600000000035","720","410.5","46","2","1","24","35","25","35","true"
"null","null","psychophysics","95","486090","0.0-3.0-1.45","","key","null","16.665999999999904","720","410.5","","","","","","","",""
"467.5","arrowleft","psychophysics","96","486560","0.0-3.0-0.46","","key","arrowleft","16.666000000000672","720","410.5","47","2","1","25","15","25","35","false"
"null","null","psychophysics","97","487566","0.0-3.0-1.46","","key","null","16.66600000000035","720","410.5","","","","","","","",""
"573.8999999761581","arrowright","psychophysics","98","488144","0.0-3.0-0.47","","key","arrowright","16.666000000000086","720","410.5","48","2","1","23","35","25","35","true"
"null","null","psychophysics","99","489148","0.0-3.0-1.47","","key","null","16.665999999999904","720","410.5","","","","","","","",""
"421.59999999403954","arrowright","psychophysics","100","489576","0.0-3.0-0.48","","key","arrowright","16.66600000000093","720","410.5","49","2","-1","26","15","25","35","false"
"null","null","psychophysics","101","490582","0.0-3.0-1.48","","key","null","16.665999999999904","720","410.5","","","","","","","",""
"463.80000001192093","arrowleft","psychophysics","102","491049","0.0-3.0-0.49","","key","arrowleft","16.666000000000672","720","410.5","50","2","1","25","15","25","35","false"
"null","null","psychophysics","103","492052","0.0-3.0-1.49","","key","null","16.66600000000035","720","410.5","","","","","","","",""
"1280.300000011921","arrowright","psychophysics","104","493336","0.0-3.0-0.50","","key","arrowright","16.665999999999737","720","410.5","51","2","1","24","35","25","35","true"
"null","null","psychophysics","105","494340","0.0-3.0-1.50","","key","null","16.686355932203313","720","410.5","","","","","","","",""
"493.40000000596046","arrowright","psychophysics","106","494836","0.0-3.0-0.51","","key","arrowright","16.666000000000448","720","410.5","52","2","-1","27","35","25","35","false"
"null","null","psychophysics","107","495840","0.0-3.0-1.51","","key","null","16.665999999999904","720","410.5","","","","","","","",""
"509.69999998807907","arrowright","psychophysics","108","496353","0.0-3.0-0.52","","key","arrowright","16.66599999999938","720","410.5","53","2","-1","24","35","25","35","false"
"null","null","psychophysics","109","497356","0.0-3.0-1.52","","key","null","16.665999999999904","720","410.5","","","","","","","",""
"443.40000000596046","arrowright","psychophysics","110","497803","0.0-3.0-0.53","","key","arrowright","16.665999999999677","720","410.5","54","2","-1","26","15","25","35","false"
"null","null","psychophysics","111","498806","0.0-3.0-1.53","","key","null","16.665999999999904","720","410.5","","","","","","","",""
"474.59999999403954","arrowright","psychophysics","112","499282","0.0-3.0-0.54","","key","arrowright","16.666000000000672","720","410.5","55","2","-1","30","35","25","35","false"
"null","null","psychophysics","113","500284","0.0-3.0-1.54","","key","null","16.66600000000035","720","410.5","","","","","","","",""
"428.19999998807907","arrowleft","psychophysics","114","500716","0.0-3.0-0.55","","key","arrowleft","16.665999999999865","720","410.5","56","3","1","26","15","25","35","false"
"null","null","psychophysics","115","501719","0.0-3.0-1.55","","key","null","16.66600000000035","720","410.5","","","","","","","",""
"1979.199999988079"," ","html-keyboard-response","116","503699","0.0-3.0-2.55-0.55","<div style=""color: white; text-align: center; vertical-align: top; display: inline-block; width: 800px; margin: auto""><p>You have completed 20% of the trials. You are on block 3 of 10. <br>Good job! Take a break if you need to.</p><p>Press any key to continue the experiment.</p></div>","","","","","","","","","","","","",""
"1075.5999999940395","arrowright","psychophysics","117","505782","0.0-3.0-0.56","","key","arrowright","16.67626562500027","720","410.5","57","3","-1","27","35","25","35","false"
"null","null","psychophysics","118","506784","0.0-3.0-1.56","","key","null","16.66600000000035","720","410.5","","","","","","","",""
"3495.9000000059605","arrowright","psychophysics","119","510283","0.0-3.0-0.57","","key","arrowright","16.666000000000086","720","410.5","58","3","-1","23","35","25","35","false"
"null","null","psychophysics","120","511284","0.0-3.0-1.57","","key","null","16.665999999999904","720","410.5","","","","","","","",""
"677.1999999880791","arrowright","psychophysics","121","511965","0.0-3.0-0.58","","key","arrowright","16.66600000000117","720","410.5","59","3","1","20","35","25","35","true"
"null","null","psychophysics","122","512967","0.0-3.0-1.58","","key","null","16.66600000000035","720","410.5","","","","","","","",""
"582.9000000059605","arrowleft","psychophysics","123","513553","0.0-3.0-0.59","","key","arrowleft","16.666000000000864","720","410.5","60","3","1","26","15","25","35","false"
"null","null","psychophysics","124","514556","0.0-3.0-1.59","","key","null","16.665999999999904","720","410.5","","","","","","","",""
"332.90000000596046","arrowright","psychophysics","125","514893","0.0-3.0-0.60","","key","arrowright","16.66599999999897","720","410.5","61","3","-1","26","15","25","35","false"
"null","null","psychophysics","126","515898","0.0-3.0-1.60","","key","null","16.665999999999904","720","410.5","","","","","","","",""
"1018.5999999940395","arrowright","psychophysics","127","516922","0.0-3.0-0.61","","key","arrowright","16.66600000000078","720","410.5","62","3","1","26","35","25","35","true"
"null","null","psychophysics","128","517929","0.0-3.0-1.61","","key","null","16.665999999999904","720","410.5","","","","","","","",""
"407.59999999403954","arrowright","psychophysics","129","518339","0.0-3.0-0.62","","key","arrowright","16.665999999999865","720","410.5","63","3","-1","27","15","25","35","false"
"null","null","psychophysics","130","519341","0.0-3.0-1.62","","key","null","16.666000000000892","720","410.5","","","","","","","",""
"428.69999998807907","arrowright","psychophysics","131","519774","0.0-3.0-0.63","","key","arrowright","16.66600000000093","720","410.5","64","3","-1","20","15","25","35","false"
"null","null","psychophysics","132","520781","0.0-3.0-1.63","","key","null","16.665999999999904","720","410.5","","","","","","","",""
"403.90000000596046","arrowright","psychophysics","133","521190","0.0-3.0-0.64","","key","arrowright","16.665999999999865","720","410.5","65","3","-1","26","15","25","35","false"
"null","null","psychophysics","134","522196","0.0-3.0-1.64","","key","null","16.666000000000892","720","410.5","","","","","","","",""
"405.80000001192093","arrowright","psychophysics","135","522606","0.0-3.0-0.65","","key","arrowright","16.665999999999865","720","410.5","66","3","-1","23","15","25","35","false"
"null","null","psychophysics","136","523609","0.0-3.0-1.65","","key","null","16.665999999999904","720","410.5","","","","","","","",""
"451.69999998807907","arrowleft","psychophysics","137","524066","0.0-3.0-0.66","","key","arrowleft","16.665999999999677","720","410.5","67","3","1","30","15","25","35","false"
"null","null","psychophysics","138","525067","0.0-3.0-1.66","","key","null","16.68466666666597","720","410.5","","","","","","","",""
"539.9000000059605","arrowright","psychophysics","139","525610","0.0-3.0-0.67","","key","arrowright","16.666000000002132","720","410.5","68","3","-1","30","35","25","35","false"
"null","null","psychophysics","140","526615","0.0-3.0-1.67","","key","null","16.665999999999904","720","410.5","","","","","","","",""
"443.59999999403954","arrowright","psychophysics","141","527065","0.0-3.0-0.68","","key","arrowright","16.665999999999677","720","410.5","69","3","-1","24","15","25","35","false"
"null","null","psychophysics","142","528067","0.0-3.0-1.68","","key","null","16.66599999999938","720","410.5","","","","","","","",""
"8625.59999999404","arrowright","psychophysics","143","536696","0.0-3.0-0.69","","key","arrowright","16.665999999999922","720","410.5","70","3","1","27","35","25","35","true"
"null","null","psychophysics","144","537699","0.0-3.0-1.69","","key","null","16.665999999999904","720","410.5","","","","","","","",""
"705.1999999880791","arrowright","psychophysics","145","538409","0.0-3.0-0.70","","key","arrowright","16.665999999998824","720","410.5","71","3","1","25","35","25","35","true"
"null","null","psychophysics","146","539415","0.0-3.0-1.70","","key","null","16.665999999999904","720","410.5","","","","","","","",""
"608.9000000059605","arrowright","psychophysics","147","540030","0.0-3.0-0.71","","key","arrowright","16.666000000000672","720","410.5","72","3","1","30","35","25","35","true"
"null","null","psychophysics","148","541033","0.0-3.0-1.71","","key","null","16.66599999999938","720","410.5","","","","","","","",""
"501.69999998807907","arrowright","psychophysics","149","541538","0.0-3.0-0.72","","key","arrowright","16.666000000000448","720","410.5","73","3","-1","27","35","25","35","false"
"null","null","psychophysics","150","542540","0.0-3.0-1.72","","key","null","16.665999999999904","720","410.5","","","","","","","",""
"356.89999997615814","arrowright","psychophysics","151","542900","0.0-3.0-0.73","","key","arrowright","16.666000000001596","720","410.5","74","3","1","25","35","25","35","true"
"null","null","psychophysics","152","543906","0.0-3.0-1.73","","key","null","16.665999999999904","720","410.5","","","","","","","",""
"377.80000001192093","arrowright","psychophysics","153","544288","0.0-3.0-0.74","","key","arrowright","16.665999999994792","720","410.5","75","3","-1","24","35","25","35","false"
"null","null","psychophysics","154","545290","0.0-3.0-1.74","","key","null","16.686355932203313","720","410.5","","","","","","","",""
"387.09999999403954","arrowright","psychophysics","155","545680","0.0-3.0-0.75","","key","arrowright","16.666000000000086","720","410.5","76","3","-1","25","35","25","35","false"
"null","null","psychophysics","156","546682","0.0-3.0-1.75","","key","null","16.665999999999904","720","410.5","","","","","","","",""
"649.7999999821186","arrowleft","psychophysics","157","547337","0.0-3.0-0.76","","key","arrowleft","16.665999999998185","720","410.5","77","3","1","24","15","25","35","false"
"null","null","psychophysics","158","548340","0.0-3.0-1.76","","key","null","16.665999999999904","720","410.5","","","","","","","",""
"445.39999997615814","arrowright","psychophysics","159","548788","0.0-3.0-0.77","","key","arrowright","16.665999999999677","720","410.5","78","3","-1","23","15","25","35","false"
"null","null","psychophysics","160","549790","0.0-3.0-1.77","","key","null","16.665999999999904","720","410.5","","","","","","","",""
"576.0999999940395","arrowleft","psychophysics","161","550369","0.0-3.0-0.78","","key","arrowleft","16.66599999999915","720","410.5","79","3","1","26","15","25","35","false"
"null","null","psychophysics","162","551373","0.0-3.0-1.78","","key","null","16.665999999999904","720","410.5","","","","","","","",""
"394.90000000596046","arrowright","psychophysics","163","551771","0.0-3.0-0.79","","key","arrowright","16.666000000003766","720","410.5","80","3","1","26","35","25","35","true"
"null","null","psychophysics","164","552773","0.0-3.0-1.79","","key","null","16.665999999999904","720","410.5","","","","","","","",""
"2015.699999988079","arrowright","psychophysics","165","554792","0.0-3.0-0.80","","key","arrowright","16.66600000000035","720","410.5","81","3","1","23","35","25","35","true"
"null","null","psychophysics","166","555798","0.0-3.0-1.80","","key","null","16.665999999999904","720","410.5","","","","","","","",""
"1579.300000011921","arrowright","psychophysics","167","557387","0.0-3.0-0.81","","key","arrowright","16.666000000000196","720","410.5","82","3","-1","20","35","25","35","false"
"null","null","psychophysics","168","558390","0.0-3.0-1.81","","key","null","16.665999999999904","720","410.5","","","","","","","",""
"1770.300000011921","arrowright","psychophysics","169","560165","0.0-3.0-0.82","","key","arrowright","16.66599999999938","720","410.5","83","3","1","25","35","25","35","true"
"null","null","psychophysics","170","561167","0.0-3.0-1.82","","key","null","16.66599999999938","720","410.5","","","","","","","",""
"703.7999999821186","arrowright","psychophysics","171","561875","0.0-3.0-0.83","","key","arrowright","16.665999999999567","720","410.5","84","4","-1","23","15","25","35","false"
"null","null","psychophysics","172","562881","0.0-3.0-1.83","","key","null","16.665999999999904","720","410.5","","","","","","","",""
"1150.0999999940395"," ","html-keyboard-response","173","564034","0.0-3.0-2.83-0.83","<div style=""color: white; text-align: center; vertical-align: top; display: inline-block; width: 800px; margin: auto""><p>You have completed 30% of the trials. You are on block 4 of 10. <br>Good job! Take a break if you need to.</p><p>Press any key to continue the experiment.</p></div>","","","","","","","","","","","","",""
"784","arrowleft","psychophysics","174","565830","0.0-3.0-0.84","","key","arrowleft","16.691872340426382","720","410.5","85","4","1","25","15","25","35","false"
"null","null","psychophysics","175","566832","0.0-3.0-1.84","","key","null","16.665999999999904","720","410.5","","","","","","","",""
"411.60000002384186","arrowright","psychophysics","176","567249","0.0-3.0-0.85","","key","arrowright","16.66600000000229","720","410.5","86","4","-1","25","15","25","35","false"
"null","null","psychophysics","177","568251","0.0-3.0-1.85","","key","null","16.66599999999938","720","410.5","","","","","","","",""
"2462.899999976158","arrowright","psychophysics","178","570717","0.0-3.0-0.86","","key","arrowright","16.66600000000001","720","410.5","87","4","1","25","35","25","35","true"
"null","null","psychophysics","179","571719","0.0-3.0-1.86","","key","null","16.665999999999904","720","410.5","","","","","","","",""
"458.19999998807907","arrowright","psychophysics","180","572179","0.0-3.0-0.87","","key","arrowright","16.665999999999677","720","410.5","88","4","-1","25","15","25","35","false"
"null","null","psychophysics","181","573182","0.0-3.0-1.87","","key","null","16.665999999999904","720","410.5","","","","","","","",""
"1496.2000000178814","arrowleft","psychophysics","182","574683","0.0-3.0-0.88","","key","arrowleft","16.66599999999938","720","410.5","89","4","1","30","35","25","35","false"
"null","null","psychophysics","183","575686","0.0-3.0-1.88","","key","null","16.665999999999904","720","410.5","","","","","","","",""
"490","arrowright","psychophysics","184","576178","0.0-3.0-0.89","","key","arrowright","16.666000000001596","720","410.5","90","4","-1","23","35","25","35","false"
"null","null","psychophysics","185","577182","0.0-3.0-1.89","","key","null","16.665999999999904","720","410.5","","","","","","","",""
"474.5","arrowleft","psychophysics","186","577664","0.0-3.0-0.90","","key","arrowleft","16.666000000001596","720","410.5","91","4","1","30","15","25","35","false"
"null","null","psychophysics","187","578667","0.0-3.0-1.90","","key","null","16.66599999999938","720","410.5","","","","","","","",""
"471","arrowleft","psychophysics","188","579140","0.0-3.0-0.91","","key","arrowleft","16.665999999998515","720","410.5","92","4","1","23","15","25","35","false"
"null","null","psychophysics","189","580147","0.0-3.0-1.91","","key","null","16.665999999999904","720","410.5","","","","","","","",""
"454.2999999821186","arrowright","psychophysics","190","580605","0.0-3.0-0.92","","key","arrowright","16.665999999998515","720","410.5","93","4","-1","20","15","25","35","false"
"null","null","psychophysics","191","581606","0.0-3.0-1.92","","key","null","16.665999999999904","720","410.5","","","","","","","",""
"504.40000000596046","arrowright","psychophysics","192","582114","0.0-3.0-0.93","","key","arrowright","16.666000000000448","720","410.5","94","4","1","26","35","25","35","true"
"null","null","psychophysics","193","583116","0.0-3.0-1.93","","key","null","16.66599999999938","720","410.5","","","","","","","",""
"510.09999999403954","arrowright","psychophysics","194","583631","0.0-3.0-0.94","","key","arrowright","16.666000000000448","720","410.5","95","4","-1","30","35","25","35","false"
"null","null","psychophysics","195","584633","0.0-3.0-1.94","","key","null","16.66599999999938","720","410.5","","","","","","","",""
"519.1999999880791","arrowright","psychophysics","196","585156","0.0-3.0-0.95","","key","arrowright","16.70333333333256","720","410.5","96","4","1","24","35","25","35","true"
"null","null","psychophysics","197","586163","0.0-3.0-1.95","","key","null","16.665999999999904","720","410.5","","","","","","","",""
"322.40000000596046","arrowright","psychophysics","198","586489","0.0-3.0-0.96","","key","arrowright","16.66599999999897","720","410.5","97","4","-1","20","35","25","35","false"
"null","null","psychophysics","199","587495","0.0-3.0-1.96","","key","null","16.665999999999904","720","410.5","","","","","","","",""
"322.5","arrowright","psychophysics","200","587821","0.0-3.0-0.97","","key","arrowright","16.66599999999897","720","410.5","98","4","-1","20","35","25","35","false"
"null","null","psychophysics","201","588823","0.0-3.0-1.97","","key","null","16.665999999999904","720","410.5","","","","","","","",""
"502.5","arrowleft","psychophysics","202","589329","0.0-3.0-0.98","","key","arrowleft","16.666000000000448","720","410.5","99","4","1","23","15","25","35","false"
"null","null","psychophysics","203","590332","0.0-3.0-1.98","","key","null","16.665999999999904","720","410.5","","","","","","","",""
"538.0999999940395","arrowright","psychophysics","204","590876","0.0-3.0-0.99","","key","arrowright","16.666000000001077","720","410.5","100","4","-1","30","35","25","35","false"
"null","null","psychophysics","205","591882","0.0-3.0-1.99","","key","null","16.665999999999904","720","410.5","","","","","","","",""
"451.19999998807907","arrowleft","psychophysics","206","592339","0.0-3.0-0.100","","key","arrowleft","16.66600000000283","720","410.5","101","4","1","23","15","25","35","false"
"null","null","psychophysics","207","593345","0.0-3.0-1.100","","key","null","16.665999999999904","720","410.5","","","","","","","",""
"380.69999998807907","arrowright","psychophysics","208","593730","0.0-3.0-0.101","","key","arrowright","16.666000000000086","720","410.5","102","4","-1","20","35","25","35","false"
"null","null","psychophysics","209","594732","0.0-3.0-1.101","","key","null","16.665999999999904","720","410.5","","","","","","","",""
"489.89999997615814","arrowright","psychophysics","210","595228","0.0-3.0-0.102","","key","arrowright","16.666000000000448","720","410.5","103","4","-1","25","15","25","35","false"
"null","null","psychophysics","211","596232","0.0-3.0-1.102","","key","null","16.665999999999904","720","410.5","","","","","","","",""
"456.5","arrowright","psychophysics","212","596695","0.0-3.0-0.103","","key","arrowright","16.66600000000283","720","410.5","104","4","-1","27","15","25","35","false"
"null","null","psychophysics","213","597699","0.0-3.0-1.103","","key","null","16.665999999999904","720","410.5","","","","","","","",""
"384.09999999403954","arrowleft","psychophysics","214","598089","0.0-3.0-0.104","","key","arrowleft","16.665999999998704","720","410.5","105","4","1","24","15","25","35","false"
"null","null","psychophysics","215","599094","0.0-3.0-1.104","","key","null","16.665999999999904","720","410.5","","","","","","","",""
"496.40000000596046","arrowleft","psychophysics","216","599594","0.0-3.0-0.105","","key","arrowleft","16.666000000000448","720","410.5","106","4","1","23","15","25","35","false"
"null","null","psychophysics","217","600598","0.0-3.0-1.105","","key","null","16.665999999999904","720","410.5","","","","","","","",""
"618.9000000059605","arrowright","psychophysics","218","601223","0.0-3.0-0.106","","key","arrowright","16.666000000002946","720","410.5","107","4","-1","25","35","25","35","false"
"null","null","psychophysics","219","602229","0.0-3.0-1.106","","key","null","16.665999999999904","720","410.5","","","","","","","",""
"577.2999999821186","arrowleft","psychophysics","220","602809","0.0-3.0-0.107","","key","arrowleft","16.66599999999915","720","410.5","108","4","1","30","15","25","35","false"
"null","null","psychophysics","221","603815","0.0-3.0-1.107","","key","null","16.665999999999904","720","410.5","","","","","","","",""
"600","arrowright","psychophysics","222","604421","0.0-3.0-0.108","","key","arrowright","16.666000000000672","720","410.5","109","4","1","30","35","25","35","true"
"null","null","psychophysics","223","605423","0.0-3.0-1.108","","key","null","16.686355932203313","720","410.5","","","","","","","",""
"509.5","arrowright","psychophysics","224","605936","0.0-3.0-0.109","","key","arrowright","16.666000000003258","720","410.5","110","4","-1","26","35","25","35","false"
"null","null","psychophysics","225","606940","0.0-3.0-1.109","","key","null","16.665999999999904","720","410.5","","","","","","","",""
"496.60000002384186","arrowright","psychophysics","226","607439","0.0-3.0-0.110","","key","arrowright","16.666000000000448","720","410.5","111","4","1","23","35","25","35","true"
"null","null","psychophysics","227","608446","0.0-3.0-1.110","","key","null","16.665999999999904","720","410.5","","","","","","","",""
"381.09999999403954","arrowright","psychophysics","228","608832","0.0-3.0-0.111","","key","arrowright","16.666000000000086","720","410.5","112","5","-1","26","15","25","35","false"
"null","null","psychophysics","229","609834","0.0-3.0-1.111","","key","null","16.66599999999938","720","410.5","","","","","","","",""
"1080.0999999940395"," ","html-keyboard-response","230","610920","0.0-3.0-2.111-0.111","<div style=""color: white; text-align: center; vertical-align: top; display: inline-block; width: 800px; margin: auto""><p>You have completed 40% of the trials. You are on block 5 of 10. <br>Good job! Take a break if you need to.</p><p>Press any key to continue the experiment.</p></div>","","","","","","","","","","","","",""
"792.2999999821186","arrowright","psychophysics","231","612721","0.0-3.0-0.112","","key","arrowright","16.665999999999865","720","410.5","113","5","-1","27","35","25","35","false"
"null","null","psychophysics","232","613723","0.0-3.0-1.112","","key","null","16.66600000000188","720","410.5","","","","","","","",""
"539.0999999940395","arrowleft","psychophysics","233","614266","0.0-3.0-0.113","","key","arrowleft","16.665999999998377","720","410.5","114","5","1","24","15","25","35","false"
"null","null","psychophysics","234","615267","0.0-3.0-1.113","","key","null","16.66599999999938","720","410.5","","","","","","","",""
"434","arrowleft","psychophysics","235","615705","0.0-3.0-0.114","","key","arrowleft","16.66600000000093","720","410.5","115","5","1","27","15","25","35","false"
"null","null","psychophysics","236","616706","0.0-3.0-1.114","","key","null","16.665999999999904","720","410.5","","","","","","","",""
"310.5","arrowleft","psychophysics","237","617020","0.0-3.0-0.115","","key","arrowleft","16.666000000000672","720","410.5","116","5","1","30","15","25","35","false"
"null","null","psychophysics","238","618023","0.0-3.0-1.115","","key","null","16.665999999999904","720","410.5","","","","","","","",""
"411.60000002384186","arrowright","psychophysics","239","618438","0.0-3.0-0.116","","key","arrowright","16.66600000000229","720","410.5","117","5","-1","26","35","25","35","false"
"null","null","psychophysics","240","619440","0.0-3.0-1.116","","key","null","16.665999999999904","720","410.5","","","","","","","",""
"362.7000000178814","arrowright","psychophysics","241","619807","0.0-3.0-0.117","","key","arrowright","16.666000000001596","720","410.5","118","5","1","27","35","25","35","true"
"null","null","psychophysics","242","620810","0.0-3.0-1.117","","key","null","16.665999999999904","720","410.5","","","","","","","",""
"322.10000002384186","arrowright","psychophysics","243","621137","0.0-3.0-0.118","","key","arrowright","16.6660000000051","720","410.5","119","5","1","30","35","25","35","true"
"null","null","psychophysics","244","622140","0.0-3.0-1.118","","key","null","16.665999999999904","720","410.5","","","","","","","",""
"289.40000000596046","arrowright","psychophysics","245","622433","0.0-3.0-0.119","","key","arrowright","16.666000000002576","720","410.5","120","5","-1","24","15","25","35","false"
"null","null","psychophysics","246","623436","0.0-3.0-1.119","","key","null","16.665999999999904","720","410.5","","","","","","","",""
"341.19999998807907","arrowright","psychophysics","247","623780","0.0-3.0-0.120","","key","arrowright","16.6660000000051","720","410.5","121","5","-1","27","35","25","35","false"
"null","null","psychophysics","248","624782","0.0-3.0-1.120","","key","null","16.665999999999904","720","410.5","","","","","","","",""
"651","arrowright","psychophysics","249","625439","0.0-3.0-0.121","","key","arrowright","16.696769230769206","720","410.5","122","5","-1","20","15","25","35","false"
"null","null","psychophysics","250","626445","0.0-3.0-1.121","","key","null","16.665999999999904","720","410.5","","","","","","","",""
"607.8000000119209","arrowright","psychophysics","251","627057","0.0-3.0-0.122","","key","arrowright","16.666000000000672","720","410.5","123","5","-1","24","15","25","35","false"
"null","null","psychophysics","252","628058","0.0-3.0-1.122","","key","null","16.665999999999904","720","410.5","","","","","","","",""
"376.09999999403954","arrowleft","psychophysics","253","628438","0.0-3.0-0.123","","key","arrowleft","16.666000000000086","720","410.5","124","5","1","20","15","25","35","false"
"null","null","psychophysics","254","629440","0.0-3.0-1.123","","key","null","16.665999999999904","720","410.5","","","","","","","",""
"413.7000000178814","arrowright","psychophysics","255","629857","0.0-3.0-0.124","","key","arrowright","16.66599999999744","720","410.5","125","5","-1","27","35","25","35","false"
"null","null","psychophysics","256","630864","0.0-3.0-1.124","","key","null","16.665999999999904","720","410.5","","","","","","","",""
"461.7000000178814","arrowright","psychophysics","257","631330","0.0-3.0-0.125","","key","arrowright","16.665999999998515","720","410.5","126","5","1","27","35","25","35","true"
"null","null","psychophysics","258","632332","0.0-3.0-1.125","","key","null","16.665999999999904","720","410.5","","","","","","","",""
"441","arrowleft","psychophysics","259","632779","0.0-3.0-0.126","","key","arrowleft","16.665999999999677","720","410.5","127","5","1","24","15","25","35","false"
"null","null","psychophysics","260","633782","0.0-3.0-1.126","","key","null","16.665999999999904","720","410.5","","","","","","","",""
"397.90000000596046","arrowright","psychophysics","261","634185","0.0-3.0-0.127","","key","arrowright","16.66600000000229","720","410.5","128","5","-1","26","15","25","35","false"
"null","null","psychophysics","262","635186","0.0-3.0-1.127","","key","null","16.665999999999904","720","410.5","","","","","","","",""
"426.2999999821186","arrowleft","psychophysics","263","635615","0.0-3.0-0.128","","key","arrowleft","16.66599999999744","720","410.5","129","5","1","26","15","25","35","false"
"null","null","psychophysics","264","636617","0.0-3.0-1.128","","key","null","16.66600000000132","720","410.5","","","","","","","",""
"466.5","arrowright","psychophysics","265","637087","0.0-3.0-0.129","","key","arrowright","16.665999999998515","720","410.5","130","5","-1","30","15","25","35","false"
"null","null","psychophysics","266","638090","0.0-3.0-1.129","","key","null","16.665999999999904","720","410.5","","","","","","","",""
"627.7999999821186","arrowright","psychophysics","267","638721","0.0-3.0-0.130","","key","arrowright","16.665999999999798","720","410.5","131","5","-1","20","35","25","35","false"
"null","null","psychophysics","268","639723","0.0-3.0-1.130","","key","null","16.665999999999904","720","410.5","","","","","","","",""
"411","arrowright","psychophysics","269","640138","0.0-3.0-0.131","","key","arrowright","16.66599999999744","720","410.5","132","5","-1","23","35","25","35","false"
"null","null","psychophysics","270","641140","0.0-3.0-1.131","","key","null","16.665999999999904","720","410.5","","","","","","","",""
"394.80000001192093","arrowright","psychophysics","271","641538","0.0-3.0-0.132","","key","arrowright","16.665999999998704","720","410.5","133","5","1","20","35","25","35","true"
"null","null","psychophysics","272","642545","0.0-3.0-1.132","","key","null","16.665999999999904","720","410.5","","","","","","","",""
"355.90000000596046","arrowright","psychophysics","273","642904","0.0-3.0-0.133","","key","arrowright","16.666000000001596","720","410.5","134","5","-1","26","35","25","35","false"
"null","null","psychophysics","274","643906","0.0-3.0-1.133","","key","null","16.66600000000188","720","410.5","","","","","","","",""
"342.69999998807907","arrowright","psychophysics","275","644253","0.0-3.0-0.134","","key","arrowright","16.66599999999744","720","410.5","135","5","1","24","35","25","35","true"
"null","null","psychophysics","276","645256","0.0-3.0-1.134","","key","null","16.68447457627054","720","410.5","","","","","","","",""
"346.30000001192093","arrowright","psychophysics","277","645606","0.0-3.0-0.135","","key","arrowright","16.666000000003258","720","410.5","136","5","-1","25","35","25","35","false"
"null","null","psychophysics","278","646613","0.0-3.0-1.135","","key","null","16.665999999999904","720","410.5","","","","","","","",""
"508.5","arrowright","psychophysics","279","647124","0.0-3.0-0.136","","key","arrowright","16.66599999999938","720","410.5","137","5","1","26","35","25","35","true"
"null","null","psychophysics","280","648130","0.0-3.0-1.136","","key","null","16.665999999999904","720","410.5","","","","","","","",""
"587.8000000119209","arrowright","psychophysics","281","648722","0.0-3.0-0.137","","key","arrowright","16.66599999999827","720","410.5","138","5","-1","27","15","25","35","false"
"null","null","psychophysics","282","649728","0.0-3.0-1.137","","key","null","16.665999999999904","720","410.5","","","","","","","",""
"664","arrowright","psychophysics","283","650396","0.0-3.0-0.138","","key","arrowright","16.66600000000117","720","410.5","139","5","-1","24","15","25","35","false"
"null","null","psychophysics","284","651399","0.0-3.0-1.138","","key","null","16.665999999999904","720","410.5","","","","","","","",""
"604.2999999821186","arrowright","psychophysics","285","652008","0.0-3.0-0.139","","key","arrowright","16.666000000000672","720","410.5","140","6","-1","23","15","25","35","false"
"null","null","psychophysics","286","653015","0.0-3.0-1.139","","key","null","16.665999999999904","720","410.5","","","","","","","",""
"1151.5999999940395"," ","html-keyboard-response","287","654169","0.0-3.0-2.139-0.139","<div style=""color: white; text-align: center; vertical-align: top; display: inline-block; width: 800px; margin: auto""><p>You have completed 50% of the trials. You are on block 6 of 10. <br>Good job! Take a break if you need to.</p><p>Press any key to continue the experiment.</p></div>","","","","","","","","","","","","",""
"861.5","arrowright","psychophysics","288","656038","0.0-3.0-0.140","","key","arrowright","16.67753846153769","720","410.5","141","6","-1","30","15","25","35","false"
"null","null","psychophysics","289","657040","0.0-3.0-1.140","","key","null","16.665999999999904","720","410.5","","","","","","","",""
"1495.6000000238419","arrowleft","psychophysics","290","658539","0.0-3.0-0.141","","key","arrowleft","16.665999999999727","720","410.5","142","6","-1","25","35","25","35","true"
"null","null","psychophysics","291","659545","0.0-3.0-1.141","","key","null","16.665999999999904","720","410.5","","","","","","","",""
"750.6999999880791","arrowright","psychophysics","292","660300","0.0-3.0-0.142","","key","arrowright","16.666000000001965","720","410.5","143","6","-1","23","35","25","35","false"
"null","null","psychophysics","293","661303","0.0-3.0-1.142","","key","null","16.665999999999904","720","410.5","","","","","","","",""
"692.8000000119209","arrowright","psychophysics","294","661998","0.0-3.0-0.143","","key","arrowright","16.66600000000035","720","410.5","144","6","1","30","35","25","35","true"
"null","null","psychophysics","295","663000","0.0-3.0-1.143","","key","null","16.665999999999904","720","410.5","","","","","","","",""
"298.40000000596046","arrowright","psychophysics","296","663302","0.0-3.0-0.144","","key","arrowright","16.666000000000672","720","410.5","145","6","-1","23","35","25","35","false"
"null","null","psychophysics","297","664306","0.0-3.0-1.144","","key","null","16.665999999999904","720","410.5","","","","","","","",""
"426.5","arrowright","psychophysics","298","664737","0.0-3.0-0.145","","key","arrowright","16.66600000000093","720","410.5","146","6","-1","27","15","25","35","false"
"null","null","psychophysics","299","665740","0.0-3.0-1.145","","key","null","16.665999999999904","720","410.5","","","","","","","",""
"369.69999998807907","arrowright","psychophysics","300","666113","0.0-3.0-0.146","","key","arrowright","16.665999999996053","720","410.5","147","6","1","20","35","25","35","true"
"null","null","psychophysics","301","667116","0.0-3.0-1.146","","key","null","16.665999999999904","720","410.5","","","","","","","",""
"354.69999998807907","arrowright","psychophysics","302","667476","0.0-3.0-0.147","","key","arrowright","16.666000000001596","720","410.5","148","6","-1","25","35","25","35","false"
"null","null","psychophysics","303","668482","0.0-3.0-1.147","","key","null","16.665999999999904","720","410.5","","","","","","","",""
"484","arrowleft","psychophysics","304","668971","0.0-3.0-0.148","","key","arrowleft","16.666000000000448","720","410.5","149","6","1","23","15","25","35","false"
"null","null","psychophysics","305","669973","0.0-3.0-1.148","","key","null","16.665999999999904","720","410.5","","","","","","","",""
"394.19999998807907","arrowright","psychophysics","306","670371","0.0-3.0-0.149","","key","arrowright","16.665999999998704","720","410.5","150","6","-1","25","15","25","35","false"
"null","null","psychophysics","307","671373","0.0-3.0-1.149","","key","null","16.665999999999904","720","410.5","","","","","","","",""
"576.5","arrowright","psychophysics","308","671953","0.0-3.0-0.150","","key","arrowright","16.66599999999915","720","410.5","151","6","-1","26","35","25","35","false"
"null","null","psychophysics","309","672956","0.0-3.0-1.150","","key","null","16.665999999999904","720","410.5","","","","","","","",""
"496.19999998807907","arrowleft","psychophysics","310","673457","0.0-3.0-0.151","","key","arrowleft","16.666000000000448","720","410.5","152","6","1","24","15","25","35","false"
"null","null","psychophysics","311","674463","0.0-3.0-1.151","","key","null","16.665999999999904","720","410.5","","","","","","","",""
"408","arrowright","psychophysics","312","674877","0.0-3.0-0.152","","key","arrowright","16.66599999999744","720","410.5","153","6","-1","25","15","25","35","false"
"null","null","psychophysics","313","675882","0.0-3.0-1.152","","key","null","16.68516949152424","720","410.5","","","","","","","",""
"1251.0999999940395","arrowright","psychophysics","314","677139","0.0-3.0-0.153","","key","arrowright","16.66599999999938","720","410.5","154","6","-1","24","35","25","35","false"
"null","null","psychophysics","315","678142","0.0-3.0-1.153","","key","null","16.665999999999904","720","410.5","","","","","","","",""
"555.5999999940395","arrowright","psychophysics","316","678701","0.0-3.0-0.154","","key","arrowright","16.665999999996558","720","410.5","155","6","1","26","35","25","35","true"
"null","null","psychophysics","317","679704","0.0-3.0-1.154","","key","null","16.665999999999904","720","410.5","","","","","","","",""
"384","arrowright","psychophysics","318","680091","0.0-3.0-0.155","","key","arrowright","16.666000000000086","720","410.5","156","6","-1","20","35","25","35","false"
"null","null","psychophysics","319","681097","0.0-3.0-1.155","","key","null","16.665999999999904","720","410.5","","","","","","","",""
"679.5","arrowright","psychophysics","320","681781","0.0-3.0-0.156","","key","arrowright","16.66600000000035","720","410.5","157","6","-1","24","35","25","35","false"
"null","null","psychophysics","321","682783","0.0-3.0-1.156","","key","null","16.66599999999938","720","410.5","","","","","","","",""
"535.5999999940395","arrowleft","psychophysics","322","683323","0.0-3.0-0.157","","key","arrowleft","16.666000000002132","720","410.5","158","6","1","20","15","25","35","false"
"null","null","psychophysics","323","684325","0.0-3.0-1.157","","key","null","16.665999999999904","720","410.5","","","","","","","",""
"455.7000000178814","arrowleft","psychophysics","324","684784","0.0-3.0-0.158","","key","arrowleft","16.66600000000283","720","410.5","159","6","1","26","15","25","35","false"
"null","null","psychophysics","325","685786","0.0-3.0-1.158","","key","null","16.665999999999904","720","410.5","","","","","","","",""
"533.1999999880791","arrowright","psychophysics","326","686322","0.0-3.0-0.159","","key","arrowright","16.666000000002132","720","410.5","160","6","1","26","35","25","35","true"
"null","null","psychophysics","327","687329","0.0-3.0-1.159","","key","null","16.665999999999904","720","410.5","","","","","","","",""
"438.89999997615814","arrowleft","psychophysics","328","687771","0.0-3.0-0.160","","key","arrowleft","16.665999999999677","720","410.5","161","6","1","25","15","25","35","false"
"null","null","psychophysics","329","688773","0.0-3.0-1.160","","key","null","16.665999999999904","720","410.5","","","","","","","",""
"363.40000000596046","arrowright","psychophysics","330","689138","0.0-3.0-0.161","","key","arrowright","16.666000000001596","720","410.5","162","6","1","30","35","25","35","true"
"null","null","psychophysics","331","690145","0.0-3.0-1.161","","key","null","16.665999999999904","720","410.5","","","","","","","",""
"366","arrowleft","psychophysics","332","690515","0.0-3.0-0.162","","key","arrowleft","16.666000000001596","720","410.5","163","6","1","25","35","25","35","false"
"null","null","psychophysics","333","691518","0.0-3.0-1.162","","key","null","16.66600000000132","720","410.5","","","","","","","",""
"413.59999999403954","arrowright","psychophysics","334","691935","0.0-3.0-0.163","","key","arrowright","16.66599999999744","720","410.5","164","6","1","23","35","25","35","true"
"null","null","psychophysics","335","692936","0.0-3.0-1.163","","key","null","16.665999999999904","720","410.5","","","","","","","",""
"316.40000000596046","arrowright","psychophysics","336","693255","0.0-3.0-0.164","","key","arrowright","16.666000000000672","720","410.5","165","6","1","26","35","25","35","true"
"null","null","psychophysics","337","694262","0.0-3.0-1.164","","key","null","16.665999999999904","720","410.5","","","","","","","",""
"315.19999998807907","arrowright","psychophysics","338","694581","0.0-3.0-0.165","","key","arrowright","16.665999999994206","720","410.5","166","6","-1","25","15","25","35","false"
"null","null","psychophysics","339","695583","0.0-3.0-1.165","","key","null","16.685166666666433","720","410.5","","","","","","","",""
"313.7000000178814","arrowright","psychophysics","340","695901","0.0-3.0-0.166","","key","arrowright","16.666000000002576","720","410.5","167","6","-1","27","35","25","35","false"
"null","null","psychophysics","341","696903","0.0-3.0-1.166","","key","null","16.66599999999938","720","410.5","","","","","","","",""
"427.2000000178814","arrowright","psychophysics","342","697333","0.0-3.0-0.167","","key","arrowright","16.66599999999744","720","410.5","168","7","-1","25","15","25","35","false"
"null","null","psychophysics","343","698337","0.0-3.0-1.167","","key","null","16.66600000000132","720","410.5","","","","","","","",""
"1166"," ","html-keyboard-response","344","699504","0.0-3.0-2.167-0.167","<div style=""color: white; text-align: center; vertical-align: top; display: inline-block; width: 800px; margin: auto""><p>You have completed 60% of the trials. You are on block 7 of 10. <br>Good job! Take a break if you need to.</p><p>Press any key to continue the experiment.</p></div>","","","","","","","","","","","","",""
"577.4000000059605","arrowright","psychophysics","345","701093","0.0-3.0-0.168","","key","arrowright","16.666000000001596","720","410.5","169","7","1","20","35","25","35","true"
"null","null","psychophysics","346","702099","0.0-3.0-1.168","","key","null","16.665999999999904","720","410.5","","","","","","","",""
"310.09999999403954","arrowright","psychophysics","347","702416","0.0-3.0-0.169","","key","arrowright","16.666000000000672","720","410.5","170","7","-1","20","15","25","35","false"
"null","null","psychophysics","348","703419","0.0-3.0-1.169","","key","null","16.66600000000132","720","410.5","","","","","","","",""
"311.7000000178814","arrowright","psychophysics","349","703734","0.0-3.0-0.170","","key","arrowright","16.666000000000672","720","410.5","171","7","-1","24","35","25","35","false"
"null","null","psychophysics","350","704736","0.0-3.0-1.170","","key","null","16.665999999999904","720","410.5","","","","","","","",""
"591.5","arrowleft","psychophysics","351","705331","0.0-3.0-0.171","","key","arrowleft","16.666000000002576","720","410.5","172","7","1","26","15","25","35","false"
"null","null","psychophysics","352","706333","0.0-3.0-1.171","","key","null","16.665999999999904","720","410.5","","","","","","","",""
"346.5","arrowright","psychophysics","353","706684","0.0-3.0-0.172","","key","arrowright","16.666000000001596","720","410.5","173","7","-1","25","35","25","35","false"
"null","null","psychophysics","354","707690","0.0-3.0-1.172","","key","null","16.665999999999904","720","410.5","","","","","","","",""
"413.90000000596046","arrowright","psychophysics","355","708108","0.0-3.0-0.173","","key","arrowright","16.66599999999744","720","410.5","174","7","-1","30","35","25","35","false"
"null","null","psychophysics","356","709112","0.0-3.0-1.173","","key","null","16.665999999999904","720","410.5","","","","","","","",""
"357.2999999821186","arrowright","psychophysics","357","709474","0.0-3.0-0.174","","key","arrowright","16.665999999996053","720","410.5","175","7","1","27","35","25","35","true"
"null","null","psychophysics","358","710481","0.0-3.0-1.174","","key","null","16.665999999999904","720","410.5","","","","","","","",""
"297.7000000178814","arrowright","psychophysics","359","710785","0.0-3.0-0.175","","key","arrowright","16.666000000000672","720","410.5","176","7","-1","26","35","25","35","false"
"null","null","psychophysics","360","711790","0.0-3.0-1.175","","key","null","16.665999999999904","720","410.5","","","","","","","",""
"334.09999999403954","arrowright","psychophysics","361","712128","0.0-3.0-0.176","","key","arrowright","16.6660000000051","720","410.5","177","7","1","27","15","25","35","true"
"null","null","psychophysics","362","713132","0.0-3.0-1.176","","key","null","16.665999999999904","720","410.5","","","","","","","",""
"483.59999999403954","arrowleft","psychophysics","363","713623","0.0-3.0-0.177","","key","arrowleft","16.666000000000448","720","410.5","178","7","1","25","15","25","35","false"
"null","null","psychophysics","364","714630","0.0-3.0-1.177","","key","null","16.665999999999904","720","410.5","","","","","","","",""
"527.3000000119209","arrowright","psychophysics","365","715164","0.0-3.0-0.178","","key","arrowright","16.665999999998377","720","410.5","179","7","-1","27","35","25","35","false"
"null","null","psychophysics","366","716167","0.0-3.0-1.178","","key","null","16.686566666666963","720","410.5","","","","","","","",""
"650.1000000238419","arrowright","psychophysics","367","716821","0.0-3.0-0.179","","key","arrowright","16.66599999999897","720","410.5","180","7","-1","30","15","25","35","false"
"null","null","psychophysics","368","717823","0.0-3.0-1.179","","key","null","16.665999999999904","720","410.5","","","","","","","",""
"461.80000001192093","arrowleft","psychophysics","369","718289","0.0-3.0-0.180","","key","arrowleft","16.66600000000283","720","410.5","181","7","1","27","15","25","35","false"
"null","null","psychophysics","370","719296","0.0-3.0-1.180","","key","null","16.665999999999904","720","410.5","","","","","","","",""
"565.1000000238419","arrowleft","psychophysics","371","719866","0.0-3.0-0.181","","key","arrowleft","16.666000000000086","720","410.5","182","7","1","23","15","25","35","false"
"null","null","psychophysics","372","720869","0.0-3.0-1.181","","key","null","16.66599999999938","720","410.5","","","","","","","",""
"587.7000000178814","arrowright","psychophysics","373","721460","0.0-3.0-0.182","","key","arrowright","16.666000000002576","720","410.5","183","7","1","30","35","25","35","true"
"null","null","psychophysics","374","722466","0.0-3.0-1.182","","key","null","16.665999999999904","720","410.5","","","","","","","",""
"384.40000000596046","arrowleft","psychophysics","375","722856","0.0-3.0-0.183","","key","arrowleft","16.665999999998704","720","410.5","184","7","1","25","15","25","35","false"
"null","null","psychophysics","376","723859","0.0-3.0-1.183","","key","null","16.665999999999904","720","410.5","","","","","","","",""
"332.59999999403954","arrowleft","psychophysics","377","724196","0.0-3.0-0.184","","key","arrowleft","16.66599999999897","720","410.5","185","7","1","24","15","25","35","false"
"null","null","psychophysics","378","725199","0.0-3.0-1.184","","key","null","16.665999999999904","720","410.5","","","","","","","",""
"417.90000000596046","arrowleft","psychophysics","379","725627","0.0-3.0-0.185","","key","arrowleft","16.66600000000093","720","410.5","186","7","1","24","15","25","35","false"
"null","null","psychophysics","380","726632","0.0-3.0-1.185","","key","null","16.665999999999904","720","410.5","","","","","","","",""
"550.5","arrowright","psychophysics","381","727189","0.0-3.0-0.186","","key","arrowright","16.666000000000086","720","410.5","187","7","-1","24","15","25","35","false"
"null","null","psychophysics","382","728192","0.0-3.0-1.186","","key","null","16.665999999999904","720","410.5","","","","","","","",""
"771.4000000059605","arrowright","psychophysics","383","728968","0.0-3.0-0.187","","key","arrowright","16.665999999998704","720","410.5","188","7","-1","23","35","25","35","false"
"null","null","psychophysics","384","729973","0.0-3.0-1.187","","key","null","16.665999999999904","720","410.5","","","","","","","",""
"382.30000001192093","arrowright","psychophysics","385","730360","0.0-3.0-0.188","","key","arrowright","16.666000000000086","720","410.5","189","7","-1","26","35","25","35","false"
"null","null","psychophysics","386","731365","0.0-3.0-1.188","","key","null","16.665999999999904","720","410.5","","","","","","","",""
"334.19999998807907","arrowright","psychophysics","387","731706","0.0-3.0-0.189","","key","arrowright","16.666000000003258","720","410.5","190","7","1","27","35","25","35","true"
"null","null","psychophysics","388","732710","0.0-3.0-1.189","","key","null","16.665999999999904","720","410.5","","","","","","","",""
"361.30000001192093","arrowright","psychophysics","389","733076","0.0-3.0-0.190","","key","arrowright","16.666000000001596","720","410.5","191","7","-1","23","15","25","35","false"
"null","null","psychophysics","390","734082","0.0-3.0-1.190","","key","null","16.665999999999904","720","410.5","","","","","","","",""
"416.59999999403954","arrowright","psychophysics","391","734506","0.0-3.0-0.191","","key","arrowright","16.665999999996274","720","410.5","192","7","-1","26","35","25","35","false"
"null","null","psychophysics","392","735512","0.0-3.0-1.191","","key","null","16.685525423728752","720","410.5","","","","","","","",""
"1175","arrowright","psychophysics","393","736691","0.0-3.0-0.192","","key","arrowright","16.665999999999933","720","410.5","193","7","-1","25","35","25","35","false"
"null","null","psychophysics","394","737698","0.0-3.0-1.192","","key","null","16.665999999999904","720","410.5","","","","","","","",""
"770.6999999880791","arrowright","psychophysics","395","738476","0.0-3.0-0.193","","key","arrowright","16.665999999998704","720","410.5","194","7","-1","20","15","25","35","false"
"null","null","psychophysics","396","739482","0.0-3.0-1.193","","key","null","16.66600000000188","720","410.5","","","","","","","",""
"2387.9000000059605","arrowright","psychophysics","397","741872","0.0-3.0-0.194","","key","arrowright","16.666000000000086","720","410.5","195","7","-1","27","15","25","35","false"
"null","null","psychophysics","398","742875","0.0-3.0-1.194","","key","null","16.665999999999904","720","410.5","","","","","","","",""
"912.7999999821186","arrowright","psychophysics","399","743791","0.0-3.0-0.195","","key","arrowright","16.666000000000672","720","410.5","196","8","1","24","35","25","35","true"
"null","null","psychophysics","400","744798","0.0-3.0-1.195","","key","null","16.665999999999904","720","410.5","","","","","","","",""
"6523.0999999940395"," ","html-keyboard-response","401","751324","0.0-3.0-2.195-0.195","<div style=""color: white; text-align: center; vertical-align: top; display: inline-block; width: 800px; margin: auto""><p>You have completed 70% of the trials. You are on block 8 of 10. <br>Good job! Take a break if you need to.</p><p>Press any key to continue the experiment.</p></div>","","","","","","","","","","","","",""
"3034.699999988079","arrowright","psychophysics","402","755371","0.0-3.0-0.196","","key","arrowright","16.666000000000142","720","410.5","197","8","1","20","35","25","35","true"
"null","null","psychophysics","403","756373","0.0-3.0-1.196","","key","null","16.665999999999904","720","410.5","","","","","","","",""
"745.3000000119209","arrowright","psychophysics","404","757123","0.0-3.0-0.197","","key","arrowright","16.666000000000086","720","410.5","198","8","1","30","35","25","35","true"
"null","null","psychophysics","405","758130","0.0-3.0-1.197","","key","null","16.665999999999904","720","410.5","","","","","","","",""
"6310.300000011921","arrowright","psychophysics","406","764444","0.0-3.0-0.198","","key","arrowright","16.666000000000057","720","410.5","199","8","1","24","15","25","35","true"
"null","null","psychophysics","407","765448","0.0-3.0-1.198","","key","null","16.665999999999904","720","410.5","","","","","","","",""
"653.3000000119209","arrowright","psychophysics","408","766108","0.0-3.0-0.199","","key","arrowright","16.665999999998185","720","410.5","200","8","1","23","35","25","35","true"
"null","null","psychophysics","409","767114","0.0-3.0-1.199","","key","null","16.66600000000188","720","410.5","","","","","","","",""
"823.5999999940395","arrowleft","psychophysics","410","767945","0.0-3.0-0.200","","key","arrowleft","16.665999999999222","720","410.5","201","8","-1","30","15","25","35","true"
"null","null","psychophysics","411","768949","0.0-3.0-1.200","","key","null","16.665999999999904","720","410.5","","","","","","","",""
"603.4000000059605","arrowleft","psychophysics","412","769559","0.0-3.0-0.201","","key","arrowleft","16.66599999999744","720","410.5","202","8","-1","30","15","25","35","true"
"null","null","psychophysics","413","770565","0.0-3.0-1.201","","key","null","16.665999999999904","720","410.5","","","","","","","",""
"1107.0999999940395","arrowright","psychophysics","414","771679","0.0-3.0-0.202","","key","arrowright","16.683439393938787","720","410.5","203","8","-1","24","35","25","35","false"
"null","null","psychophysics","415","772682","0.0-3.0-1.202","","key","null","16.665999999999904","720","410.5","","","","","","","",""
"501.2000000178814","arrowright","psychophysics","416","773190","0.0-3.0-0.203","","key","arrowright","16.66599999999938","720","410.5","204","8","1","25","35","25","35","true"
"null","null","psychophysics","417","774196","0.0-3.0-1.203","","key","null","16.665999999999904","720","410.5","","","","","","","",""
"737.9000000059605","arrowleft","psychophysics","418","774939","0.0-3.0-0.204","","key","arrowleft","16.666000000000086","720","410.5","205","8","-1","25","15","25","35","true"
"null","null","psychophysics","419","775943","0.0-3.0-1.204","","key","null","16.665999999999904","720","410.5","","","","","","","",""
"1090.4000000059605","arrowleft","psychophysics","420","777037","0.0-3.0-0.205","","key","arrowleft","16.666000000000572","720","410.5","206","8","-1","24","15","25","35","true"
"null","null","psychophysics","421","778040","0.0-3.0-1.205","","key","null","16.665999999999904","720","410.5","","","","","","","",""
"729.1000000238419","arrowright","psychophysics","422","778773","0.0-3.0-0.206","","key","arrowright","16.665999999998117","720","410.5","207","8","-1","23","35","25","35","false"
"null","null","psychophysics","423","779780","0.0-3.0-1.206","","key","null","16.665999999999904","720","410.5","","","","","","","",""
"1827.800000011921","arrowright","psychophysics","424","781612","0.0-3.0-0.207","","key","arrowright","16.666000000000377","720","410.5","208","8","-1","20","15","25","35","false"
"null","null","psychophysics","425","782615","0.0-3.0-1.207","","key","null","16.665999999999904","720","410.5","","","","","","","",""
"405.09999999403954","arrowright","psychophysics","426","783026","0.0-3.0-0.208","","key","arrowright","16.66600000000229","720","410.5","209","8","1","26","35","25","35","true"
"null","null","psychophysics","427","784032","0.0-3.0-1.208","","key","null","16.665999999999904","720","410.5","","","","","","","",""
"502","arrowright","psychophysics","428","784539","0.0-3.0-0.209","","key","arrowright","16.66599999999938","720","410.5","210","8","1","27","35","25","35","true"
"null","null","psychophysics","429","785546","0.0-3.0-1.209","","key","null","16.665999999999904","720","410.5","","","","","","","",""
"555.5","arrowright","psychophysics","430","786106","0.0-3.0-0.210","","key","arrowright","16.666000000000086","720","410.5","211","8","1","30","15","25","35","true"
"null","null","psychophysics","431","787110","0.0-3.0-1.210","","key","null","16.665999999999904","720","410.5","","","","","","","",""
"565.5999999940395","arrowright","psychophysics","432","787680","0.0-3.0-0.211","","key","arrowright","16.666000000000086","720","410.5","212","8","1","30","35","25","35","true"
"null","null","psychophysics","433","788682","0.0-3.0-1.211","","key","null","16.665999999999904","720","410.5","","","","","","","",""
"1067.199999988079","arrowleft","psychophysics","434","789756","0.0-3.0-0.212","","key","arrowleft","16.666000000001077","720","410.5","213","8","-1","26","35","25","35","true"
"null","null","psychophysics","435","790763","0.0-3.0-1.212","","key","null","16.665999999999904","720","410.5","","","","","","","",""
"440.30000001192093","arrowright","psychophysics","436","791208","0.0-3.0-0.213","","key","arrowright","16.665999999999677","720","410.5","214","8","-1","27","15","25","35","false"
"null","null","psychophysics","437","792214","0.0-3.0-1.213","","key","null","16.685508474577375","720","410.5","","","","","","","",""
"2803.7000000178814","arrowleft","psychophysics","438","795020","0.0-3.0-0.214","","key","arrowleft","16.66600000000021","720","410.5","215","8","-1","30","15","25","35","true"
"null","null","psychophysics","439","796023","0.0-3.0-1.214","","key","null","16.665999999999904","720","410.5","","","","","","","",""
"1124.5","arrowright","psychophysics","440","797151","0.0-3.0-0.215","","key","arrowright","16.666000000001347","720","410.5","216","8","-1","23","15","25","35","false"
"null","null","psychophysics","441","798157","0.0-3.0-1.215","","key","null","16.665999999999904","720","410.5","","","","","","","",""
"664.4000000059605","arrowright","psychophysics","442","798825","0.0-3.0-0.216","","key","arrowright","16.66600000000117","720","410.5","217","8","1","27","15","25","35","true"
"null","null","psychophysics","443","799832","0.0-3.0-1.216","","key","null","16.665999999999904","720","410.5","","","","","","","",""
"650.7999999821186","arrowleft","psychophysics","444","800490","0.0-3.0-0.217","","key","arrowleft","16.66600000000117","720","410.5","218","8","-1","30","15","25","35","true"
"null","null","psychophysics","445","801497","0.0-3.0-1.217","","key","null","16.665999999999904","720","410.5","","","","","","","",""
"427.80000001192093","arrowright","psychophysics","446","801928","0.0-3.0-0.218","","key","arrowright","16.665999999996274","720","410.5","219","8","1","30","35","25","35","true"
"null","null","psychophysics","447","802932","0.0-3.0-1.218","","key","null","16.665999999999904","720","410.5","","","","","","","",""
"2464.9000000059605","arrowright","psychophysics","448","805403","0.0-3.0-0.219","","key","arrowright","16.665999999999798","720","410.5","220","8","1","23","35","25","35","true"
"null","null","psychophysics","449","806407","0.0-3.0-1.219","","key","null","16.665999999999904","720","410.5","","","","","","","",""
"459.09999999403954","arrowright","psychophysics","450","806870","0.0-3.0-0.220","","key","arrowright","16.665999999998515","720","410.5","221","8","1","24","35","25","35","true"
"null","null","psychophysics","451","807874","0.0-3.0-1.220","","key","null","16.665999999999904","720","410.5","","","","","","","",""
"385.2999999821186","arrowright","psychophysics","452","808264","0.0-3.0-0.221","","key","arrowright","16.666000000000086","720","410.5","222","8","-1","30","35","25","35","false"
"null","null","psychophysics","453","809266","0.0-3.0-1.221","","key","null","16.665999999999904","720","410.5","","","","","","","",""
"368.2000000178814","arrowright","psychophysics","454","809640","0.0-3.0-0.222","","key","arrowright","16.666000000000086","720","410.5","223","8","-1","24","35","25","35","false"
"null","null","psychophysics","455","810645","0.0-3.0-1.222","","key","null","16.665999999999904","720","410.5","","","","","","","",""
"660.3999999761581","arrowleft","psychophysics","456","811307","0.0-3.0-0.223","","key","arrowleft","16.66600000000117","720","410.5","224","9","-1","24","15","25","35","true"
"null","null","psychophysics","457","812311","0.0-3.0-1.223","","key","null","16.687644067796548","720","410.5","","","","","","","",""
"1118.5"," ","html-keyboard-response","458","813432","0.0-3.0-2.223-0.223","<div style=""color: white; text-align: center; vertical-align: top; display: inline-block; width: 800px; margin: auto""><p>You have completed 80% of the trials. You are on block 9 of 10. <br>Good job! Take a break if you need to.</p><p>Press any key to continue the experiment.</p></div>","","","","","","","","","","","","",""
"510.69999998807907","arrowright","psychophysics","459","814955","0.0-3.0-0.224","","key","arrowright","16.665999999998377","720","410.5","225","9","1","27","35","25","35","true"
"null","null","psychophysics","460","815962","0.0-3.0-1.224","","key","null","16.66600000000188","720","410.5","","","","","","","",""
"260.7000000178814","arrowright","psychophysics","461","816227","0.0-3.0-0.225","","key","arrowright","16.66599999999938","720","410.5","226","9","1","27","15","25","35","true"
"null","null","psychophysics","462","817232","0.0-3.0-1.225","","key","null","16.665999999999904","720","410.5","","","","","","","",""
"459","arrowleft","psychophysics","463","817701","0.0-3.0-0.226","","key","arrowleft","16.666000000001596","720","410.5","227","9","-1","30","15","25","35","true"
"null","null","psychophysics","464","818703","0.0-3.0-1.226","","key","null","16.665999999999904","720","410.5","","","","","","","",""
"302.7000000178814","arrowright","psychophysics","465","819008","0.0-3.0-0.227","","key","arrowright","16.665999999995726","720","410.5","228","9","1","24","35","25","35","true"
"null","null","psychophysics","466","820015","0.0-3.0-1.227","","key","null","16.665999999999904","720","410.5","","","","","","","",""
"335.40000000596046","arrowright","psychophysics","467","820357","0.0-3.0-0.228","","key","arrowright","16.66599999999744","720","410.5","229","9","-1","25","15","25","35","false"
"null","null","psychophysics","468","821358","0.0-3.0-1.228","","key","null","16.665999999999904","720","410.5","","","","","","","",""
"769","arrowright","psychophysics","469","822130","0.0-3.0-0.229","","key","arrowright","16.66599999999938","720","410.5","230","9","-1","25","35","25","35","false"
"null","null","psychophysics","470","823132","0.0-3.0-1.229","","key","null","16.665999999999904","720","410.5","","","","","","","",""
"395.80000001192093","arrowright","psychophysics","471","823534","0.0-3.0-0.230","","key","arrowright","16.66599999999744","720","410.5","231","9","1","25","35","25","35","true"
"null","null","psychophysics","472","824536","0.0-3.0-1.230","","key","null","16.665999999999904","720","410.5","","","","","","","",""
"400.09999999403954","arrowright","psychophysics","473","824939","0.0-3.0-0.231","","key","arrowright","16.665999999998704","720","410.5","232","9","-1","20","35","25","35","false"
"null","null","psychophysics","474","825946","0.0-3.0-1.231","","key","null","16.665999999999904","720","410.5","","","","","","","",""
"1056.0999999940395","arrowright","psychophysics","475","827005","0.0-3.0-0.232","","key","arrowright","16.665999999999748","720","410.5","233","9","-1","24","35","25","35","false"
"null","null","psychophysics","476","828009","0.0-3.0-1.232","","key","null","16.665999999999904","720","410.5","","","","","","","",""
"3843.399999976158","arrowright","psychophysics","477","831855","0.0-3.0-0.233","","key","arrowright","16.67122173913066","720","410.5","234","9","1","23","15","25","35","true"
"null","null","psychophysics","478","832857","0.0-3.0-1.233","","key","null","16.665999999999904","720","410.5","","","","","","","",""
"614.1999999880791","arrowright","psychophysics","479","833475","0.0-3.0-0.234","","key","arrowright","16.66599999999744","720","410.5","235","9","1","27","35","25","35","true"
"null","null","psychophysics","480","834479","0.0-3.0-1.234","","key","null","16.665999999999904","720","410.5","","","","","","","",""
"2848.300000011921","arrowleft","psychophysics","481","837332","0.0-3.0-0.235","","key","arrowleft","16.665999999999837","720","410.5","236","9","1","23","15","25","35","false"
"null","null","psychophysics","482","838334","0.0-3.0-1.235","","key","null","16.66600000000132","720","410.5","","","","","","","",""
"425.19999998807907","arrowright","psychophysics","483","838763","0.0-3.0-0.236","","key","arrowright","16.66600000000229","720","410.5","237","9","1","23","35","25","35","true"
"null","null","psychophysics","484","839766","0.0-3.0-1.236","","key","null","16.665999999999904","720","410.5","","","","","","","",""
"295","arrowright","psychophysics","485","840067","0.0-3.0-0.237","","key","arrowright","16.666000000002576","720","410.5","238","9","1","24","35","25","35","true"
"null","null","psychophysics","486","841070","0.0-3.0-1.237","","key","null","16.66599999999938","720","410.5","","","","","","","",""
"299.40000000596046","arrowright","psychophysics","487","841372","0.0-3.0-0.238","","key","arrowright","16.665999999995726","720","410.5","239","9","-1","23","35","25","35","false"
"null","null","psychophysics","488","842379","0.0-3.0-1.238","","key","null","16.665999999999904","720","410.5","","","","","","","",""
"320.80000001192093","arrowright","psychophysics","489","842704","0.0-3.0-0.239","","key","arrowright","16.66599999999897","720","410.5","240","9","1","27","15","25","35","true"
"null","null","psychophysics","490","843707","0.0-3.0-1.239","","key","null","16.665999999999904","720","410.5","","","","","","","",""
"438.90000000596046","arrowright","psychophysics","491","844154","0.0-3.0-0.240","","key","arrowright","16.665999999999677","720","410.5","241","9","1","27","15","25","35","true"
"null","null","psychophysics","492","845157","0.0-3.0-1.240","","key","null","16.665999999999904","720","410.5","","","","","","","",""
"293.5","arrowright","psychophysics","493","845454","0.0-3.0-0.241","","key","arrowright","16.666000000002576","720","410.5","242","9","-1","20","15","25","35","false"
"null","null","psychophysics","494","846457","0.0-3.0-1.241","","key","null","16.665999999999904","720","410.5","","","","","","","",""
"727.8000000119209","arrowleft","psychophysics","495","847189","0.0-3.0-0.242","","key","arrowleft","16.665999999998117","720","410.5","243","9","-1","26","15","25","35","true"
"null","null","psychophysics","496","848190","0.0-3.0-1.242","","key","null","16.66600000000188","720","410.5","","","","","","","",""
"406.90000000596046","arrowright","psychophysics","497","848601","0.0-3.0-0.243","","key","arrowright","16.66599999999744","720","410.5","244","9","1","30","15","25","35","true"
"null","null","psychophysics","498","849602","0.0-3.0-1.243","","key","null","16.665999999999904","720","410.5","","","","","","","",""
"445.90000000596046","arrowright","psychophysics","499","850050","0.0-3.0-0.244","","key","arrowright","16.665999999999677","720","410.5","245","9","-1","30","15","25","35","false"
"null","null","psychophysics","500","851053","0.0-3.0-1.244","","key","null","16.665999999999904","720","410.5","","","","","","","",""
"567.3999999761581","arrowright","psychophysics","501","851623","0.0-3.0-0.245","","key","arrowright","16.69966666666424","720","410.5","246","9","1","30","15","25","35","true"
"null","null","psychophysics","502","852625","0.0-3.0-1.245","","key","null","16.665999999999904","720","410.5","","","","","","","",""
"601.7999999821186","arrowleft","psychophysics","503","853228","0.0-3.0-0.246","","key","arrowleft","16.66599999999827","720","410.5","247","9","1","20","35","25","35","false"
"null","null","psychophysics","504","854232","0.0-3.0-1.246","","key","null","16.665999999999904","720","410.5","","","","","","","",""
"467.09999999403954","arrowright","psychophysics","505","854709","0.0-3.0-0.247","","key","arrowright","16.666000000001596","720","410.5","248","9","-1","26","35","25","35","false"
"null","null","psychophysics","506","855715","0.0-3.0-1.247","","key","null","16.665999999999904","720","410.5","","","","","","","",""
"478.19999998807907","arrowright","psychophysics","507","856199","0.0-3.0-0.248","","key","arrowright","16.666000000001596","720","410.5","249","9","1","24","15","25","35","true"
"null","null","psychophysics","508","857201","0.0-3.0-1.248","","key","null","16.66599999999938","720","410.5","","","","","","","",""
"388.40000000596046","arrowright","psychophysics","509","857593","0.0-3.0-0.249","","key","arrowright","16.666000000000086","720","410.5","250","9","-1","27","35","25","35","false"
"null","null","psychophysics","510","858599","0.0-3.0-1.249","","key","null","16.665999999999904","720","410.5","","","","","","","",""
"401","arrowright","psychophysics","511","859005","0.0-3.0-0.250","","key","arrowright","16.66600000000229","720","410.5","251","9","-1","26","15","25","35","false"
"null","null","psychophysics","512","860012","0.0-3.0-1.250","","key","null","16.665999999999904","720","410.5","","","","","","","",""
"964.3000000119209","arrowleft","psychophysics","513","860980","0.0-3.0-0.251","","key","arrowleft","16.666000000001013","720","410.5","252","10","1","20","15","25","35","false"
"null","null","psychophysics","514","861982","0.0-3.0-1.251","","key","null","16.665999999999904","720","410.5","","","","","","","",""
"1006"," ","html-keyboard-response","515","862996","0.0-3.0-2.251-0.251","<div style=""color: white; text-align: center; vertical-align: top; display: inline-block; width: 800px; margin: auto""><p>You have completed 90% of the trials. You are on block 10 of 10. <br>Good job! Take a break if you need to.</p><p>Press any key to continue the experiment.</p></div>","","","","","","","","","","","","",""
"2030.0999999940395","arrowright","psychophysics","516","866039","0.0-3.0-0.252","","key","arrowright","16.66600000000078","720","410.5","253","10","-1","23","15","25","35","false"
"null","null","psychophysics","517","867045","0.0-3.0-1.252","","key","null","16.665999999999904","720","410.5","","","","","","","",""
"606.4000000059605","arrowleft","psychophysics","518","867655","0.0-3.0-0.253","","key","arrowleft","16.666000000000672","720","410.5","254","10","-1","30","35","25","35","true"
"null","null","psychophysics","519","868657","0.0-3.0-1.253","","key","null","16.665999999999904","720","410.5","","","","","","","",""
"371.19999998807907","arrowright","psychophysics","520","869030","0.0-3.0-0.254","","key","arrowright","16.665999999996053","720","410.5","255","10","-1","24","35","25","35","false"
"null","null","psychophysics","521","870033","0.0-3.0-1.254","","key","null","16.665999999999904","720","410.5","","","","","","","",""
"233.80000001192093","arrowright","psychophysics","522","870272","0.0-3.0-0.255","","key","arrowright","16.666000000001596","720","410.5","256","10","-1","24","15","25","35","false"
"null","null","psychophysics","523","871275","0.0-3.0-1.255","","key","null","16.665999999999904","720","410.5","","","","","","","",""
"642.4000000059605","arrowright","psychophysics","524","871920","0.0-3.0-0.256","","key","arrowright","16.696289473685045","720","410.5","257","10","1","26","15","25","35","true"
"null","null","psychophysics","525","872924","0.0-3.0-1.256","","key","null","16.665999999999904","720","410.5","","","","","","","",""
"593.2999999821186","arrowright","psychophysics","526","873521","0.0-3.0-0.257","","key","arrowright","16.66599999999827","720","410.5","258","10","1","27","15","25","35","true"
"null","null","psychophysics","527","874526","0.0-3.0-1.257","","key","null","16.665999999999904","720","410.5","","","","","","","",""
"399.59999999403954","arrowright","psychophysics","528","874930","0.0-3.0-0.258","","key","arrowright","16.665999999998704","720","410.5","259","10","1","20","15","25","35","true"
"null","null","psychophysics","529","875932","0.0-3.0-1.258","","key","null","16.665999999999904","720","410.5","","","","","","","",""
"385.40000000596046","arrowright","psychophysics","530","876327","0.0-3.0-0.259","","key","arrowright","16.665999999998704","720","410.5","260","10","-1","25","35","25","35","false"
"null","null","psychophysics","531","877333","0.0-3.0-1.259","","key","null","16.665999999999904","720","410.5","","","","","","","",""
"207.59999999403954","arrowright","psychophysics","532","877546","0.0-3.0-0.260","","key","arrowright","16.66600000000714","720","410.5","261","10","-1","25","15","25","35","false"
"null","null","psychophysics","533","878549","0.0-3.0-1.260","","key","null","16.665999999999904","720","410.5","","","","","","","",""
"549.0999999940395","arrowleft","psychophysics","534","879104","0.0-3.0-0.261","","key","arrowleft","16.666000000000086","720","410.5","262","10","-1","27","15","25","35","true"
"null","null","psychophysics","535","880107","0.0-3.0-1.261","","key","null","16.66600000000188","720","410.5","","","","","","","",""
"548.5","arrowright","psychophysics","536","880660","0.0-3.0-0.262","","key","arrowright","16.666000000001077","720","410.5","263","10","1","24","35","25","35","true"
"null","null","psychophysics","537","881663","0.0-3.0-1.262","","key","null","16.665999999999904","720","410.5","","","","","","","",""
"581.6000000238419","arrowright","psychophysics","538","882248","0.0-3.0-0.263","","key","arrowright","16.66599999999915","720","410.5","264","10","1","25","15","25","35","true"
"null","null","psychophysics","539","883251","0.0-3.0-1.263","","key","null","16.66599999999938","720","410.5","","","","","","","",""
"432","arrowright","psychophysics","540","883687","0.0-3.0-0.264","","key","arrowright","16.66600000000093","720","410.5","265","10","1","25","15","25","35","true"
"null","null","psychophysics","541","884690","0.0-3.0-1.264","","key","null","16.665999999999904","720","410.5","","","","","","","",""
"537.5","arrowleft","psychophysics","542","885232","0.0-3.0-0.265","","key","arrowleft","16.665999999998377","720","410.5","266","10","-1","27","15","25","35","true"
"null","null","psychophysics","543","886234","0.0-3.0-1.265","","key","null","16.66600000000132","720","410.5","","","","","","","",""
"400.30000001192093","arrowright","psychophysics","544","886638","0.0-3.0-0.266","","key","arrowright","16.665999999998704","720","410.5","267","10","-1","26","15","25","35","false"
"null","null","psychophysics","545","887640","0.0-3.0-1.266","","key","null","16.665999999999904","720","410.5","","","","","","","",""
"650","arrowright","psychophysics","546","888294","0.0-3.0-0.267","","key","arrowright","16.66599999999897","720","410.5","268","10","1","25","35","25","35","true"
"null","null","psychophysics","547","889299","0.0-3.0-1.267","","key","null","16.665999999999904","720","410.5","","","","","","","",""
"394.19999998807907","arrowright","psychophysics","548","889698","0.0-3.0-0.268","","key","arrowright","16.665999999998704","720","410.5","269","10","1","26","35","25","35","true"
"null","null","psychophysics","549","890700","0.0-3.0-1.268","","key","null","16.66600000000132","720","410.5","","","","","","","",""
"634.6999999880791","arrowleft","psychophysics","550","891339","0.0-3.0-0.269","","key","arrowleft","16.665999999999798","720","410.5","270","10","1","20","35","25","35","false"
"null","null","psychophysics","551","892345","0.0-3.0-1.269","","key","null","16.685508474577375","720","410.5","","","","","","","",""
"311.80000001192093","arrowright","psychophysics","552","892660","0.0-3.0-0.270","","key","arrowright","16.666000000000672","720","410.5","271","10","1","26","15","25","35","true"
"null","null","psychophysics","553","893671","0.0-3.0-1.270","","key","null","16.665999999999904","720","410.5","","","","","","","",""
"353.59999999403954","arrowright","psychophysics","554","894029","0.0-3.0-0.271","","key","arrowright","16.666000000001596","720","410.5","272","10","-1","20","15","25","35","false"
"null","null","psychophysics","555","895033","0.0-3.0-1.271","","key","null","16.665999999999904","720","410.5","","","","","","","",""
"343.5","arrowright","psychophysics","556","895382","0.0-3.0-0.272","","key","arrowright","16.66599999999744","720","410.5","273","10","-1","27","35","25","35","false"
"null","null","psychophysics","557","896384","0.0-3.0-1.272","","key","null","16.66600000000132","720","410.5","","","","","","","",""
"467.80000001192093","arrowleft","psychophysics","558","896855","0.0-3.0-0.273","","key","arrowleft","16.665999999998515","720","410.5","274","10","1","20","15","25","35","false"
"null","null","psychophysics","559","897857","0.0-3.0-1.273","","key","null","16.665999999999904","720","410.5","","","","","","","",""
"503.40000000596046","arrowright","psychophysics","560","898364","0.0-3.0-0.274","","key","arrowright","16.666000000000448","720","410.5","275","10","-1","24","15","25","35","false"
"null","null","psychophysics","561","899366","0.0-3.0-1.274","","key","null","16.66599999999938","720","410.5","","","","","","","",""
"1166.0999999940395","arrowright","psychophysics","562","900533","0.0-3.0-0.275","","key","arrowright","16.665999999998704","720","410.5","276","10","-1","24","35","25","35","false"
"null","null","psychophysics","563","901535","0.0-3.0-1.275","","key","null","16.665999999999904","720","410.5","","","","","","","",""
"567.5","arrowleft","psychophysics","564","902105","0.0-3.0-0.276","","key","arrowleft","16.666000000000086","720","410.5","277","10","1","20","35","25","35","false"
"null","null","psychophysics","565","903107","0.0-3.0-1.276","","key","null","16.665999999999904","720","410.5","","","","","","","",""
"399.2000000178814","arrowright","psychophysics","566","903510","0.0-3.0-0.277","","key","arrowright","16.665999999998704","720","410.5","278","10","-1","20","15","25","35","false"
"null","null","psychophysics","567","904516","0.0-3.0-1.277","","key","null","16.665999999999904","720","410.5","","","","","","","",""
"667.5","arrowright","psychophysics","568","905189","0.0-3.0-0.278","","key","arrowright","16.66600000000035","720","410.5","279","10","1","26","35","25","35","true"
"null","null","psychophysics","569","906195","0.0-3.0-1.278","","key","null","16.665999999999904","720","410.5","","","","","","","",""
"636","arrowleft","psychophysics","570","906835","0.0-3.0-0.279","","key","arrowleft","16.66599999999897","720","410.5","280","11","-1","25","35","25","35","true"
"null","null","psychophysics","571","907840","0.0-3.0-1.279","","key","null","16.66600000000188","720","410.5","","","","","","","",""
