"rt","response","trial_type","trial_index","time_elapsed","internal_node_id","stimulus","response_type","key_press","avg_frame_time","center_x","center_y","trial","block","test_pos","test_inner_radius","test_outer_radius","ref_inner_radius","ref_outer_radius","test_bigger"
"171665.79999999702","{""p_id"":""8143"",""age"":""19"",""handedness"":""right"",""sex"":""female"",""other_sex"":""""}","survey-html-form","0","171666","0.0-0.0","","","","","","","","","","","","","",""
"320349.90000000596"," ","html-keyboard-response","1","492021","0.0-1.0","<p style=""color: white"">Welcome to the Size Judgment Experiment. <br>There will be 10 blocks in this experiment. <br>There will be 28 trials in each block. <br>You will be given a chance to take a break between blocks. <br>Press any key to start the experiment.</p>","","","","","","","","","","","","",""
"2036253.700000003","arrowright","psychophysics","2","2528341","0.0-2.0","","key","arrowright","39.17192430363188","683","312.5","","","","","","","",""
"17276.20000000298","arrowleft","psychophysics","3","2545641","0.0-3.0-0.0","","key","arrowleft","16.666811957569628","683","312.5","1","1","1","24","15","25","35","false"
"null","null","psychophysics","4","2546652","0.0-3.0-1.0","","key","null","16.666881355930563","683","312.5","","","","","","","",""
"3072.39999999851","arrowleft","psychophysics","5","2549740","0.0-3.0-0.1","","key","arrowleft","16.666583783783622","683","312.5","2","1","-1","30","35","25","35","true"
"null","null","psychophysics","6","2550753","0.0-3.0-1.1","","key","null","16.667166666663253","683","312.5","","","","","","","",""
"2349.6999999955297","arrowright","psychophysics","7","2553109","0.0-3.0-0.2","","key","arrowright","16.66774285714408","683","312.5","3","1","-1","27","15","25","35","false"
"null","null","psychophysics","8","2554118","0.0-3.0-1.2","","key","null","16.667627118638386","683","312.5","","","","","","","",""
"825","arrowright","psychophysics","9","2554980","0.0-3.0-0.3","","key","arrowright","16.665901960777667","683","312.5","4","1","-1","20","15","25","35","false"
"null","null","psychophysics","10","2555985","0.0-3.0-1.3","","key","null","16.6656333333347","683","312.5","","","","","","","",""
"2792.0999999940395","arrowleft","psychophysics","11","2558779","0.0-3.0-0.4","","key","arrowleft","16.66738554217056","683","312.5","5","1","-1","24","15","25","35","true"
"null","null","psychophysics","12","2559783","0.0-3.0-1.4","","key","null","16.667677966096456","683","312.5","","","","","","","",""
"1611.1000000014901","arrowleft","psychophysics","13","2561416","0.0-3.0-0.5","","key","arrowleft","16.66691752577431","683","312.5","6","1","1","20","15","25","35","false"
"null","null","psychophysics","14","2562433","0.0-3.0-1.5","","key","null","16.669066666664246","683","312.5","","","","","","","",""
"4165.30000000447","arrowright","psychophysics","15","2566637","0.0-3.0-0.6","","key","arrowright","16.666547619046586","683","312.5","7","1","-1","24","35","25","35","false"
"null","null","psychophysics","16","2567650","0.0-3.0-1.6","","key","null","16.667186440678975","683","312.5","","","","","","","",""
"4160.29999999702","arrowleft","psychophysics","17","2571821","0.0-3.0-0.7","","key","arrowleft","16.666708000000565","683","312.5","8","1","-1","26","15","25","35","true"
"null","null","psychophysics","18","2572833","0.0-3.0-1.7","","key","null","16.666593220337468","683","312.5","","","","","","","",""
"1444.2000000029802","arrowright","psychophysics","19","2574287","0.0-3.0-0.8","","key","arrowright","16.66648275862266","683","312.5","9","1","1","26","35","25","35","true"
"null","null","psychophysics","20","2575299","0.0-3.0-1.8","","key","null","16.665762711860935","683","312.5","","","","","","","",""
"3876.60000000149","arrowleft","psychophysics","21","2579188","0.0-3.0-0.9","","key","arrowleft","16.66695708154537","683","312.5","10","1","-1","26","35","25","35","true"
"null","null","psychophysics","22","2580199","0.0-3.0-1.9","","key","null","16.664694915257268","683","312.5","","","","","","","",""
"1296.5","arrowleft","psychophysics","23","2581509","0.0-3.0-0.10","","key","arrowleft","16.66814102564389","683","312.5","11","1","-1","27","15","25","35","true"
"null","null","psychophysics","24","2582516","0.0-3.0-1.10","","key","null","16.666237288130983","683","312.5","","","","","","","",""
"1214.1000000014901","arrowright","psychophysics","25","2583748","0.0-3.0-0.11","","key","arrowright","16.666780821915257","683","312.5","12","1","1","27","15","25","35","true"
"null","null","psychophysics","26","2584766","0.0-3.0-1.11","","key","null","16.668449999997392","683","312.5","","","","","","","",""
"941.2999999970198","arrowright","psychophysics","27","2585731","0.0-3.0-0.12","","key","arrowright","16.666228070177073","683","312.5","13","1","-1","20","15","25","35","false"
"null","null","psychophysics","28","2586736","0.0-3.0-1.12","","key","null","16.66948333332936","683","312.5","","","","","","","",""
"737.3999999985099","arrowright","psychophysics","29","2587485","0.0-3.0-0.13","","key","arrowright","16.66897674418206","683","312.5","14","1","-1","23","35","25","35","false"
"null","null","psychophysics","30","2588500","0.0-3.0-1.13","","key","null","16.66664999999727","683","312.5","","","","","","","",""
"2855.6999999955297","arrowright","psychophysics","31","2591368","0.0-3.0-0.14","","key","arrowright","16.66580813953404","683","312.5","15","1","-1","23","35","25","35","false"
"null","null","psychophysics","32","2592372","0.0-3.0-1.14","","key","null","16.66757627118821","683","312.5","","","","","","","",""
"1320.2000000029802","arrowleft","psychophysics","33","2593704","0.0-3.0-0.15","","key","arrowleft","16.66712658228117","683","312.5","16","1","-1","30","15","25","35","true"
"null","null","psychophysics","34","2594716","0.0-3.0-1.15","","key","null","16.66693220338863","683","312.5","","","","","","","",""
"4495.79999999702","arrowleft","psychophysics","35","2599247","0.0-3.0-0.16","","key","arrowleft","16.666745387454178","683","312.5","17","1","1","23","15","25","35","false"
"null","null","psychophysics","36","2600253","0.0-3.0-1.16","","key","null","16.666616666666233","683","312.5","","","","","","","",""
"1194.2999999970198","arrowright","psychophysics","37","2601454","0.0-3.0-0.17","","key","arrowright","16.666492957746428","683","312.5","18","1","1","30","15","25","35","true"
"null","null","psychophysics","38","2602466","0.0-3.0-1.17","","key","null","16.667661016949026","683","312.5","","","","","","","",""
"787.1000000014901","arrowright","psychophysics","39","2603287","0.0-3.0-0.18","","key","arrowright","16.66624489796291","683","312.5","19","1","-1","23","15","25","35","false"
"null","null","psychophysics","40","2604300","0.0-3.0-1.18","","key","null","16.66655932203472","683","312.5","","","","","","","",""
"919.9000000059605","arrowleft","psychophysics","41","2605241","0.0-3.0-0.19","","key","arrowleft","16.666321428567503","683","312.5","20","1","-1","27","35","25","35","true"
"null","null","psychophysics","42","2606249","0.0-3.0-1.19","","key","null","16.663915254238802","683","312.5","","","","","","","",""
"702.7000000029802","arrowright","psychophysics","43","2606961","0.0-3.0-0.20","","key","arrowright","16.67040476190769","683","312.5","21","1","1","25","15","25","35","true"
"null","null","psychophysics","44","2607966","0.0-3.0-1.20","","key","null","16.668203389832467","683","312.5","","","","","","","",""
"618.8999999985099","arrowleft","psychophysics","45","2608609","0.0-3.0-0.21","","key","arrowleft","16.66536842105224","683","312.5","22","1","-1","30","15","25","35","true"
"null","null","psychophysics","46","2609617","0.0-3.0-1.21","","key","null","16.666745762711674","683","312.5","","","","","","","",""
"946.8999999985099","arrowleft","psychophysics","47","2610587","0.0-3.0-0.22","","key","arrowleft","16.666017241382587","683","312.5","23","1","1","20","15","25","35","false"
"null","null","psychophysics","48","2611599","0.0-3.0-1.22","","key","null","16.666898305085883","683","312.5","","","","","","","",""
"860.6000000014901","arrowright","psychophysics","49","2612471","0.0-3.0-0.23","","key","arrowright","16.665346153850596","683","312.5","24","1","-1","25","15","25","35","false"
"null","null","psychophysics","50","2613478","0.0-3.0-1.23","","key","null","16.66854237288363","683","312.5","","","","","","","",""
"1123.9000000059605","arrowright","psychophysics","51","2614636","0.0-3.0-0.24","","key","arrowright","16.66643478261118","683","312.5","25","1","-1","24","15","25","35","false"
"null","null","psychophysics","52","2615647","0.0-3.0-1.24","","key","null","16.669728813558752","683","312.5","","","","","","","",""
"973.5","arrowright","psychophysics","53","2616660","0.0-3.0-0.25","","key","arrowright","16.95022033898444","683","312.5","26","1","-1","20","35","25","35","false"
"null","null","psychophysics","54","2617666","0.0-3.0-1.25","","key","null","16.66752542373014","683","312.5","","","","","","","",""
"1350.7000000029802","arrowright","psychophysics","55","2619030","0.0-3.0-0.26","","key","arrowright","16.66634567901147","683","312.5","27","1","1","27","15","25","35","true"
"null","null","psychophysics","56","2620034","0.0-3.0-1.26","","key","null","16.66645000000329","683","312.5","","","","","","","",""
"1588","arrowleft","psychophysics","57","2621626","0.0-3.0-0.27","","key","arrowleft","16.668627659577204","683","312.5","28","2","1","25","15","25","35","false"
"null","null","psychophysics","58","2622629","0.0-3.0-1.27","","key","null","16.66544067796509","683","312.5","","","","","","","",""
"5800.60000000149","arrowleft","html-keyboard-response","59","2628431","0.0-3.0-2.27-0.27","<div style=""color: white; text-align: center; vertical-align: top; display: inline-block; width: 800px; margin: auto""><p>You have completed 10% of the trials. You are on block 2 of 10. <br>Good job! Take a break if you need to.</p><p>Press any key to continue the experiment.</p></div>","","","","","","","","","","","","",""
"4750.89999999851","arrowright","psychophysics","60","2634205","0.0-3.0-0.28","","key","arrowright","16.66663636363574","683","312.5","29","2","1","26","15","25","35","true"
"null","null","psychophysics","61","2635216","0.0-3.0-1.28","","key","null","16.664457627122243","683","312.5","","","","","","","",""
"715.8999999985099","arrowleft","psychophysics","62","2635940","0.0-3.0-0.29","","key","arrowleft","16.667255813959812","683","312.5","30","2","-1","27","15","25","35","true"
"null","null","psychophysics","63","2636949","0.0-3.0-1.29","","key","null","16.66596610169321","683","312.5","","","","","","","",""
"1621.8999999985099","arrowleft","psychophysics","64","2638586","0.0-3.0-0.30","","key","arrowleft","16.66640816326728","683","312.5","31","2","1","20","15","25","35","false"
"null","null","psychophysics","65","2639599","0.0-3.0-1.30","","key","null","16.670084745765237","683","312.5","","","","","","","",""
"1682.1999999955297","arrowright","psychophysics","66","2641304","0.0-3.0-0.31","","key","arrowright","16.666872549016833","683","312.5","32","2","1","27","15","25","35","true"
"null","null","psychophysics","67","2642316","0.0-3.0-1.31","","key","null","16.666338983055013","683","312.5","","","","","","","",""
"650.6999999955297","arrowleft","psychophysics","68","2642988","0.0-3.0-0.32","","key","arrowleft","16.666399999998976","683","312.5","33","2","-1","30","15","25","35","true"
"null","null","psychophysics","69","2643999","0.0-3.0-1.32","","key","null","16.66316949152309","683","312.5","","","","","","","",""
"1306.7999999970198","arrowleft","psychophysics","70","2645313","0.0-3.0-0.33","","key","arrowleft","16.666769230768132","683","312.5","34","2","-1","26","15","25","35","true"
"null","null","psychophysics","71","2646316","0.0-3.0-1.33","","key","null","16.670186440681377","683","312.5","","","","","","","",""
"700.1000000014901","arrowright","psychophysics","72","2647037","0.0-3.0-0.34","","key","arrowright","16.670279069771166","683","312.5","35","2","1","30","35","25","35","true"
"null","null","psychophysics","73","2648049","0.0-3.0-1.34","","key","null","16.666881355930563","683","312.5","","","","","","","",""
"1484.2000000029802","arrowright","psychophysics","74","2649564","0.0-3.0-0.35","","key","arrowright","16.665555555559695","683","312.5","36","2","1","27","35","25","35","true"
"null","null","psychophysics","75","2650569","0.0-3.0-1.35","","key","null","16.669900000002237","683","312.5","","","","","","","",""
"3280.3000000044703","arrowleft","psychophysics","76","2653858","0.0-3.0-0.36","","key","arrowleft","16.666489795917094","683","312.5","37","2","1","24","15","25","35","false"
"null","null","psychophysics","77","2654869","0.0-3.0-1.36","","key","null","16.667883333338736","683","312.5","","","","","","","",""
"1443.8000000044703","arrowleft","psychophysics","78","2656329","0.0-3.0-0.37","","key","arrowleft","16.66852325581144","683","312.5","38","2","1","23","35","25","35","false"
"null","null","psychophysics","79","2657333","0.0-3.0-1.37","","key","null","16.669135593217245","683","312.5","","","","","","","",""
"8223.89999999851","arrowright","psychophysics","80","2665568","0.0-3.0-0.38","","key","arrowright","16.66643319838126","683","312.5","39","2","1","26","35","25","35","true"
"null","null","psychophysics","81","2666585","0.0-3.0-1.38","","key","null","16.66664999999727","683","312.5","","","","","","","",""
"730.7999999970198","arrowleft","psychophysics","82","2667321","0.0-3.0-0.39","","key","arrowleft","16.675558139537568","683","312.5","40","2","1","23","35","25","35","false"
"null","null","psychophysics","83","2668332","0.0-3.0-1.39","","key","null","16.66605084746192","683","312.5","","","","","","","",""
"1385.3999999985099","arrowleft","psychophysics","84","2669737","0.0-3.0-0.40","","key","arrowleft","16.665214285714598","683","312.5","41","2","-1","26","15","25","35","true"
"null","null","psychophysics","85","2670750","0.0-3.0-1.40","","key","null","16.66989830508828","683","312.5","","","","","","","",""
"2364.2999999970198","arrowleft","psychophysics","86","2673126","0.0-3.0-0.41","","key","arrowleft","16.666394366197366","683","312.5","42","2","-1","23","35","25","35","true"
"null","null","psychophysics","87","2674132","0.0-3.0-1.41","","key","null","16.66494915253972","683","312.5","","","","","","","",""
"652","arrowright","psychophysics","88","2674795","0.0-3.0-0.42","","key","arrowright","16.668948717952635","683","312.5","43","2","1","30","35","25","35","true"
"null","null","psychophysics","89","2675802","0.0-3.0-1.42","","key","null","16.66846666666679","683","312.5","","","","","","","",""
"563","arrowleft","psychophysics","90","2676372","0.0-3.0-0.43","","key","arrowleft","16.665969696968343","683","312.5","44","2","-1","25","15","25","35","true"
"null","null","psychophysics","91","2677383","0.0-3.0-1.43","","key","null","16.666457627118582","683","312.5","","","","","","","",""
"2900.7000000029802","arrowleft","psychophysics","92","2680320","0.0-3.0-0.44","","key","arrowleft","16.666517045454714","683","312.5","45","2","-1","24","15","25","35","true"
"null","null","psychophysics","93","2681333","0.0-3.0-1.44","","key","null","16.667237288129154","683","312.5","","","","","","","",""
"908.8000000044703","arrowright","psychophysics","94","2682254","0.0-3.0-0.45","","key","arrowright","16.666218181818046","683","312.5","46","2","1","27","15","25","35","true"
"null","null","psychophysics","95","2683266","0.0-3.0-1.45","","key","null","16.66896610169561","683","312.5","","","","","","","",""
"1507.9000000059605","arrowright","psychophysics","96","2684787","0.0-3.0-0.46","","key","arrowright","16.666241758242045","683","312.5","47","2","-1","23","15","25","35","false"
"null","null","psychophysics","97","2685799","0.0-3.0-1.46","","key","null","16.66459322034113","683","312.5","","","","","","","",""
"1086.5","arrowleft","psychophysics","98","2686890","0.0-3.0-0.47","","key","arrowleft","16.666784615384845","683","312.5","48","2","-1","27","35","25","35","true"
"null","null","psychophysics","99","2687899","0.0-3.0-1.47","","key","null","16.664915254236973","683","312.5","","","","","","","",""
"2287.6999999955297","arrowleft","psychophysics","100","2690196","0.0-3.0-0.48","","key","arrowleft","16.66760583941478","683","312.5","49","2","1","25","35","25","35","false"
"null","null","psychophysics","101","2691199","0.0-3.0-1.48","","key","null","16.66749152542739","683","312.5","","","","","","","",""
"611.5","arrowright","psychophysics","102","2691822","0.0-3.0-0.49","","key","arrowright","16.665027027030952","683","312.5","50","2","-1","25","15","25","35","false"
"null","null","psychophysics","103","2692833","0.0-3.0-1.49","","key","null","16.66788135592873","683","312.5","","","","","","","",""
"851.8999999985099","arrowright","psychophysics","104","2693694","0.0-3.0-0.50","","key","arrowright","16.666862745093656","683","312.5","51","2","-1","24","15","25","35","false"
"null","null","psychophysics","105","2694699","0.0-3.0-1.50","","key","null","16.66750847457482","683","312.5","","","","","","","",""
"767.5","arrowright","psychophysics","106","2695496","0.0-3.0-0.51","","key","arrowright","16.66597872340378","683","312.5","52","2","1","30","35","25","35","true"
"null","null","psychophysics","107","2696499","0.0-3.0-1.51","","key","null","16.668830508476724","683","312.5","","","","","","","",""
"7688","arrowleft","psychophysics","108","2704197","0.0-3.0-0.52","","key","arrowleft","16.666707158352324","683","312.5","53","2","1","24","35","25","35","false"
"null","null","psychophysics","109","2705202","0.0-3.0-1.52","","key","null","16.665683333327372","683","312.5","","","","","","","",""
"1898.5","arrowleft","psychophysics","110","2707106","0.0-3.0-0.53","","key","arrowleft","16.667088495571562","683","312.5","54","2","-1","27","35","25","35","true"
"null","null","psychophysics","111","2708116","0.0-3.0-1.53","","key","null","16.666186440680807","683","312.5","","","","","","","",""
"895.7000000029802","arrowleft","psychophysics","112","2709036","0.0-3.0-0.54","","key","arrowleft","16.66327272727239","683","312.5","55","2","-1","27","15","25","35","true"
"null","null","psychophysics","113","2710054","0.0-3.0-1.54","","key","null","16.667916666669772","683","312.5","","","","","","","",""
"715.3999999985099","arrowleft","psychophysics","114","2710803","0.0-3.0-0.55","","key","arrowleft","16.668909090909768","683","312.5","56","3","-1","23","15","25","35","true"
"null","null","psychophysics","115","2711816","0.0-3.0-1.55","","key","null","16.66715254237623","683","312.5","","","","","","","",""
"1437867.5","control","html-keyboard-response","116","4149691","0.0-3.0-2.55-0.55","<div style=""color: white; text-align: center; vertical-align: top; display: inline-block; width: 800px; margin: auto""><p>You have completed 20% of the trials. You are on block 3 of 10. <br>Good job! Take a break if you need to.</p><p>Press any key to continue the experiment.</p></div>","","","","","","","","","","","","",""
"2155.1999999955297","arrowleft","psychophysics","117","4152887","0.0-3.0-0.56","","key","arrowleft","16.667276923075462","683","312.5","57","3","-1","26","35","25","35","true"
"null","null","psychophysics","118","4153893","0.0-3.0-1.56","","key","null","16.668000000001243","683","312.5","","","","","","","",""
"851.7999999970198","arrowleft","psychophysics","119","4154752","0.0-3.0-0.57","","key","arrowleft","16.66666000000201","683","312.5","58","3","1","20","35","25","35","false"
"null","null","psychophysics","120","4155757","0.0-3.0-1.57","","key","null","16.668491525417668","683","312.5","","","","","","","",""
"589.1000000014901","arrowright","psychophysics","121","4156360","0.0-3.0-0.58","","key","arrowright","16.664472222224706","683","312.5","59","3","1","26","35","25","35","true"
"null","null","psychophysics","122","4157370","0.0-3.0-1.58","","key","null","16.66744067796932","683","312.5","","","","","","","",""
"908.1000000014901","arrowleft","psychophysics","123","4158285","0.0-3.0-0.59","","key","arrowleft","16.66824074074005","683","312.5","60","3","1","23","35","25","35","false"
"null","null","psychophysics","124","4159290","0.0-3.0-1.59","","key","null","16.66855932203895","683","312.5","","","","","","","",""
"1300.2000000029802","arrowleft","psychophysics","125","4160612","0.0-3.0-0.60","","key","arrowleft","16.66841772152111","683","312.5","61","3","1","24","35","25","35","false"
"null","null","psychophysics","126","4161624","0.0-3.0-1.60","","key","null","16.667271186447685","683","312.5","","","","","","","",""
"579.7000000029802","arrowright","psychophysics","127","4162216","0.0-3.0-0.61","","key","arrowright","16.666114285708005","683","312.5","62","3","-1","20","35","25","35","false"
"null","null","psychophysics","128","4163224","0.0-3.0-1.61","","key","null","16.66710169491816","683","312.5","","","","","","","",""
"561","arrowleft","psychophysics","129","4163815","0.0-3.0-0.62","","key","arrowleft","16.666000000001596","683","312.5","63","3","-1","26","35","25","35","true"
"null","null","psychophysics","130","4164824","0.0-3.0-1.62","","key","null","16.666440677963262","683","312.5","","","","","","","",""
"634.2999999970198","arrowleft","psychophysics","131","4165478","0.0-3.0-0.63","","key","arrowleft","16.666794871803948","683","312.5","64","3","-1","27","35","25","35","true"
"null","null","psychophysics","132","4166491","0.0-3.0-1.63","","key","null","16.665898305087712","683","312.5","","","","","","","",""
"521.5","arrowleft","psychophysics","133","4167022","0.0-3.0-0.64","","key","arrowleft","16.66438709678609","683","312.5","65","3","1","20","35","25","35","false"
"null","null","psychophysics","134","4168026","0.0-3.0-1.64","","key","null","16.66801666666288","683","312.5","","","","","","","",""
"793.7999999970198","arrowleft","psychophysics","135","4168826","0.0-3.0-0.65","","key","arrowleft","16.668500000003565","683","312.5","66","3","-1","26","35","25","35","true"
"null","null","psychophysics","136","4169840","0.0-3.0-1.65","","key","null","16.668699999999564","683","312.5","","","","","","","",""
"567.7000000029802","arrowright","psychophysics","137","4170422","0.0-3.0-0.66","","key","arrowright","16.66367647058659","683","312.5","67","3","-1","20","35","25","35","false"
"null","null","psychophysics","138","4171435","0.0-3.0-1.66","","key","null","16.668249999995655","683","312.5","","","","","","","",""
"471.1000000014901","arrowleft","psychophysics","139","4171919","0.0-3.0-0.67","","key","arrowleft","16.67196428571229","683","312.5","68","3","1","24","35","25","35","false"
"null","null","psychophysics","140","4172924","0.0-3.0-1.67","","key","null","16.668033898302937","683","312.5","","","","","","","",""
"541.1000000014901","arrowleft","psychophysics","141","4173478","0.0-3.0-0.68","","key","arrowleft","16.66506060606546","683","312.5","69","3","-1","30","35","25","35","true"
"null","null","psychophysics","142","4174490","0.0-3.0-1.68","","key","null","16.666728813564248","683","312.5","","","","","","","",""
"568.7000000029802","arrowleft","psychophysics","143","4175087","0.0-3.0-0.69","","key","arrowleft","16.66771428571748","683","312.5","70","3","-1","25","35","25","35","true"
"null","null","psychophysics","144","4176090","0.0-3.0-1.69","","key","null","16.668593220333804","683","312.5","","","","","","","",""
"560.8999999985099","arrowright","psychophysics","145","4176665","0.0-3.0-0.70","","key","arrowright","16.66614705881597","683","312.5","71","3","-1","23","15","25","35","false"
"null","null","psychophysics","146","4177673","0.0-3.0-1.70","","key","null","16.6653728813517","683","312.5","","","","","","","",""
"655.9000000059605","arrowleft","psychophysics","147","4178334","0.0-3.0-0.71","","key","arrowleft","16.670717948725304","683","312.5","72","3","1","26","35","25","35","false"
"null","null","psychophysics","148","4179340","0.0-3.0-1.71","","key","null","16.663542372877","683","312.5","","","","","","","",""
"820","arrowleft","psychophysics","149","4180167","0.0-3.0-0.72","","key","arrowleft","16.6682040816344","683","312.5","73","3","-1","30","35","25","35","true"
"null","null","psychophysics","150","4181174","0.0-3.0-1.72","","key","null","16.66737288135593","683","312.5","","","","","","","",""
"1652.7999999970198","arrowleft","psychophysics","151","4182866","0.0-3.0-0.73","","key","arrowleft","16.833990000002085","683","312.5","74","3","-1","30","35","25","35","true"
"null","null","psychophysics","152","4183873","0.0-3.0-1.73","","key","null","16.66700000000202","683","312.5","","","","","","","",""
"571.7000000029802","arrowright","psychophysics","153","4184483","0.0-3.0-0.74","","key","arrowright","16.66622222222698","683","312.5","75","3","-1","26","35","25","35","false"
"null","null","psychophysics","154","4185491","0.0-3.0-1.74","","key","null","16.66701694915734","683","312.5","","","","","","","",""
"474.69999999552965","arrowleft","psychophysics","155","4185991","0.0-3.0-0.75","","key","arrowleft","16.66565517241392","683","312.5","76","3","1","30","15","25","35","false"
"null","null","psychophysics","156","4187001","0.0-3.0-1.75","","key","null","16.663949999997083","683","312.5","","","","","","","",""
"651.5","arrowright","psychophysics","157","4187669","0.0-3.0-0.76","","key","arrowright","17.10700000000284","683","312.5","77","3","-1","25","35","25","35","false"
"null","null","psychophysics","158","4188673","0.0-3.0-1.76","","key","null","16.668220338979893","683","312.5","","","","","","","",""
"543.8999999985099","arrowleft","psychophysics","159","4189249","0.0-3.0-0.77","","key","arrowleft","16.66605882353478","683","312.5","78","3","-1","26","15","25","35","true"
"null","null","psychophysics","160","4190257","0.0-3.0-1.77","","key","null","16.66737288135593","683","312.5","","","","","","","",""
"740.8999999985099","arrowright","psychophysics","161","4191021","0.0-3.0-0.78","","key","arrowright","16.666533333332175","683","312.5","79","3","1","26","15","25","35","true"
"null","null","psychophysics","162","4192024","0.0-3.0-1.78","","key","null","16.66789830508405","683","312.5","","","","","","","",""
"875","arrowright","psychophysics","163","4192915","0.0-3.0-0.79","","key","arrowright","16.667566037736833","683","312.5","80","3","1","30","35","25","35","true"
"null","null","psychophysics","164","4193920","0.0-3.0-1.79","","key","null","16.666389830505192","683","312.5","","","","","","","",""
"1954.9000000059605","arrowright","psychophysics","165","4195898","0.0-3.0-0.80","","key","arrowright","16.66705084746009","683","312.5","81","3","-1","20","15","25","35","false"
"null","null","psychophysics","166","4196907","0.0-3.0-1.80","","key","null","16.665966101701102","683","312.5","","","","","","","",""
"831","arrowleft","psychophysics","167","4197743","0.0-3.0-0.81","","key","arrowleft","16.666280000004917","683","312.5","82","3","-1","26","15","25","35","true"
"null","null","psychophysics","168","4198754","0.0-3.0-1.81","","key","null","16.668254237290537","683","312.5","","","","","","","",""
"759.7999999970198","arrowright","psychophysics","169","4199528","0.0-3.0-0.82","","key","arrowright","16.672065217392113","683","312.5","83","3","-1","20","15","25","35","false"
"null","null","psychophysics","170","4200540","0.0-3.0-1.82","","key","null","16.668694915249944","683","312.5","","","","","","","",""
"813.7000000029802","arrowright","psychophysics","171","4201366","0.0-3.0-0.83","","key","arrowright","16.666122448991757","683","312.5","84","4","1","30","15","25","35","true"
"null","null","psychophysics","172","4202374","0.0-3.0-1.83","","key","null","16.666745762703783","683","312.5","","","","","","","",""
"1089074.799999997"," ","html-keyboard-response","173","5291452","0.0-3.0-2.83-0.83","<div style=""color: white; text-align: center; vertical-align: top; display: inline-block; width: 800px; margin: auto""><p>You have completed 30% of the trials. You are on block 4 of 10. <br>Good job! Take a break if you need to.</p><p>Press any key to continue the experiment.</p></div>","","","","","","","","","","","","",""
"2262.5","arrowright","psychophysics","174","5294766","0.0-3.0-0.84","","key","arrowright","17.036859259257714","683","312.5","85","4","1","26","15","25","35","true"
"null","null","psychophysics","175","5295778","0.0-3.0-1.84","","key","null","16.95320689655712","683","312.5","","","","","","","",""
"3885.39999999851","arrowright","psychophysics","176","5299675","0.0-3.0-0.85","","key","arrowright","16.66593562231635","683","312.5","86","4","-1","24","35","25","35","false"
"null","null","psychophysics","177","5300693","0.0-3.0-1.85","","key","null","16.667033333331347","683","312.5","","","","","","","",""
"1573.2999999970198","arrowleft","psychophysics","178","5302272","0.0-3.0-0.86","","key","arrowleft","16.66752127660042","683","312.5","87","4","-1","24","35","25","35","true"
"null","null","psychophysics","179","5303280","0.0-3.0-1.86","","key","null","16.666900000007203","683","312.5","","","","","","","",""
"782.1000000014901","arrowright","psychophysics","180","5304069","0.0-3.0-0.87","","key","arrowright","16.67032608695571","683","312.5","88","4","1","30","15","25","35","true"
"null","null","psychophysics","181","5305080","0.0-3.0-1.87","","key","null","16.666466666664927","683","312.5","","","","","","","",""
"712.8999999985099","arrowleft","psychophysics","182","5305798","0.0-3.0-0.88","","key","arrowleft","16.666976190482576","683","312.5","89","4","1","30","35","25","35","false"
"null","null","psychophysics","183","5306811","0.0-3.0-1.88","","key","null","16.667152542368335","683","312.5","","","","","","","",""
"1479.3000000044703","arrowright","psychophysics","184","5308302","0.0-3.0-0.89","","key","arrowright","16.66675280898893","683","312.5","90","4","-1","23","35","25","35","false"
"null","null","psychophysics","185","5309311","0.0-3.0-1.89","","key","null","16.666915254241204","683","312.5","","","","","","","",""
"2815.10000000149","arrowleft","psychophysics","186","5312138","0.0-3.0-0.90","","key","arrowleft","16.666130177511356","683","312.5","91","4","-1","24","35","25","35","true"
"null","null","psychophysics","187","5313144","0.0-3.0-1.90","","key","null","16.668355932206673","683","312.5","","","","","","","",""
"1213.6000000014901","arrowleft","psychophysics","188","5314370","0.0-3.0-0.91","","key","arrowleft","16.665671232870896","683","312.5","92","4","1","20","15","25","35","false"
"null","null","psychophysics","189","5315382","0.0-3.0-1.91","","key","null","16.666316666671385","683","312.5","","","","","","","",""
"764.3000000044703","arrowright","psychophysics","190","5316206","0.0-3.0-0.92","","key","arrowright","17.01878723403082","683","312.5","93","4","1","24","35","25","35","true"
"null","null","psychophysics","191","5317210","0.0-3.0-1.92","","key","null","16.66684745761992","683","312.5","","","","","","","",""
"1148.2000000029802","arrowleft","psychophysics","192","5318366","0.0-3.0-0.93","","key","arrowleft","16.667202898544137","683","312.5","94","4","-1","25","15","25","35","true"
"null","null","psychophysics","193","5319376","0.0-3.0-1.93","","key","null","16.666881355930563","683","312.5","","","","","","","",""
"863.1999999955297","arrowleft","psychophysics","194","5320245","0.0-3.0-0.94","","key","arrowleft","16.667115384623266","683","312.5","95","4","-1","27","15","25","35","true"
"null","null","psychophysics","195","5321260","0.0-3.0-1.94","","key","null","16.66664406780343","683","312.5","","","","","","","",""
"1267.6999999955297","arrowleft","psychophysics","196","5322537","0.0-3.0-0.95","","key","arrowleft","16.666736842108595","683","312.5","96","4","-1","26","35","25","35","true"
"null","null","psychophysics","197","5323543","0.0-3.0-1.95","","key","null","16.670135593215413","683","312.5","","","","","","","",""
"778.6999999955297","arrowright","psychophysics","198","5324365","0.0-3.0-0.96","","key","arrowright","16.66673469387603","683","312.5","97","4","-1","23","35","25","35","false"
"null","null","psychophysics","199","5325377","0.0-3.0-1.96","","key","null","16.66666101695875","683","312.5","","","","","","","",""
"1237.8000000044703","arrowright","psychophysics","200","5326632","0.0-3.0-0.97","","key","arrowright","16.66726666666567","683","312.5","98","4","1","26","15","25","35","true"
"null","null","psychophysics","201","5327643","0.0-3.0-1.97","","key","null","16.666694915253604","683","312.5","","","","","","","",""
"741.7000000029802","arrowleft","psychophysics","202","5328398","0.0-3.0-0.98","","key","arrowleft","16.665399999999337","683","312.5","99","4","-1","27","15","25","35","true"
"null","null","psychophysics","203","5329410","0.0-3.0-1.98","","key","null","16.668237288135213","683","312.5","","","","","","","",""
"665.2999999970198","arrowright","psychophysics","204","5330088","0.0-3.0-0.99","","key","arrowright","16.66644999999553","683","312.5","100","4","1","25","15","25","35","true"
"null","null","psychophysics","205","5331096","0.0-3.0-1.99","","key","null","16.666416666656733","683","312.5","","","","","","","",""
"873.2999999970198","arrowleft","psychophysics","206","5331975","0.0-3.0-0.100","","key","arrowleft","16.666784313726513","683","312.5","101","4","1","20","15","25","35","false"
"null","null","psychophysics","207","5332996","0.0-3.0-1.100","","key","null","16.665950819682024","683","312.5","","","","","","","",""
"610.8999999985099","arrowright","psychophysics","208","5333615","0.0-3.0-0.101","","key","arrowright","16.67086111110014","683","312.5","102","4","-1","20","35","25","35","false"
"null","null","psychophysics","209","5334627","0.0-3.0-1.101","","key","null","16.666796610169744","683","312.5","","","","","","","",""
"679.7000000029802","arrowright","psychophysics","210","5335330","0.0-3.0-0.102","","key","arrowright","16.66709756097052","683","312.5","103","4","1","30","35","25","35","true"
"null","null","psychophysics","211","5336343","0.0-3.0-1.102","","key","null","16.66518333333855","683","312.5","","","","","","","",""
"452.1000000014901","arrowleft","psychophysics","212","5336819","0.0-3.0-0.103","","key","arrowleft","16.668535714303808","683","312.5","104","4","1","27","15","25","35","false"
"null","null","psychophysics","213","5337828","0.0-3.0-1.103","","key","null","16.663933333335443","683","312.5","","","","","","","",""
"914.3999999985099","arrowright","psychophysics","214","5338748","0.0-3.0-0.104","","key","arrowright","16.670277777783298","683","312.5","105","4","1","27","35","25","35","true"
"null","null","psychophysics","215","5339758","0.0-3.0-1.104","","key","null","16.665186440666854","683","312.5","","","","","","","",""
"1063.8999999985099","arrowright","psychophysics","216","5340848","0.0-3.0-0.105","","key","arrowright","16.66839999999278","683","312.5","106","4","1","25","15","25","35","true"
"null","null","psychophysics","217","5341859","0.0-3.0-1.105","","key","null","16.666610169492788","683","312.5","","","","","","","",""
"1111.8999999985099","arrowright","psychophysics","218","5343010","0.0-3.0-0.106","","key","arrowright","16.91552238805748","683","312.5","107","4","1","24","15","25","35","true"
"null","null","psychophysics","219","5344026","0.0-3.0-1.106","","key","null","16.668533333328863","683","312.5","","","","","","","",""
"603.3000000044703","arrowleft","psychophysics","220","5344665","0.0-3.0-0.107","","key","arrowleft","16.667078947354305","683","312.5","108","4","-1","30","35","25","35","true"
"null","null","psychophysics","221","5345677","0.0-3.0-1.107","","key","null","16.666796610169744","683","312.5","","","","","","","",""
"730.8999999985099","arrowright","psychophysics","222","5346420","0.0-3.0-0.108","","key","arrowright","16.666659090900794","683","312.5","109","4","1","26","15","25","35","true"
"null","null","psychophysics","223","5347427","0.0-3.0-1.108","","key","null","16.666915254241204","683","312.5","","","","","","","",""
"651.8999999985099","arrowleft","psychophysics","224","5348099","0.0-3.0-0.109","","key","arrowleft","16.66655000001192","683","312.5","110","4","1","20","15","25","35","false"
"null","null","psychophysics","225","5349111","0.0-3.0-1.109","","key","null","16.666779661014424","683","312.5","","","","","","","",""
"916","arrowleft","psychophysics","226","5350050","0.0-3.0-0.110","","key","arrowleft","16.665196428574355","683","312.5","111","4","-1","30","15","25","35","true"
"null","null","psychophysics","227","5351062","0.0-3.0-1.110","","key","null","16.66769491524388","683","312.5","","","","","","","",""
"641.8999999985099","arrowleft","psychophysics","228","5351718","0.0-3.0-0.111","","key","arrowleft","16.664153846147922","683","312.5","112","5","-1","30","35","25","35","true"
"null","null","psychophysics","229","5352734","0.0-3.0-1.111","","key","null","16.666916666661077","683","312.5","","","","","","","",""
"1051.3999999985099","arrowleft","html-keyboard-response","230","5353791","0.0-3.0-2.111-0.111","<div style=""color: white; text-align: center; vertical-align: top; display: inline-block; width: 800px; margin: auto""><p>You have completed 40% of the trials. You are on block 5 of 10. <br>Good job! Take a break if you need to.</p><p>Press any key to continue the experiment.</p></div>","","","","","","","","","","","","",""
"1070.6000000014901","arrowleft","psychophysics","231","5355912","0.0-3.0-0.112","","key","arrowleft","16.66581538461435","683","312.5","113","5","1","25","35","25","35","false"
"null","null","psychophysics","232","5356928","0.0-3.0-1.112","","key","null","16.668016666655117","683","312.5","","","","","","","",""
"970.3999999985099","arrowright","psychophysics","233","5357933","0.0-3.0-0.113","","key","arrowright","16.666700000005463","683","312.5","114","5","1","26","35","25","35","true"
"null","null","psychophysics","234","5358945","0.0-3.0-1.113","","key","null","16.666728813564248","683","312.5","","","","","","","",""
"1992.8999999985099","arrowleft","psychophysics","235","5360950","0.0-3.0-0.114","","key","arrowleft","16.6667250000018","683","312.5","115","5","-1","23","15","25","35","true"
"null","null","psychophysics","236","5361961","0.0-3.0-1.114","","key","null","16.666728813564248","683","312.5","","","","","","","",""
"734.2000000029802","arrowright","psychophysics","237","5362716","0.0-3.0-0.115","","key","arrowright","16.66651111110631","683","312.5","116","5","1","26","15","25","35","true"
"null","null","psychophysics","238","5363728","0.0-3.0-1.115","","key","null","16.664220338971433","683","312.5","","","","","","","",""
"685.2000000029802","arrowleft","psychophysics","239","5364450","0.0-3.0-0.116","","key","arrowleft","16.67032558139587","683","312.5","117","5","-1","24","15","25","35","true"
"null","null","psychophysics","240","5365461","0.0-3.0-1.116","","key","null","16.666796610169744","683","312.5","","","","","","","",""
"1502.7000000029802","arrowright","psychophysics","241","5366979","0.0-3.0-0.117","","key","arrowright","16.665477777779515","683","312.5","118","5","1","25","35","25","35","true"
"null","null","psychophysics","242","5367995","0.0-3.0-1.117","","key","null","16.667766666660707","683","312.5","","","","","","","",""
"1065.8999999985099","arrowright","psychophysics","243","5369101","0.0-3.0-0.118","","key","arrowright","16.66533333334056","683","312.5","119","5","1","26","35","25","35","true"
"null","null","psychophysics","244","5370111","0.0-3.0-1.118","","key","null","16.667711864414986","683","312.5","","","","","","","",""
"680.3999999985099","arrowleft","psychophysics","245","5370804","0.0-3.0-0.119","","key","arrowleft","16.66809756097543","683","312.5","120","5","1","25","35","25","35","false"
"null","null","psychophysics","246","5371810","0.0-3.0-1.119","","key","null","16.6688813559269","683","312.5","","","","","","","",""
"636.8999999985099","arrowright","psychophysics","247","5372460","0.0-3.0-0.120","","key","arrowright","16.665078947369597","683","312.5","121","5","1","27","35","25","35","true"
"null","null","psychophysics","248","5373483","0.0-3.0-1.120","","key","null","16.66816393443246","683","312.5","","","","","","","",""
"477.5","arrowleft","psychophysics","249","5373968","0.0-3.0-0.121","","key","arrowleft","16.669000000003035","683","312.5","122","5","-1","30","35","25","35","true"
"null","null","psychophysics","250","5374978","0.0-3.0-1.121","","key","null","16.668416666658594","683","312.5","","","","","","","",""
"677.5","arrowright","psychophysics","251","5375669","0.0-3.0-0.122","","key","arrowright","16.66356097561557","683","312.5","123","5","1","25","15","25","35","true"
"null","null","psychophysics","252","5376678","0.0-3.0-1.122","","key","null","16.669305084730986","683","312.5","","","","","","","",""
"907.2999999970198","arrowleft","psychophysics","253","5377600","0.0-3.0-0.123","","key","arrowleft","16.666672727262434","683","312.5","124","5","1","24","15","25","35","false"
"null","null","psychophysics","254","5378607","0.0-3.0-1.123","","key","null","16.666813559325064","683","312.5","","","","","","","",""
"848.1999999955297","arrowleft","psychophysics","255","5379486","0.0-3.0-0.124","","key","arrowleft","16.668615384618395","683","312.5","125","5","-1","24","15","25","35","true"
"null","null","psychophysics","256","5380495","0.0-3.0-1.124","","key","null","16.666728813564248","683","312.5","","","","","","","",""
"1476.5","arrowleft","psychophysics","257","5381984","0.0-3.0-0.125","","key","arrowleft","16.666719101128702","683","312.5","126","5","-1","24","35","25","35","true"
"null","null","psychophysics","258","5382995","0.0-3.0-1.125","","key","null","16.666796610169744","683","312.5","","","","","","","",""
"709.5","arrowright","psychophysics","259","5383721","0.0-3.0-0.126","","key","arrowright","17.063619047625078","683","312.5","127","5","-1","23","35","25","35","false"
"null","null","psychophysics","260","5384728","0.0-3.0-1.126","","key","null","16.666728813564248","683","312.5","","","","","","","",""
"1015.7999999970198","arrowleft","psychophysics","261","5385783","0.0-3.0-0.127","","key","arrowleft","16.666920634917915","683","312.5","128","5","1","23","35","25","35","false"
"null","null","psychophysics","262","5386795","0.0-3.0-1.127","","key","null","16.666728813548463","683","312.5","","","","","","","",""
"559.8999999985099","arrowright","psychophysics","263","5387367","0.0-3.0-0.128","","key","arrowright","16.666323529419433","683","312.5","129","5","-1","25","35","25","35","false"
"null","null","psychophysics","264","5388378","0.0-3.0-1.128","","key","null","16.668338983051353","683","312.5","","","","","","","",""
"721.8999999985099","arrowleft","psychophysics","265","5389112","0.0-3.0-0.129","","key","arrowleft","16.66641860466104","683","312.5","130","5","-1","27","35","25","35","true"
"null","null","psychophysics","266","5390128","0.0-3.0-1.129","","key","null","16.66776666667623","683","312.5","","","","","","","",""
"616.7000000029802","arrowleft","psychophysics","267","5390757","0.0-3.0-0.130","","key","arrowleft","16.666702702717","683","312.5","131","5","-1","26","15","25","35","true"
"null","null","psychophysics","268","5391762","0.0-3.0-1.130","","key","null","16.667711864414986","683","312.5","","","","","","","",""
"717.7999999970198","arrowleft","psychophysics","269","5392492","0.0-3.0-0.131","","key","arrowleft","16.666883720929714","683","312.5","132","5","-1","25","35","25","35","true"
"null","null","psychophysics","270","5393498","0.0-3.0-1.131","","key","null","16.668249999995655","683","312.5","","","","","","","",""
"746.7000000029802","arrowleft","psychophysics","271","5394251","0.0-3.0-0.132","","key","arrowleft","16.66463636363518","683","312.5","133","5","-1","25","15","25","35","true"
"null","null","psychophysics","272","5395261","0.0-3.0-1.132","","key","null","16.664067796605117","683","312.5","","","","","","","",""
"567.5","arrowright","psychophysics","273","5395842","0.0-3.0-0.133","","key","arrowright","16.670941176468176","683","312.5","134","5","1","30","35","25","35","true"
"null","null","psychophysics","274","5396862","0.0-3.0-1.133","","key","null","16.66840000000472","683","312.5","","","","","","","",""
"743.2999999970198","arrowleft","psychophysics","275","5397617","0.0-3.0-0.134","","key","arrowleft","16.666933333335653","683","312.5","135","5","-1","26","35","25","35","true"
"null","null","psychophysics","276","5398628","0.0-3.0-1.134","","key","null","16.666711864408928","683","312.5","","","","","","","",""
"652.3000000044703","arrowleft","psychophysics","277","5399315","0.0-3.0-0.135","","key","arrowleft","16.66514634145651","683","312.5","136","5","-1","27","15","25","35","true"
"null","null","psychophysics","278","5400328","0.0-3.0-1.135","","key","null","16.66781355931534","683","312.5","","","","","","","",""
"642.8999999985099","arrowright","psychophysics","279","5400984","0.0-3.0-0.136","","key","arrowright","16.663641025646566","683","312.5","137","5","1","25","15","25","35","true"
"null","null","psychophysics","280","5401995","0.0-3.0-1.136","","key","null","16.668135593219077","683","312.5","","","","","","","",""
"791.8000000044703","arrowleft","psychophysics","281","5402800","0.0-3.0-0.137","","key","arrowleft","16.666749999994256","683","312.5","138","5","1","23","15","25","35","false"
"null","null","psychophysics","282","5403812","0.0-3.0-1.137","","key","null","16.668474576278133","683","312.5","","","","","","","",""
"595.7999999970198","arrowleft","psychophysics","283","5404420","0.0-3.0-0.138","","key","arrowleft","16.665305555565283","683","312.5","139","5","-1","30","15","25","35","true"
"null","null","psychophysics","284","5405431","0.0-3.0-1.138","","key","null","16.664233333338053","683","312.5","","","","","","","",""
"895.2999999970198","arrowleft","psychophysics","285","5406333","0.0-3.0-0.139","","key","arrowleft","16.666377358490003","683","312.5","140","6","-1","24","35","25","35","true"
"null","null","psychophysics","286","5407345","0.0-3.0-1.139","","key","null","16.666355932210337","683","312.5","","","","","","","",""
"790692.5"," ","html-keyboard-response","287","6198039","0.0-3.0-2.139-0.139","<div style=""color: white; text-align: center; vertical-align: top; display: inline-block; width: 800px; margin: auto""><p>You have completed 50% of the trials. You are on block 6 of 10. <br>Good job! Take a break if you need to.</p><p>Press any key to continue the experiment.</p></div>","","","","","","","","","","","","",""
"753.7000000029802","arrowright","psychophysics","288","6199851","0.0-3.0-0.140","","key","arrowright","17.018723404252942","683","312.5","141","6","-1","20","15","25","35","false"
"null","null","psychophysics","289","6200862","0.0-3.0-1.140","","key","null","16.666711864408928","683","312.5","","","","","","","",""
"845.7000000029802","arrowright","psychophysics","290","6201719","0.0-3.0-0.141","","key","arrowright","16.666764705880162","683","312.5","142","6","1","30","35","25","35","true"
"null","null","psychophysics","291","6202729","0.0-3.0-1.141","","key","null","16.666728813564248","683","312.5","","","","","","","",""
"649.6000000089407","arrowleft","psychophysics","292","6203390","0.0-3.0-0.142","","key","arrowleft","16.666794871815885","683","312.5","143","6","-1","25","15","25","35","true"
"null","null","psychophysics","293","6204396","0.0-3.0-1.142","","key","null","16.6668305084646","683","312.5","","","","","","","",""
"649.5","arrowright","psychophysics","294","6205057","0.0-3.0-0.143","","key","arrowright","16.66800000000363","683","312.5","144","6","1","23","15","25","35","true"
"null","null","psychophysics","295","6206063","0.0-3.0-1.143","","key","null","16.9554310344834","683","312.5","","","","","","","",""
"2177.2000000029802","arrowleft","psychophysics","296","6208252","0.0-3.0-0.144","","key","arrowleft","16.666572519080386","683","312.5","145","6","1","25","35","25","35","false"
"null","null","psychophysics","297","6209263","0.0-3.0-1.144","","key","null","16.666796610169744","683","312.5","","","","","","","",""
"1153.2999999970198","arrowleft","psychophysics","298","6210451","0.0-3.0-0.145","","key","arrowleft","16.66507042253154","683","312.5","146","6","-1","23","15","25","35","true"
"null","null","psychophysics","299","6211463","0.0-3.0-1.145","","key","null","16.666762711859104","683","312.5","","","","","","","",""
"1035.3999999910593","arrowright","psychophysics","300","6212511","0.0-3.0-0.146","","key","arrowright","16.666758064511082","683","312.5","147","6","-1","24","35","25","35","false"
"null","null","psychophysics","301","6213530","0.0-3.0-1.146","","key","null","16.668000000001243","683","312.5","","","","","","","",""
"700.1999999880791","arrowleft","psychophysics","302","6214252","0.0-3.0-0.147","","key","arrowleft","16.666441860457144","683","312.5","148","6","-1","26","35","25","35","true"
"null","null","psychophysics","303","6215263","0.0-3.0-1.147","","key","null","16.666711864408928","683","312.5","","","","","","","",""
"1144.2999999970198","arrowleft","psychophysics","304","6216434","0.0-3.0-0.148","","key","arrowleft","16.6667571428498","683","312.5","149","6","1","26","35","25","35","false"
"null","null","psychophysics","305","6217446","0.0-3.0-1.148","","key","null","16.66664406780343","683","312.5","","","","","","","",""
"1137.5999999940395","arrowright","psychophysics","306","6218612","0.0-3.0-0.149","","key","arrowright","16.666724637677163","683","312.5","150","6","1","27","35","25","35","true"
"null","null","psychophysics","307","6219629","0.0-3.0-1.149","","key","null","16.66689999999168","683","312.5","","","","","","","",""
"662.7000000029802","arrowleft","psychophysics","308","6220317","0.0-3.0-0.150","","key","arrowleft","16.66778048782087","683","312.5","151","6","1","20","35","25","35","false"
"null","null","psychophysics","309","6221329","0.0-3.0-1.150","","key","null","16.66761016949885","683","312.5","","","","","","","",""
"880.2000000029802","arrowright","psychophysics","310","6222235","0.0-3.0-0.151","","key","arrowright","16.98239622642901","683","312.5","152","6","-1","25","35","25","35","false"
"null","null","psychophysics","311","6223246","0.0-3.0-1.151","","key","null","16.667016949141555","683","312.5","","","","","","","",""
"629.4000000059605","arrowleft","psychophysics","312","6223905","0.0-3.0-0.152","","key","arrowleft","16.66523076921033","683","312.5","153","6","-1","25","15","25","35","true"
"null","null","psychophysics","313","6224912","0.0-3.0-1.152","","key","null","16.669372881368055","683","312.5","","","","","","","",""
"788","arrowright","psychophysics","314","6225736","0.0-3.0-0.153","","key","arrowright","16.66673469387603","683","312.5","154","6","1","25","15","25","35","true"
"null","null","psychophysics","315","6226746","0.0-3.0-1.153","","key","null","16.666881355930563","683","312.5","","","","","","","",""
"610.2000000029802","arrowleft","psychophysics","316","6227367","0.0-3.0-0.154","","key","arrowleft","16.663351351344907","683","312.5","155","6","-1","30","15","25","35","true"
"null","null","psychophysics","317","6228379","0.0-3.0-1.154","","key","null","16.665406779670235","683","312.5","","","","","","","",""
"1648.2000000029802","arrowleft","psychophysics","318","6230049","0.0-3.0-0.155","","key","arrowleft","16.668070707065663","683","312.5","156","6","-1","25","35","25","35","true"
"null","null","psychophysics","319","6231067","0.0-3.0-1.155","","key","null","16.668377049175685","683","312.5","","","","","","","",""
"848.8000000119209","arrowright","psychophysics","320","6231926","0.0-3.0-0.156","","key","arrowright","16.668920000009237","683","312.5","157","6","1","20","15","25","35","true"
"null","null","psychophysics","321","6232932","0.0-3.0-1.156","","key","null","16.66755000000509","683","312.5","","","","","","","",""
"1113.7999999970198","arrowleft","psychophysics","322","6234052","0.0-3.0-0.157","","key","arrowleft","16.667439393939055","683","312.5","158","6","-1","24","15","25","35","true"
"null","null","psychophysics","323","6235067","0.0-3.0-1.157","","key","null","16.665799999997642","683","312.5","","","","","","","",""
"781","arrowleft","psychophysics","324","6235851","0.0-3.0-0.158","","key","arrowleft","16.670391304357707","683","312.5","159","6","1","20","35","25","35","false"
"null","null","psychophysics","325","6236861","0.0-3.0-1.158","","key","null","16.66518644068264","683","312.5","","","","","","","",""
"1295.4000000059605","arrowleft","psychophysics","326","6238168","0.0-3.0-0.159","","key","arrowleft","16.668153846158813","683","312.5","160","6","1","23","35","25","35","false"
"null","null","psychophysics","327","6239180","0.0-3.0-1.159","","key","null","16.666711864408928","683","312.5","","","","","","","",""
"1311.5999999940395","arrowleft","psychophysics","328","6240503","0.0-3.0-0.160","","key","arrowleft","16.665430379748532","683","312.5","161","6","1","20","15","25","35","false"
"null","null","psychophysics","329","6241508","0.0-3.0-1.160","","key","null","16.669593220339866","683","312.5","","","","","","","",""
"673","arrowleft","psychophysics","330","6242193","0.0-3.0-0.161","","key","arrowleft","16.669174999999814","683","312.5","162","6","1","24","35","25","35","false"
"null","null","psychophysics","331","6243200","0.0-3.0-1.161","","key","null","16.663850000003972","683","312.5","","","","","","","",""
"681.5","arrowleft","psychophysics","332","6243891","0.0-3.0-0.162","","key","arrowleft","16.66929999999702","683","312.5","163","6","-1","24","15","25","35","true"
"null","null","psychophysics","333","6244900","0.0-3.0-1.162","","key","null","16.666600000004596","683","312.5","","","","","","","",""
"785.7999999970198","arrowleft","psychophysics","334","6245690","0.0-3.0-0.163","","key","arrowleft","16.670543478275448","683","312.5","164","6","-1","27","35","25","35","true"
"null","null","psychophysics","335","6246696","0.0-3.0-1.163","","key","null","16.666915254241204","683","312.5","","","","","","","",""
"577.4000000059605","arrowright","psychophysics","336","6247297","0.0-3.0-0.164","","key","arrowright","16.666571428573558","683","312.5","165","6","-1","24","35","25","35","false"
"null","null","psychophysics","337","6248314","0.0-3.0-1.164","","key","null","16.66836666666592","683","312.5","","","","","","","",""
"498.29999999701977","arrowleft","psychophysics","338","6248851","0.0-3.0-0.165","","key","arrowleft","16.664218749996508","683","312.5","166","6","1","24","35","25","35","false"
"null","null","psychophysics","339","6249861","0.0-3.0-1.165","","key","null","16.665254237288135","683","312.5","","","","","","","",""
"1258.2000000029802","arrowright","psychophysics","340","6251140","0.0-3.0-0.166","","key","arrowright","16.667973684220527","683","312.5","167","6","1","23","15","25","35","true"
"null","null","psychophysics","341","6252145","0.0-3.0-1.166","","key","null","16.66679999999081","683","312.5","","","","","","","",""
"692.1999999880791","arrowleft","psychophysics","342","6252847","0.0-3.0-0.167","","key","arrowleft","16.668048780479626","683","312.5","168","7","1","24","35","25","35","false"
"null","null","psychophysics","343","6253859","0.0-3.0-1.167","","key","null","16.666779661014424","683","312.5","","","","","","","",""
"1836651.900000006"," ","html-keyboard-response","344","8090523","0.0-3.0-2.167-0.167","<div style=""color: white; text-align: center; vertical-align: top; display: inline-block; width: 800px; margin: auto""><p>You have completed 60% of the trials. You are on block 7 of 10. <br>Good job! Take a break if you need to.</p><p>Press any key to continue the experiment.</p></div>","","","","","","","","","","","","",""
"1537.8999999910593","arrowleft","psychophysics","345","8093091","0.0-3.0-0.168","","key","arrowleft","16.664258064511884","683","312.5","169","7","1","25","35","25","35","false"
"null","null","psychophysics","346","8094098","0.0-3.0-1.168","","key","null","16.668583333337057","683","312.5","","","","","","","",""
"616.0999999940395","arrowright","psychophysics","347","8094724","0.0-3.0-0.169","","key","arrowright","16.66433333333892","683","312.5","170","7","-1","20","35","25","35","false"
"null","null","psychophysics","348","8095729","0.0-3.0-1.169","","key","null","16.66842372881217","683","312.5","","","","","","","",""
"818.5","arrowleft","psychophysics","349","8096569","0.0-3.0-0.170","","key","arrowleft","16.666999999992548","683","312.5","171","7","-1","26","15","25","35","true"
"null","null","psychophysics","350","8097579","0.0-3.0-1.170","","key","null","16.664322033887572","683","312.5","","","","","","","",""
"535.6000000089407","arrowleft","psychophysics","351","8098123","0.0-3.0-0.171","","key","arrowleft","16.665937500016298","683","312.5","172","7","1","23","15","25","35","false"
"null","null","psychophysics","352","8099129","0.0-3.0-1.171","","key","null","16.66959322032408","683","312.5","","","","","","","",""
"709.5999999940395","arrowright","psychophysics","353","8099874","0.0-3.0-0.172","","key","arrowright","16.666727272730153","683","312.5","173","7","1","24","15","25","35","true"
"null","null","psychophysics","354","8100879","0.0-3.0-1.172","","key","null","16.665830508474325","683","312.5","","","","","","","",""
"694.2999999970198","arrowleft","psychophysics","355","8101588","0.0-3.0-0.173","","key","arrowleft","16.67100000000071","683","312.5","174","7","1","20","35","25","35","false"
"null","null","psychophysics","356","8102596","0.0-3.0-1.173","","key","null","16.666915254241204","683","312.5","","","","","","","",""
"790.4000000059605","arrowright","psychophysics","357","8103423","0.0-3.0-0.174","","key","arrowright","16.66671428570942","683","312.5","175","7","1","25","15","25","35","true"
"null","null","psychophysics","358","8104429","0.0-3.0-1.174","","key","null","16.666915254241204","683","312.5","","","","","","","",""
"1207.8999999910593","arrowleft","psychophysics","359","8105655","0.0-3.0-0.175","","key","arrowleft","16.666630136984566","683","312.5","176","7","1","24","15","25","35","false"
"null","null","psychophysics","360","8106662","0.0-3.0-1.175","","key","null","16.666966101707164","683","312.5","","","","","","","",""
"1297.3999999910593","arrowright","psychophysics","361","8107998","0.0-3.0-0.176","","key","arrowright","16.666772151908166","683","312.5","177","7","-1","25","35","25","35","false"
"null","null","psychophysics","362","8109012","0.0-3.0-1.176","","key","null","16.664600000002732","683","312.5","","","","","","","",""
"1091.4000000059605","arrowleft","psychophysics","363","8110116","0.0-3.0-0.177","","key","arrowleft","16.66696875001071","683","312.5","178","7","-1","23","15","25","35","true"
"null","null","psychophysics","364","8111129","0.0-3.0-1.177","","key","null","16.668557377043562","683","312.5","","","","","","","",""
"1765.2000000029802","arrowright","psychophysics","365","8112906","0.0-3.0-0.178","","key","arrowright","16.666839622646428","683","312.5","179","7","1","24","15","25","35","true"
"null","null","psychophysics","366","8113912","0.0-3.0-1.178","","key","null","16.666728813564248","683","312.5","","","","","","","",""
"1602.1000000089407","arrowleft","psychophysics","367","8115552","0.0-3.0-0.179","","key","arrowleft","16.66677551019975","683","312.5","180","7","-1","25","15","25","35","true"
"null","null","psychophysics","368","8116562","0.0-3.0-1.179","","key","null","16.667677966104346","683","312.5","","","","","","","",""
"2041.2999999970198","arrowright","psychophysics","369","8118617","0.0-3.0-0.180","","key","arrowright","16.666813008131353","683","312.5","181","7","1","26","35","25","35","true"
"null","null","psychophysics","370","8119633","0.0-3.0-1.180","","key","null","16.66681666666021","683","312.5","","","","","","","",""
"709.9000000059605","arrowleft","psychophysics","371","8120384","0.0-3.0-0.181","","key","arrowleft","17.056093023266904","683","312.5","182","7","1","20","35","25","35","false"
"null","null","psychophysics","372","8121395","0.0-3.0-1.181","","key","null","16.666542372887292","683","312.5","","","","","","","",""
"792.7000000029802","arrowleft","psychophysics","373","8122201","0.0-3.0-0.182","","key","arrowleft","16.6668125000045","683","312.5","183","7","-1","27","15","25","35","true"
"null","null","psychophysics","374","8123212","0.0-3.0-1.182","","key","null","16.668254237290537","683","312.5","","","","","","","",""
"796.7000000029802","arrowleft","psychophysics","375","8124022","0.0-3.0-0.183","","key","arrowleft","16.66368749999674","683","312.5","184","7","-1","30","15","25","35","true"
"null","null","psychophysics","376","8125029","0.0-3.0-1.183","","key","null","16.66928813559145","683","312.5","","","","","","","",""
"796.2000000029802","arrowright","psychophysics","377","8125838","0.0-3.0-0.184","","key","arrowright","16.666479166655336","683","312.5","185","7","1","27","35","25","35","true"
"null","null","psychophysics","378","8126845","0.0-3.0-1.184","","key","null","16.66761016949885","683","312.5","","","","","","","",""
"1148.7000000029802","arrowleft","psychophysics","379","8128005","0.0-3.0-0.185","","key","arrowleft","16.666753623189162","683","312.5","186","7","-1","27","35","25","35","true"
"null","null","psychophysics","380","8129009","0.0-3.0-1.185","","key","null","16.668474576278133","683","312.5","","","","","","","",""
"892.7999999970198","arrowright","psychophysics","381","8129915","0.0-3.0-0.186","","key","arrowright","16.66668518518822","683","312.5","187","7","1","24","15","25","35","true"
"null","null","psychophysics","382","8130926","0.0-3.0-1.186","","key","null","16.666711864408928","683","312.5","","","","","","","",""
"735.7999999970198","arrowright","psychophysics","383","8131685","0.0-3.0-0.187","","key","arrowright","16.66335555555092","683","312.5","188","7","-1","20","35","25","35","false"
"null","null","psychophysics","384","8132693","0.0-3.0-1.187","","key","null","16.670118644075878","683","312.5","","","","","","","",""
"694.7000000029802","arrowleft","psychophysics","385","8133400","0.0-3.0-0.188","","key","arrowleft","16.66654761905028","683","312.5","189","7","-1","27","15","25","35","true"
"null","null","psychophysics","386","8134412","0.0-3.0-1.188","","key","null","16.666559322042612","683","312.5","","","","","","","",""
"909.7999999970198","arrowright","psychophysics","387","8135358","0.0-3.0-0.189","","key","arrowright","16.666785714299685","683","312.5","190","7","1","26","15","25","35","true"
"null","null","psychophysics","388","8136376","0.0-3.0-1.189","","key","null","16.668633333329733","683","312.5","","","","","","","",""
"806.9000000059605","arrowright","psychophysics","389","8137196","0.0-3.0-0.190","","key","arrowright","16.663479166668065","683","312.5","191","7","-1","20","15","25","35","false"
"null","null","psychophysics","390","8138210","0.0-3.0-1.190","","key","null","16.669350000005217","683","312.5","","","","","","","",""
"726.9000000059605","arrowright","psychophysics","391","8138958","0.0-3.0-0.191","","key","arrowright","16.66656818181615","683","312.5","192","7","1","30","35","25","35","true"
"null","null","psychophysics","392","8139977","0.0-3.0-1.191","","key","null","16.668716666661204","683","312.5","","","","","","","",""
"1210.2999999970198","arrowleft","psychophysics","393","8141200","0.0-3.0-0.192","","key","arrowleft","16.666694444448996","683","312.5","193","7","-1","24","35","25","35","true"
"null","null","psychophysics","394","8142210","0.0-3.0-1.192","","key","null","16.667466666673622","683","312.5","","","","","","","",""
"1279.8999999910593","arrowright","psychophysics","395","8143502","0.0-3.0-0.193","","key","arrowright","16.667480519476843","683","312.5","194","7","1","24","15","25","35","true"
"null","null","psychophysics","396","8144510","0.0-3.0-1.193","","key","null","16.66696610169138","683","312.5","","","","","","","",""
"1265","arrowright","psychophysics","397","8145815","0.0-3.0-0.194","","key","arrowright","16.66642307691897","683","312.5","195","7","1","27","35","25","35","true"
"null","null","psychophysics","398","8146823","0.0-3.0-1.194","","key","null","16.666254237294197","683","312.5","","","","","","","",""
"761.7999999970198","arrowright","psychophysics","399","8147599","0.0-3.0-0.195","","key","arrowright","16.666652173917416","683","312.5","196","8","1","27","35","25","35","true"
"null","null","psychophysics","400","8148607","0.0-3.0-1.195","","key","null","16.666525423731972","683","312.5","","","","","","","",""
"2457744","arrowleft","html-keyboard-response","401","10606355","0.0-3.0-2.195-0.195","<div style=""color: white; text-align: center; vertical-align: top; display: inline-block; width: 800px; margin: auto""><p>You have completed 70% of the trials. You are on block 8 of 10. <br>Good job! Take a break if you need to.</p><p>Press any key to continue the experiment.</p></div>","","","","","","","","","","","","",""
"1534.5","arrowright","psychophysics","402","10608913","0.0-3.0-0.196","","key","arrowright","16.664760869563274","683","312.5","197","8","1","27","15","25","35","true"
"null","null","psychophysics","403","10609919","0.0-3.0-1.196","","key","null","16.667766666660707","683","312.5","","","","","","","",""
"589.7000000029802","arrowleft","psychophysics","404","10610521","0.0-3.0-0.197","","key","arrowleft","16.669257142873747","683","312.5","198","8","-1","27","35","25","35","true"
"null","null","psychophysics","405","10611533","0.0-3.0-1.197","","key","null","16.66671186439314","683","312.5","","","","","","","",""
"444.80000001192093","arrowright","psychophysics","406","10611990","0.0-3.0-0.198","","key","arrowright","16.666703703709775","683","312.5","199","8","-1","20","35","25","35","false"
"null","null","psychophysics","407","10612999","0.0-3.0-1.198","","key","null","16.666593220337468","683","312.5","","","","","","","",""
"468.20000000298023","arrowleft","psychophysics","408","10613505","0.0-3.0-0.199","","key","arrowleft","16.66686666669945","683","312.5","200","8","-1","25","15","25","35","true"
"null","null","psychophysics","409","10614516","0.0-3.0-1.199","","key","null","16.666813559325064","683","312.5","","","","","","","",""
"520.4000000059605","arrowleft","psychophysics","410","10615057","0.0-3.0-0.200","","key","arrowleft","16.666906250000466","683","312.5","201","8","-1","30","15","25","35","true"
"null","null","psychophysics","411","10616068","0.0-3.0-1.200","","key","null","16.666711864424713","683","312.5","","","","","","","",""
"619.2999999970198","arrowright","psychophysics","412","10616712","0.0-3.0-0.201","","key","arrowright","16.665342105258453","683","312.5","202","8","-1","20","15","25","35","false"
"null","null","psychophysics","413","10617716","0.0-3.0-1.201","","key","null","16.668440677951704","683","312.5","","","","","","","",""
"780.2000000029802","arrowright","psychophysics","414","10618522","0.0-3.0-0.202","","key","arrowright","17.021340425542377","683","312.5","203","8","-1","20","35","25","35","false"
"null","null","psychophysics","415","10619533","0.0-3.0-1.202","","key","null","16.66766101693324","683","312.5","","","","","","","",""
"470.70000000298023","arrowleft","psychophysics","416","10620018","0.0-3.0-0.203","","key","arrowleft","16.66685714286619","683","312.5","204","8","1","23","35","25","35","false"
"null","null","psychophysics","417","10621033","0.0-3.0-1.203","","key","null","16.667933333354693","683","312.5","","","","","","","",""
"659.4000000059605","arrowleft","psychophysics","418","10621711","0.0-3.0-0.204","","key","arrowleft","16.667599999997766","683","312.5","205","8","1","20","35","25","35","false"
"null","null","psychophysics","419","10622716","0.0-3.0-1.204","","key","null","16.667135593244584","683","312.5","","","","","","","",""
"532.8000000119209","arrowleft","psychophysics","420","10623288","0.0-3.0-0.205","","key","arrowleft","16.66567647057202","683","312.5","206","8","-1","25","15","25","35","true"
"null","null","psychophysics","421","10624303","0.0-3.0-1.205","","key","null","16.66549999999503","683","312.5","","","","","","","",""
"830.4000000059605","arrowright","psychophysics","422","10625138","0.0-3.0-0.206","","key","arrowright","16.671551020435835","683","312.5","207","8","1","23","15","25","35","true"
"null","null","psychophysics","423","10626150","0.0-3.0-1.206","","key","null","16.664932203368615","683","312.5","","","","","","","",""
"516.2999999970198","arrowleft","psychophysics","424","10626688","0.0-3.0-0.207","","key","arrowleft","16.669937499973457","683","312.5","208","8","-1","30","35","25","35","true"
"null","null","psychophysics","425","10627699","0.0-3.0-1.207","","key","null","16.66766101693324","683","312.5","","","","","","","",""
"1500.7999999970198","arrowright","psychophysics","426","10629213","0.0-3.0-0.208","","key","arrowright","16.667688888890876","683","312.5","209","8","1","24","35","25","35","true"
"null","null","psychophysics","427","10630231","0.0-3.0-1.208","","key","null","16.66830000001937","683","312.5","","","","","","","",""
"661.8999999910593","arrowright","psychophysics","428","10630918","0.0-3.0-0.209","","key","arrowright","16.665390243935512","683","312.5","210","8","1","30","15","25","35","true"
"null","null","psychophysics","429","10631934","0.0-3.0-1.209","","key","null","16.66673333334426","683","312.5","","","","","","","",""
"593.5","arrowright","psychophysics","430","10632536","0.0-3.0-0.210","","key","arrowright","16.670628571403878","683","312.5","211","8","1","24","15","25","35","true"
"null","null","psychophysics","431","10633547","0.0-3.0-1.210","","key","null","16.666745762703783","683","312.5","","","","","","","",""
"581.2999999970198","arrowright","psychophysics","432","10634168","0.0-3.0-0.211","","key","arrowright","16.664243243282307","683","312.5","212","8","-1","20","35","25","35","false"
"null","null","psychophysics","433","10635186","0.0-3.0-1.211","","key","null","16.667166666686533","683","312.5","","","","","","","",""
"644.7999999970198","arrowright","psychophysics","434","10635847","0.0-3.0-0.212","","key","arrowright","17.11978378378459","683","312.5","213","8","-1","23","15","25","35","false"
"null","null","psychophysics","435","10636864","0.0-3.0-1.212","","key","null","16.668549999998262","683","312.5","","","","","","","",""
"644.5","arrowright","psychophysics","436","10637535","0.0-3.0-0.213","","key","arrowright","16.665700000012293","683","312.5","214","8","1","27","15","25","35","true"
"null","null","psychophysics","437","10638546","0.0-3.0-1.213","","key","null","16.663271186462904","683","312.5","","","","","","","",""
"579.7999999970198","arrowright","psychophysics","438","10639136","0.0-3.0-0.214","","key","arrowright","16.665971428581646","683","312.5","215","8","1","26","15","25","35","true"
"null","null","psychophysics","439","10640146","0.0-3.0-1.214","","key","null","16.667118644057695","683","312.5","","","","","","","",""
"575.6000000089407","arrowright","psychophysics","440","10640733","0.0-3.0-0.215","","key","arrowright","16.66634285710752","683","312.5","216","8","1","27","35","25","35","true"
"null","null","psychophysics","441","10641751","0.0-3.0-1.215","","key","null","16.668066666678836","683","312.5","","","","","","","",""
"698.6000000089407","arrowright","psychophysics","442","10642460","0.0-3.0-0.216","","key","arrowright","16.66868292681146","683","312.5","217","8","-1","25","35","25","35","false"
"null","null","psychophysics","443","10643467","0.0-3.0-1.216","","key","null","16.66836666666592","683","312.5","","","","","","","",""
"575.7000000029802","arrowright","psychophysics","444","10644063","0.0-3.0-0.217","","key","arrowright","17.172848484845776","683","312.5","218","8","1","30","15","25","35","true"
"null","null","psychophysics","445","10645083","0.0-3.0-1.217","","key","null","16.666803278670205","683","312.5","","","","","","","",""
"1452.5999999940395","arrowleft","psychophysics","446","10646541","0.0-3.0-0.218","","key","arrowleft","16.669034883726475","683","312.5","219","8","-1","24","15","25","35","true"
"null","null","psychophysics","447","10647547","0.0-3.0-1.218","","key","null","16.66828813561696","683","312.5","","","","","","","",""
"589.0999999940395","arrowright","psychophysics","448","10648178","0.0-3.0-0.219","","key","arrowright","16.66413513510614","683","312.5","220","8","-1","23","35","25","35","false"
"null","null","psychophysics","449","10649184","0.0-3.0-1.219","","key","null","16.668166666664185","683","312.5","","","","","","","",""
"1401.699999988079","arrowright","psychophysics","450","10650594","0.0-3.0-0.220","","key","arrowright","16.666819277096046","683","312.5","221","8","1","24","35","25","35","true"
"null","null","psychophysics","451","10651600","0.0-3.0-1.220","","key","null","16.668100000017635","683","312.5","","","","","","","",""
"1222.7000000029802","arrowleft","psychophysics","452","10652839","0.0-3.0-0.221","","key","arrowleft","16.66595890411265","683","312.5","222","8","-1","24","15","25","35","true"
"null","null","psychophysics","453","10653853","0.0-3.0-1.221","","key","null","16.667250000002483","683","312.5","","","","","","","",""
"657.9000000059605","arrowright","psychophysics","454","10654545","0.0-3.0-0.222","","key","arrowright","16.666374999983237","683","312.5","223","8","-1","23","15","25","35","false"
"null","null","psychophysics","455","10655564","0.0-3.0-1.222","","key","null","16.667966666693488","683","312.5","","","","","","","",""
"2098","arrowleft","psychophysics","456","10657703","0.0-3.0-0.223","","key","arrowleft","16.66681249999965","683","312.5","224","9","1","25","35","25","35","false"
"null","null","psychophysics","457","10658714","0.0-3.0-1.223","","key","null","16.666813559325064","683","312.5","","","","","","","",""
"2256415.399999991"," ","html-keyboard-response","458","12915134","0.0-3.0-2.223-0.223","<div style=""color: white; text-align: center; vertical-align: top; display: inline-block; width: 800px; margin: auto""><p>You have completed 80% of the trials. You are on block 9 of 10. <br>Good job! Take a break if you need to.</p><p>Press any key to continue the experiment.</p></div>","","","","","","","","","","","","",""
"819.2000000029802","arrowleft","psychophysics","459","12916975","0.0-3.0-0.224","","key","arrowleft","17.012458333357547","683","312.5","225","9","1","20","35","25","35","false"
"null","null","psychophysics","460","12917981","0.0-3.0-1.224","","key","null","16.668333333327123","683","312.5","","","","","","","",""
"503.20000000298023","arrowright","psychophysics","461","12918505","0.0-3.0-0.225","","key","arrowright","16.670333333313465","683","312.5","226","9","1","30","15","25","35","true"
"null","null","psychophysics","462","12919511","0.0-3.0-1.225","","key","null","16.666500000003726","683","312.5","","","","","","","",""
"494.59999999403954","arrowright","psychophysics","463","12920014","0.0-3.0-0.226","","key","arrowright","16.666827586190454","683","312.5","227","9","-1","20","35","25","35","false"
"null","null","psychophysics","464","12921024","0.0-3.0-1.226","","key","null","16.666762711890673","683","312.5","","","","","","","",""
"508.70000000298023","arrowleft","psychophysics","465","12921547","0.0-3.0-0.227","","key","arrowleft","16.666096774140193","683","312.5","228","9","1","23","15","25","35","false"
"null","null","psychophysics","466","12922558","0.0-3.0-1.227","","key","null","16.666762711890673","683","312.5","","","","","","","",""
"653.2000000029802","arrowleft","psychophysics","467","12923247","0.0-3.0-0.228","","key","arrowleft","16.666634146351278","683","312.5","229","9","-1","26","35","25","35","true"
"null","null","psychophysics","468","12924258","0.0-3.0-1.228","","key","null","16.664932203400184","683","312.5","","","","","","","",""
"641.5999999940395","arrowright","psychophysics","469","12924921","0.0-3.0-0.229","","key","arrowright","16.666717948726355","683","312.5","230","9","1","30","15","25","35","true"
"null","null","psychophysics","470","12925925","0.0-3.0-1.229","","key","null","16.668355932206673","683","312.5","","","","","","","",""
"737.5999999940395","arrowleft","psychophysics","471","12926687","0.0-3.0-0.230","","key","arrowleft","16.666800000021855","683","312.5","231","9","-1","20","15","25","35","true"
"null","null","psychophysics","472","12927691","0.0-3.0-1.230","","key","null","16.668135593219077","683","312.5","","","","","","","",""
"689.4000000059605","arrowleft","psychophysics","473","12928400","0.0-3.0-0.231","","key","arrowleft","16.666404761906183","683","312.5","232","9","-1","25","35","25","35","true"
"null","null","psychophysics","474","12929408","0.0-3.0-1.231","","key","null","16.666169491549166","683","312.5","","","","","","","",""
"442.59999999403954","arrowright","psychophysics","475","12929864","0.0-3.0-0.232","","key","arrowright","16.656111111174578","683","312.5","233","9","-1","23","15","25","35","false"
"null","null","psychophysics","476","12930875","0.0-3.0-1.232","","key","null","16.666796610169744","683","312.5","","","","","","","",""
"541.1000000089407","arrowleft","psychophysics","477","12931430","0.0-3.0-0.233","","key","arrowleft","16.66754545457661","683","312.5","234","9","1","20","15","25","35","false"
"null","null","psychophysics","478","12932442","0.0-3.0-1.233","","key","null","16.66757627118821","683","312.5","","","","","","","",""
"556.7000000029802","arrowright","psychophysics","479","12933040","0.0-3.0-0.234","","key","arrowright","16.66205714286438","683","312.5","235","9","1","27","15","25","35","true"
"null","null","psychophysics","480","12934047","0.0-3.0-1.234","","key","null","16.668433333343515","683","312.5","","","","","","","",""
"673.8999999910593","arrowleft","psychophysics","481","12934735","0.0-3.0-0.235","","key","arrowleft","16.668775000004096","683","312.5","236","9","1","25","35","25","35","false"
"null","null","psychophysics","482","12935745","0.0-3.0-1.235","","key","null","16.666220338983557","683","312.5","","","","","","","",""
"480","arrowleft","psychophysics","483","12936268","0.0-3.0-0.236","","key","arrowleft","17.220600000023843","683","312.5","237","9","1","23","15","25","35","false"
"null","null","psychophysics","484","12937278","0.0-3.0-1.236","","key","null","16.669305084746775","683","312.5","","","","","","","",""
"721.1999999880791","arrowright","psychophysics","485","12938017","0.0-3.0-0.237","","key","arrowright","16.666931818154726","683","312.5","238","9","1","26","35","25","35","true"
"null","null","psychophysics","486","12939028","0.0-3.0-1.237","","key","null","16.66722033898962","683","312.5","","","","","","","",""
"560.8000000119209","arrowleft","psychophysics","487","12939602","0.0-3.0-0.238","","key","arrowleft","16.660999999984224","683","312.5","239","9","-1","30","15","25","35","true"
"null","null","psychophysics","488","12940605","0.0-3.0-1.238","","key","null","16.66988135593296","683","312.5","","","","","","","",""
"1369.9000000059605","arrowright","psychophysics","489","12941984","0.0-3.0-0.239","","key","arrowright","16.667597560984333","683","312.5","240","9","1","26","35","25","35","true"
"null","null","psychophysics","490","12942995","0.0-3.0-1.239","","key","null","16.666237288138877","683","312.5","","","","","","","",""
"1842.7999999970198","arrowleft","psychophysics","491","12944884","0.0-3.0-0.240","","key","arrowleft","16.816375000003195","683","312.5","241","9","1","23","35","25","35","false"
"null","null","psychophysics","492","12945895","0.0-3.0-1.240","","key","null","16.664644067791308","683","312.5","","","","","","","",""
"1034.7000000029802","arrowright","psychophysics","493","12946939","0.0-3.0-0.241","","key","arrowright","16.66825806451661","683","312.5","242","9","1","25","35","25","35","true"
"null","null","psychophysics","494","12947945","0.0-3.0-1.241","","key","null","16.667033898312663","683","312.5","","","","","","","",""
"657.5","arrowright","psychophysics","495","12948634","0.0-3.0-0.242","","key","arrowright","16.666414634120173","683","312.5","243","9","-1","23","35","25","35","false"
"null","null","psychophysics","496","12949647","0.0-3.0-1.242","","key","null","16.663916666650525","683","312.5","","","","","","","",""
"1477.0999999940395","arrowright","psychophysics","497","12951134","0.0-3.0-0.243","","key","arrowright","16.66870454544286","683","312.5","244","9","1","25","15","25","35","true"
"null","null","psychophysics","498","12952145","0.0-3.0-1.243","","key","null","16.954120689681893","683","312.5","","","","","","","",""
"1464.7000000029802","arrowleft","psychophysics","499","12953635","0.0-3.0-0.244","","key","arrowleft","16.666606741570188","683","312.5","245","9","1","25","35","25","35","false"
"null","null","psychophysics","500","12954645","0.0-3.0-1.244","","key","null","16.66671186439314","683","312.5","","","","","","","",""
"726.4000000059605","arrowright","psychophysics","501","12955384","0.0-3.0-0.245","","key","arrowright","16.666704545474865","683","312.5","246","9","1","30","35","25","35","true"
"null","null","psychophysics","502","12956396","0.0-3.0-1.245","","key","null","16.66825423730632","683","312.5","","","","","","","",""
"724.9000000059605","arrowleft","psychophysics","503","12957133","0.0-3.0-0.246","","key","arrowleft","16.666704545474865","683","312.5","247","9","1","23","15","25","35","false"
"null","null","psychophysics","504","12958145","0.0-3.0-1.246","","key","null","16.668101694940006","683","312.5","","","","","","","",""
"559.5","arrowleft","psychophysics","505","12958717","0.0-3.0-0.247","","key","arrowleft","16.6671176470597","683","312.5","248","9","-1","30","35","25","35","true"
"null","null","psychophysics","506","12959729","0.0-3.0-1.247","","key","null","16.666762711859104","683","312.5","","","","","","","",""
"875.7000000029802","arrowright","psychophysics","507","12960641","0.0-3.0-0.248","","key","arrowright","16.666759259239942","683","312.5","249","9","1","26","15","25","35","true"
"null","null","psychophysics","508","12961645","0.0-3.0-1.248","","key","null","16.668169491529717","683","312.5","","","","","","","",""
"1104.0999999940395","arrowleft","psychophysics","509","12962771","0.0-3.0-0.249","","key","arrowleft","16.666701492533754","683","312.5","250","9","-1","27","15","25","35","true"
"null","null","psychophysics","510","12963779","0.0-3.0-1.249","","key","null","16.666762711890673","683","312.5","","","","","","","",""
"837.2999999970198","arrowleft","psychophysics","511","12964637","0.0-3.0-0.250","","key","arrowleft","16.666666666666668","683","312.5","251","9","-1","26","15","25","35","true"
"null","null","psychophysics","512","12965645","0.0-3.0-1.250","","key","null","16.666525423716184","683","312.5","","","","","","","",""
"876.9000000059605","arrowright","psychophysics","513","12966548","0.0-3.0-0.251","","key","arrowright","16.666735849044514","683","312.5","252","10","-1","24","35","25","35","false"
"null","null","psychophysics","514","12967562","0.0-3.0-1.251","","key","null","16.66638333334898","683","312.5","","","","","","","",""
"2109.4000000059605","arrowleft","html-keyboard-response","515","12969676","0.0-3.0-2.251-0.251","<div style=""color: white; text-align: center; vertical-align: top; display: inline-block; width: 800px; margin: auto""><p>You have completed 90% of the trials. You are on block 10 of 10. <br>Good job! Take a break if you need to.</p><p>Press any key to continue the experiment.</p></div>","","","","","","","","","","","","",""
"1076.8999999910593","arrowright","psychophysics","516","12971778","0.0-3.0-0.252","","key","arrowright","16.665723076921243","683","312.5","253","10","1","25","15","25","35","true"
"null","null","psychophysics","517","12972795","0.0-3.0-1.252","","key","null","16.66840000000472","683","312.5","","","","","","","",""
"542.5999999940395","arrowleft","psychophysics","518","12973350","0.0-3.0-0.253","","key","arrowleft","16.667333333329722","683","312.5","254","10","1","27","35","25","35","false"
"null","null","psychophysics","519","12974362","0.0-3.0-1.253","","key","null","16.666881355914775","683","312.5","","","","","","","",""
"546.4000000059605","arrowleft","psychophysics","520","12974920","0.0-3.0-0.254","","key","arrowleft","16.663787878767558","683","312.5","255","10","-1","26","15","25","35","true"
"null","null","psychophysics","521","12975932","0.0-3.0-1.254","","key","null","16.66714999998609","683","312.5","","","","","","","",""
"679.2999999970198","arrowright","psychophysics","522","12976617","0.0-3.0-0.255","","key","arrowright","16.670800000010058","683","312.5","256","10","1","27","15","25","35","true"
"null","null","psychophysics","523","12977629","0.0-3.0-1.255","","key","null","16.666762711859104","683","312.5","","","","","","","",""
"541.8000000119209","arrowleft","psychophysics","524","12978183","0.0-3.0-0.256","","key","arrowleft","16.662999999963425","683","312.5","257","10","1","23","35","25","35","false"
"null","null","psychophysics","525","12979200","0.0-3.0-1.256","","key","null","16.667783333330103","683","312.5","","","","","","","",""
"615.7999999970198","arrowleft","psychophysics","526","12979824","0.0-3.0-0.257","","key","arrowleft","16.66552777774632","683","312.5","258","10","-1","25","35","25","35","true"
"null","null","psychophysics","527","12980828","0.0-3.0-1.257","","key","null","16.666305084760157","683","312.5","","","","","","","",""
"561","arrowleft","psychophysics","528","12981418","0.0-3.0-0.258","","key","arrowleft","16.668514285715563","683","312.5","259","10","-1","30","15","25","35","true"
"null","null","psychophysics","529","12982429","0.0-3.0-1.258","","key","null","16.66796610169744","683","312.5","","","","","","","",""
"952.0999999940395","arrowright","psychophysics","530","12983396","0.0-3.0-0.259","","key","arrowright","16.666789473671663","683","312.5","260","10","-1","23","35","25","35","false"
"null","null","psychophysics","531","12984413","0.0-3.0-1.259","","key","null","16.668266666680573","683","312.5","","","","","","","",""
"597.6000000089407","arrowleft","psychophysics","532","12985029","0.0-3.0-0.260","","key","arrowleft","16.666833333360653","683","312.5","261","10","1","20","35","25","35","false"
"null","null","psychophysics","533","12986036","0.0-3.0-1.260","","key","null","16.66535000000149","683","312.5","","","","","","","",""
"1000.2999999970198","arrowleft","psychophysics","534","12987055","0.0-3.0-0.261","","key","arrowleft","16.665433333317438","683","312.5","262","10","-1","27","35","25","35","true"
"null","null","psychophysics","535","12988064","0.0-3.0-1.261","","key","null","16.668338983051353","683","312.5","","","","","","","",""
"542.9000000059605","arrowright","psychophysics","536","12988626","0.0-3.0-0.262","","key","arrowright","16.66951515147406","683","312.5","263","10","1","27","15","25","35","true"
"null","null","psychophysics","537","12989632","0.0-3.0-1.262","","key","null","16.668599999975413","683","312.5","","","","","","","",""
"675.1000000089407","arrowright","psychophysics","538","12990319","0.0-3.0-0.263","","key","arrowright","16.66689999997616","683","312.5","264","10","-1","20","15","25","35","false"
"null","null","psychophysics","539","12991329","0.0-3.0-1.263","","key","null","16.66635593219455","683","312.5","","","","","","","",""
"669.4000000059605","arrowright","psychophysics","540","12992011","0.0-3.0-0.264","","key","arrowright","16.66647499999963","683","312.5","265","10","1","23","15","25","35","true"
"null","null","psychophysics","541","12993029","0.0-3.0-1.264","","key","null","16.66850000002111","683","312.5","","","","","","","",""
"510.80000001192093","arrowright","psychophysics","542","12993562","0.0-3.0-0.265","","key","arrowright","16.667032258044326","683","312.5","266","10","1","30","15","25","35","true"
"null","null","psychophysics","543","12994579","0.0-3.0-1.265","","key","null","16.668633333345255","683","312.5","","","","","","","",""
"476.40000000596046","arrowleft","psychophysics","544","12995087","0.0-3.0-0.266","","key","arrowleft","16.665966666676105","683","312.5","267","10","1","20","15","25","35","false"
"null","null","psychophysics","545","12996098","0.0-3.0-1.266","","key","null","16.666593220337468","683","312.5","","","","","","","",""
"430.20000000298023","arrowright","psychophysics","546","12996554","0.0-3.0-0.267","","key","arrowright","16.66677777779599","683","312.5","268","10","-1","23","35","25","35","false"
"null","null","psychophysics","547","12997564","0.0-3.0-1.267","","key","null","16.666694915269392","683","312.5","","","","","","","",""
"469.5","arrowleft","psychophysics","548","12998070","0.0-3.0-0.268","","key","arrowleft","17.235310344796243","683","312.5","269","10","1","23","35","25","35","false"
"null","null","psychophysics","549","12999082","0.0-3.0-1.268","","key","null","16.669118644069815","683","312.5","","","","","","","",""
"471.8999999910593","arrowright","psychophysics","550","12999582","0.0-3.0-0.269","","key","arrowright","16.66934482753277","683","312.5","270","10","-1","27","35","25","35","false"
"null","null","psychophysics","551","13000598","0.0-3.0-1.269","","key","null","16.668349999996522","683","312.5","","","","","","","",""
"492.5","arrowright","psychophysics","552","13001103","0.0-3.0-0.270","","key","arrowright","16.667066666670145","683","312.5","271","10","1","30","15","25","35","true"
"null","null","psychophysics","553","13002116","0.0-3.0-1.270","","key","null","16.668322033896033","683","312.5","","","","","","","",""
"543.1999999880791","arrowleft","psychophysics","554","13002671","0.0-3.0-0.271","","key","arrowleft","16.666727272737205","683","312.5","272","10","1","23","35","25","35","false"
"null","null","psychophysics","555","13003682","0.0-3.0-1.271","","key","null","16.66823728811943","683","312.5","","","","","","","",""
"443","arrowright","psychophysics","556","13004138","0.0-3.0-0.272","","key","arrowright","16.66318518516642","683","312.5","273","10","-1","20","15","25","35","false"
"null","null","psychophysics","557","13005148","0.0-3.0-1.272","","key","null","16.668084745753113","683","312.5","","","","","","","",""
"813.4000000059605","arrowright","psychophysics","558","13005975","0.0-3.0-0.273","","key","arrowright","16.66661224487637","683","312.5","274","10","1","26","15","25","35","true"
"null","null","psychophysics","559","13006982","0.0-3.0-1.273","","key","null","16.666864406791028","683","312.5","","","","","","","",""
"545.5","arrowleft","psychophysics","560","13007563","0.0-3.0-0.274","","key","arrowleft","16.666676470626363","683","312.5","275","10","-1","30","35","25","35","true"
"null","null","psychophysics","561","13008582","0.0-3.0-1.274","","key","null","16.668416666674116","683","312.5","","","","","","","",""
"556.1000000089407","arrowright","psychophysics","562","13009165","0.0-3.0-0.275","","key","arrowright","16.665617647032967","683","312.5","276","10","1","24","35","25","35","true"
"null","null","psychophysics","563","13010181","0.0-3.0-1.275","","key","null","16.665683333327372","683","312.5","","","","","","","",""
"724","arrowleft","psychophysics","564","13010927","0.0-3.0-0.276","","key","arrowleft","16.67050000000745","683","312.5","277","10","1","20","35","25","35","false"
"null","null","psychophysics","565","13011931","0.0-3.0-1.276","","key","null","16.667830508486446","683","312.5","","","","","","","",""
"3756.5","arrowright","psychophysics","566","13015717","0.0-3.0-0.277","","key","arrowright","16.739517699119396","683","312.5","278","10","-1","26","35","25","35","false"
"null","null","psychophysics","567","13016736","0.0-3.0-1.277","","key","null","16.669366666674613","683","312.5","","","","","","","",""
"685","arrowleft","psychophysics","568","13017471","0.0-3.0-0.278","","key","arrowleft","17.06638095235186","683","312.5","279","10","-1","26","15","25","35","true"
"null","null","psychophysics","569","13018482","0.0-3.0-1.278","","key","null","16.66730508473465","683","312.5","","","","","","","",""
"567.7999999970198","arrowright","psychophysics","570","13019062","0.0-3.0-0.279","","key","arrowright","16.664294117623392","683","312.5","280","11","1","27","35","25","35","true"
"null","null","psychophysics","571","13020081","0.0-3.0-1.279","","key","null","16.664916666659217","683","312.5","","","","","","","",""
