rt,response,trial_type,trial_index,time_elapsed,internal_node_id,stimulus,response_type,key_press,avg_frame_time,center_x,center_y,trial,block,test_pos,test_inner_radius,test_outer_radius,ref_inner_radius,ref_outer_radius,test_bigger
46064.5,"{""p_id"":""5853"",""age"":""21"",""handedness"":""right"",""sex"":""female"",""other_sex"":""""}",survey-html-form,0,46064,0.0-0.0,,,,,,,,,,,,,,
5527.5,enter,html-keyboard-response,1,51592,0.0-1.0,"<p style=""color: white"">Welcome to the Size Judgment Experiment. <br>There will be 10 blocks in this experiment. <br>There will be 28 trials in each block. <br>You will be given a chance to take a break between blocks. <br>Press any key to start the experiment.</p>",,,,,,,,,,,,,
1639.1,enter,psychophysics,2,53248,0.0-2.0,,key,enter,16.666,611,367,,,,,,,,
3265.7,arrowleft,psychophysics,3,56518,0.0-3.0-0.0,,key,arrowleft,16.666,611,367,1,1,1,26,35,25,35,FALSE
null,null,psychophysics,4,57522,0.0-3.0-1.0,,key,null,16.666,611,367,,,,,,,,
623.9000001,arrowleft,psychophysics,5,58149,0.0-3.0-0.1,,key,arrowleft,16.666,611,367,2,1,-1,27,35,25,35,TRUE
null,null,psychophysics,6,59154,0.0-3.0-1.1,,key,null,16.666,611,367,,,,,,,,
536.9000001,arrowleft,psychophysics,7,59697,0.0-3.0-0.2,,key,arrowleft,16.666,611,367,3,1,1,25,35,25,35,FALSE
null,null,psychophysics,8,60703,0.0-3.0-1.2,,key,null,16.666,611,367,,,,,,,,
528.2,arrowright,psychophysics,9,61238,0.0-3.0-0.3,,key,arrowright,16.666,611,367,4,1,1,27,15,25,35,TRUE
null,null,psychophysics,10,62242,0.0-3.0-1.3,,key,null,16.666,611,367,,,,,,,,
1374.5,arrowleft,psychophysics,11,63620,0.0-3.0-0.4,,key,arrowleft,16.68582716,611,367,5,1,-1,24,15,25,35,TRUE
null,null,psychophysics,12,64622,0.0-3.0-1.4,,key,null,16.666,611,367,,,,,,,,
491.3,arrowleft,psychophysics,13,65119,0.0-3.0-0.5,,key,arrowleft,16.666,611,367,6,1,-1,30,35,25,35,TRUE
null,null,psychophysics,14,66121,0.0-3.0-1.5,,key,null,16.666,611,367,,,,,,,,
635.8,arrowright,psychophysics,15,66763,0.0-3.0-0.6,,key,arrowright,16.666,611,367,7,1,1,25,15,25,35,TRUE
null,null,psychophysics,16,67770,0.0-3.0-1.6,,key,null,16.666,611,367,,,,,,,,
559.8,arrowleft,psychophysics,17,68334,0.0-3.0-0.7,,key,arrowleft,16.666,611,367,8,1,-1,24,15,25,35,TRUE
null,null,psychophysics,18,69337,0.0-3.0-1.7,,key,null,16.666,611,367,,,,,,,,
525.8,arrowleft,psychophysics,19,69869,0.0-3.0-0.8,,key,arrowleft,16.666,611,367,9,1,-1,23,15,25,35,TRUE
null,null,psychophysics,20,70879,0.0-3.0-1.8,,key,null,16.666,611,367,,,,,,,,
674.2,arrowright,psychophysics,21,71557,0.0-3.0-0.9,,key,arrowright,16.666,611,367,10,1,1,23,15,25,35,TRUE
null,null,psychophysics,22,72562,0.0-3.0-1.9,,key,null,16.666,611,367,,,,,,,,
746.3,arrowright,psychophysics,23,73313,0.0-3.0-0.10,,key,arrowright,16.666,611,367,11,1,-1,20,15,25,35,FALSE
null,null,psychophysics,24,74318,0.0-3.0-1.10,,key,null,16.666,611,367,,,,,,,,
792,arrowright,psychophysics,25,75114,0.0-3.0-0.11,,key,arrowright,16.666,611,367,12,1,1,24,15,25,35,TRUE
null,null,psychophysics,26,76120,0.0-3.0-1.11,,key,null,16.666,611,367,,,,,,,,
608.9000001,arrowleft,psychophysics,27,76735,0.0-3.0-0.12,,key,arrowleft,16.666,611,367,13,1,-1,24,15,25,35,TRUE
null,null,psychophysics,28,77737,0.0-3.0-1.12,,key,null,16.666,611,367,,,,,,,,
625.5,arrowleft,psychophysics,29,78369,0.0-3.0-0.13,,key,arrowleft,16.666,611,367,14,1,-1,27,15,25,35,TRUE
null,null,psychophysics,30,79372,0.0-3.0-1.13,,key,null,16.666,611,367,,,,,,,,
676.0999999,arrowleft,psychophysics,31,80052,0.0-3.0-0.14,,key,arrowleft,16.666,611,367,15,1,1,20,15,25,35,FALSE
null,null,psychophysics,32,81054,0.0-3.0-1.14,,key,null,16.666,611,367,,,,,,,,
508.3999999,arrowleft,psychophysics,33,81569,0.0-3.0-0.15,,key,arrowleft,16.666,611,367,16,1,-1,30,15,25,35,TRUE
null,null,psychophysics,34,82571,0.0-3.0-1.15,,key,null,16.666,611,367,,,,,,,,
1505.9,arrowleft,psychophysics,35,84083,0.0-3.0-0.16,,key,arrowleft,16.6838,611,367,17,1,1,25,35,25,35,FALSE
null,null,psychophysics,36,85088,0.0-3.0-1.16,,key,null,16.666,611,367,,,,,,,,
951.9000001,arrowleft,psychophysics,37,86045,0.0-3.0-0.17,,key,arrowleft,16.666,611,367,18,1,-1,23,15,25,35,TRUE
null,null,psychophysics,38,87052,0.0-3.0-1.17,,key,null,16.666,611,367,,,,,,,,
1040.8,arrowleft,psychophysics,39,88097,0.0-3.0-0.18,,key,arrowleft,16.666,611,367,19,1,1,20,15,25,35,FALSE
null,null,psychophysics,40,89103,0.0-3.0-1.18,,key,null,16.666,611,367,,,,,,,,
649.5,arrowleft,psychophysics,41,89762,0.0-3.0-0.19,,key,arrowleft,16.666,611,367,20,1,-1,30,35,25,35,TRUE
null,null,psychophysics,42,90769,0.0-3.0-1.19,,key,null,16.666,611,367,,,,,,,,
1056.1,arrowleft,psychophysics,43,91830,0.0-3.0-0.20,,key,arrowleft,16.666,611,367,21,1,-1,25,15,25,35,TRUE
null,null,psychophysics,44,92836,0.0-3.0-1.20,,key,null,16.666,611,367,,,,,,,,
827.4000001,arrowright,psychophysics,45,93670,0.0-3.0-0.21,,key,arrowright,16.666,611,367,22,1,1,24,15,25,35,TRUE
null,null,psychophysics,46,94672,0.0-3.0-1.21,,key,null,16.666,611,367,,,,,,,,
852.9000001,arrowright,psychophysics,47,95529,0.0-3.0-0.22,,key,arrowright,16.666,611,367,23,1,-1,23,15,25,35,FALSE
null,null,psychophysics,48,96533,0.0-3.0-1.22,,key,null,16.95334483,611,367,,,,,,,,
712.3,arrowleft,psychophysics,49,97248,0.0-3.0-0.23,,key,arrowleft,16.666,611,367,24,1,1,24,35,25,35,FALSE
null,null,psychophysics,50,98254,0.0-3.0-1.23,,key,null,16.666,611,367,,,,,,,,
705.1000001,arrowright,psychophysics,51,98965,0.0-3.0-0.24,,key,arrowright,16.666,611,367,25,1,-1,25,35,25,35,FALSE
null,null,psychophysics,52,99971,0.0-3.0-1.24,,key,null,16.666,611,367,,,,,,,,
490,arrowleft,psychophysics,53,100466,0.0-3.0-0.25,,key,arrowleft,16.666,611,367,26,1,-1,27,15,25,35,TRUE
null,null,psychophysics,54,101470,0.0-3.0-1.25,,key,null,16.666,611,367,,,,,,,,
512.3999999,arrowright,psychophysics,55,101989,0.0-3.0-0.26,,key,arrowright,16.666,611,367,27,1,1,27,15,25,35,TRUE
null,null,psychophysics,56,102995,0.0-3.0-1.26,,key,null,16.666,611,367,,,,,,,,
782.9000001,arrowleft,psychophysics,57,103782,0.0-3.0-0.27,,key,arrowleft,16.70080435,611,367,28,2,-1,26,35,25,35,TRUE
null,null,psychophysics,58,104788,0.0-3.0-1.27,,key,null,16.666,611,367,,,,,,,,
1178.7,enter,html-keyboard-response,59,105969,0.0-3.0-2.27-0.27,"<div style=""color: white; text-align: center; vertical-align: top; display: inline-block; width: 800px; margin: auto""><p>You have completed 10% of the trials. You are on block 2 of 10. <br>Good job! Take a break if you need to.</p><p>Press any key to continue the experiment.</p></div>",,,,,,,,,,,,,
856.7,arrowleft,psychophysics,60,107836,0.0-3.0-0.28,,key,arrowleft,16.666,611,367,29,2,-1,27,35,25,35,TRUE
null,null,psychophysics,61,108838,0.0-3.0-1.28,,key,null,16.666,611,367,,,,,,,,
612.8,arrowleft,psychophysics,62,109457,0.0-3.0-0.29,,key,arrowleft,16.666,611,367,30,2,1,24,35,25,35,FALSE
null,null,psychophysics,63,110462,0.0-3.0-1.29,,key,null,16.666,611,367,,,,,,,,
496.7,arrowright,psychophysics,64,110963,0.0-3.0-0.30,,key,arrowright,16.666,611,367,31,2,1,26,35,25,35,TRUE
null,null,psychophysics,65,111969,0.0-3.0-1.30,,key,null,16.666,611,367,,,,,,,,
603.3999999,arrowright,psychophysics,66,112576,0.0-3.0-0.31,,key,arrowright,16.666,611,367,32,2,1,27,15,25,35,TRUE
null,null,psychophysics,67,113579,0.0-3.0-1.31,,key,null,16.666,611,367,,,,,,,,
804,arrowleft,psychophysics,68,114387,0.0-3.0-0.32,,key,arrowleft,16.666,611,367,33,2,1,23,35,25,35,FALSE
null,null,psychophysics,69,115389,0.0-3.0-1.32,,key,null,16.666,611,367,,,,,,,,
450.1999998,arrowright,psychophysics,70,115843,0.0-3.0-0.33,,key,arrowright,16.666,611,367,34,2,1,30,15,25,35,TRUE
null,null,psychophysics,71,116846,0.0-3.0-1.33,,key,null,16.666,611,367,,,,,,,,
763.5999999,arrowleft,psychophysics,72,117614,0.0-3.0-0.34,,key,arrowleft,16.666,611,367,35,2,-1,25,35,25,35,TRUE
null,null,psychophysics,73,118620,0.0-3.0-1.34,,key,null,16.666,611,367,,,,,,,,
471.0999999,arrowleft,psychophysics,74,119097,0.0-3.0-0.35,,key,arrowleft,16.666,611,367,36,2,-1,25,15,25,35,TRUE
null,null,psychophysics,75,120104,0.0-3.0-1.35,,key,null,16.666,611,367,,,,,,,,
1036,arrowleft,psychophysics,76,121146,0.0-3.0-0.36,,key,arrowleft,16.666,611,367,37,2,1,23,15,25,35,FALSE
null,null,psychophysics,77,122152,0.0-3.0-1.36,,key,null,16.666,611,367,,,,,,,,
6488.8,arrowright,psychophysics,78,128647,0.0-3.0-0.37,,key,arrowright,16.67011568,611,367,38,2,-1,26,35,25,35,FALSE
null,null,psychophysics,79,129654,0.0-3.0-1.37,,key,null,16.666,611,367,,,,,,,,
520,arrowright,psychophysics,80,130180,0.0-3.0-0.38,,key,arrowright,16.666,611,367,39,2,-1,20,35,25,35,FALSE
null,null,psychophysics,81,131186,0.0-3.0-1.38,,key,null,16.666,611,367,,,,,,,,
523.6999998,arrowleft,psychophysics,82,131714,0.0-3.0-0.39,,key,arrowleft,16.666,611,367,40,2,1,20,35,25,35,FALSE
null,null,psychophysics,83,132720,0.0-3.0-1.39,,key,null,16.666,611,367,,,,,,,,
572.8,arrowright,psychophysics,84,133295,0.0-3.0-0.40,,key,arrowright,16.666,611,367,41,2,-1,20,35,25,35,FALSE
null,null,psychophysics,85,134302,0.0-3.0-1.40,,key,null,16.666,611,367,,,,,,,,
791.2,arrowleft,psychophysics,86,135097,0.0-3.0-0.41,,key,arrowleft,16.666,611,367,42,2,-1,25,15,25,35,TRUE
null,null,psychophysics,87,136102,0.0-3.0-1.41,,key,null,16.666,611,367,,,,,,,,
572.7,arrowleft,psychophysics,88,136681,0.0-3.0-0.42,,key,arrowleft,16.666,611,367,43,2,-1,27,15,25,35,TRUE
null,null,psychophysics,89,137687,0.0-3.0-1.42,,key,null,16.666,611,367,,,,,,,,
587.2,arrowright,psychophysics,90,138280,0.0-3.0-0.43,,key,arrowright,16.666,611,367,44,2,-1,20,35,25,35,FALSE
null,null,psychophysics,91,139287,0.0-3.0-1.43,,key,null,16.666,611,367,,,,,,,,
736.3,arrowleft,psychophysics,92,140029,0.0-3.0-0.44,,key,arrowleft,16.666,611,367,45,2,-1,26,15,25,35,TRUE
null,null,psychophysics,93,141031,0.0-3.0-1.44,,key,null,16.666,611,367,,,,,,,,
698.9000001,arrowright,psychophysics,94,141734,0.0-3.0-0.45,,key,arrowright,16.666,611,367,46,2,1,26,35,25,35,TRUE
null,null,psychophysics,95,142737,0.0-3.0-1.45,,key,null,16.666,611,367,,,,,,,,
653.1000001,arrowright,psychophysics,96,143396,0.0-3.0-0.46,,key,arrowright,16.666,611,367,47,2,-1,23,15,25,35,FALSE
null,null,psychophysics,97,144402,0.0-3.0-1.46,,key,null,16.69315254,611,367,,,,,,,,
548.8,arrowright,psychophysics,98,144955,0.0-3.0-0.47,,key,arrowright,16.666,611,367,48,2,1,30,35,25,35,TRUE
null,null,psychophysics,99,145957,0.0-3.0-1.47,,key,null,16.666,611,367,,,,,,,,
570,arrowleft,psychophysics,100,146531,0.0-3.0-0.48,,key,arrowleft,16.666,611,367,49,2,-1,27,15,25,35,TRUE
null,null,psychophysics,101,147537,0.0-3.0-1.48,,key,null,16.666,611,367,,,,,,,,
485.8,arrowleft,psychophysics,102,148029,0.0-3.0-0.49,,key,arrowleft,16.666,611,367,50,2,1,23,35,25,35,FALSE
null,null,psychophysics,103,149035,0.0-3.0-1.49,,key,null,16.666,611,367,,,,,,,,
874.8,arrowright,psychophysics,104,149914,0.0-3.0-0.50,,key,arrowright,16.666,611,367,51,2,1,26,35,25,35,TRUE
null,null,psychophysics,105,150919,0.0-3.0-1.50,,key,null,16.666,611,367,,,,,,,,
536.1000001,arrowleft,psychophysics,106,151462,0.0-3.0-0.51,,key,arrowleft,16.666,611,367,52,2,1,23,15,25,35,FALSE
null,null,psychophysics,107,152468,0.0-3.0-1.51,,key,null,16.666,611,367,,,,,,,,
791.1999998,arrowright,psychophysics,108,153264,0.0-3.0-0.52,,key,arrowright,16.666,611,367,53,2,1,27,35,25,35,TRUE
null,null,psychophysics,109,154271,0.0-3.0-1.52,,key,null,16.666,611,367,,,,,,,,
520.3,arrowleft,psychophysics,110,154797,0.0-3.0-0.53,,key,arrowleft,16.666,611,367,54,2,1,20,15,25,35,FALSE
null,null,psychophysics,111,155801,0.0-3.0-1.53,,key,null,16.666,611,367,,,,,,,,
626.0999999,arrowleft,psychophysics,112,156432,0.0-3.0-0.54,,key,arrowleft,16.666,611,367,55,2,-1,27,35,25,35,TRUE
null,null,psychophysics,113,157439,0.0-3.0-1.54,,key,null,16.666,611,367,,,,,,,,
769.2,arrowleft,psychophysics,114,158212,0.0-3.0-0.55,,key,arrowleft,16.666,611,367,56,3,-1,26,35,25,35,TRUE
null,null,psychophysics,115,159218,0.0-3.0-1.55,,key,null,16.666,611,367,,,,,,,,
958,enter,html-keyboard-response,116,160179,0.0-3.0-2.55-0.55,"<div style=""color: white; text-align: center; vertical-align: top; display: inline-block; width: 800px; margin: auto""><p>You have completed 20% of the trials. You are on block 3 of 10. <br>Good job! Take a break if you need to.</p><p>Press any key to continue the experiment.</p></div>",,,,,,,,,,,,,
605.9000001,arrowright,psychophysics,117,161797,0.0-3.0-0.56,,key,arrowright,16.666,611,367,57,3,-1,23,35,25,35,FALSE
null,null,psychophysics,118,162801,0.0-3.0-1.56,,key,null,16.666,611,367,,,,,,,,
2176.7,arrowleft,psychophysics,119,164983,0.0-3.0-0.57,,key,arrowleft,16.67832308,611,367,58,3,1,24,35,25,35,FALSE
null,null,psychophysics,120,165988,0.0-3.0-1.57,,key,null,16.666,611,367,,,,,,,,
551.4000001,arrowright,psychophysics,121,166545,0.0-3.0-0.58,,key,arrowright,16.666,611,367,59,3,1,27,35,25,35,TRUE
null,null,psychophysics,122,167552,0.0-3.0-1.58,,key,null,16.666,611,367,,,,,,,,
726,arrowleft,psychophysics,123,168282,0.0-3.0-0.59,,key,arrowleft,16.666,611,367,60,3,1,25,35,25,35,FALSE
null,null,psychophysics,124,169288,0.0-3.0-1.59,,key,null,16.666,611,367,,,,,,,,
581,arrowleft,psychophysics,125,169875,0.0-3.0-0.60,,key,arrowleft,16.666,611,367,61,3,-1,26,15,25,35,TRUE
null,null,psychophysics,126,170879,0.0-3.0-1.60,,key,null,16.666,611,367,,,,,,,,
597.8,arrowright,psychophysics,127,171482,0.0-3.0-0.61,,key,arrowright,16.666,611,367,62,3,-1,20,35,25,35,FALSE
null,null,psychophysics,128,172488,0.0-3.0-1.61,,key,null,16.666,611,367,,,,,,,,
936,arrowleft,psychophysics,129,173430,0.0-3.0-0.62,,key,arrowleft,16.666,611,367,63,3,-1,27,35,25,35,TRUE
null,null,psychophysics,130,174437,0.0-3.0-1.62,,key,null,16.666,611,367,,,,,,,,
687.4000001,arrowright,psychophysics,131,175127,0.0-3.0-0.63,,key,arrowright,16.666,611,367,64,3,1,27,35,25,35,TRUE
null,null,psychophysics,132,176129,0.0-3.0-1.63,,key,null,16.666,611,367,,,,,,,,
623.0999999,arrowright,psychophysics,133,176755,0.0-3.0-0.64,,key,arrowright,16.666,611,367,65,3,1,30,15,25,35,TRUE
null,null,psychophysics,134,177762,0.0-3.0-1.64,,key,null,16.666,611,367,,,,,,,,
776.3999999,arrowleft,psychophysics,135,178542,0.0-3.0-0.65,,key,arrowleft,16.666,611,367,66,3,-1,20,15,25,35,TRUE
null,null,psychophysics,136,179546,0.0-3.0-1.65,,key,null,16.666,611,367,,,,,,,,
813.3000002,arrowright,psychophysics,137,180364,0.0-3.0-0.66,,key,arrowright,16.666,611,367,67,3,1,27,15,25,35,TRUE
null,null,psychophysics,138,181370,0.0-3.0-1.66,,key,null,16.666,611,367,,,,,,,,
558.2,arrowleft,psychophysics,139,181934,0.0-3.0-0.67,,key,arrowleft,16.666,611,367,68,3,-1,30,35,25,35,TRUE
null,null,psychophysics,140,182938,0.0-3.0-1.67,,key,null,16.666,611,367,,,,,,,,
562.7,arrowright,psychophysics,141,183507,0.0-3.0-0.68,,key,arrowright,16.666,611,367,69,3,-1,20,35,25,35,FALSE
null,null,psychophysics,142,184512,0.0-3.0-1.68,,key,null,16.69313559,611,367,,,,,,,,
963.9000001,arrowleft,psychophysics,143,185480,0.0-3.0-0.69,,key,arrowleft,16.666,611,367,70,3,-1,26,15,25,35,TRUE
null,null,psychophysics,144,186487,0.0-3.0-1.69,,key,null,16.666,611,367,,,,,,,,
623.7,arrowright,psychophysics,145,187115,0.0-3.0-0.70,,key,arrowright,16.666,611,367,71,3,1,26,15,25,35,TRUE
null,null,psychophysics,146,188121,0.0-3.0-1.70,,key,null,16.666,611,367,,,,,,,,
692.9000001,arrowright,psychophysics,147,188820,0.0-3.0-0.71,,key,arrowright,16.666,611,367,72,3,1,26,15,25,35,TRUE
null,null,psychophysics,148,189821,0.0-3.0-1.71,,key,null,16.666,611,367,,,,,,,,
946.8,arrowright,psychophysics,149,190774,0.0-3.0-0.72,,key,arrowright,16.666,611,367,73,3,-1,23,35,25,35,FALSE
null,null,psychophysics,150,191779,0.0-3.0-1.72,,key,null,16.666,611,367,,,,,,,,
1177.6,arrowright,psychophysics,151,192960,0.0-3.0-0.73,,key,arrowright,16.666,611,367,74,3,1,25,15,25,35,TRUE
null,null,psychophysics,152,193962,0.0-3.0-1.73,,key,null,16.666,611,367,,,,,,,,
554.8,arrowleft,psychophysics,153,194520,0.0-3.0-0.74,,key,arrowleft,16.666,611,367,75,3,1,20,35,25,35,FALSE
null,null,psychophysics,154,195523,0.0-3.0-1.74,,key,null,16.666,611,367,,,,,,,,
801.5999999,arrowright,psychophysics,155,196328,0.0-3.0-0.75,,key,arrowright,16.666,611,367,76,3,-1,23,35,25,35,FALSE
null,null,psychophysics,156,197329,0.0-3.0-1.75,,key,null,16.666,611,367,,,,,,,,
733,arrowleft,psychophysics,157,198067,0.0-3.0-0.76,,key,arrowleft,16.666,611,367,77,3,1,23,15,25,35,FALSE
null,null,psychophysics,158,199071,0.0-3.0-1.76,,key,null,16.666,611,367,,,,,,,,
885.5,arrowleft,psychophysics,159,199962,0.0-3.0-0.77,,key,arrowleft,16.666,611,367,78,3,1,26,15,25,35,FALSE
null,null,psychophysics,160,200965,0.0-3.0-1.77,,key,null,16.666,611,367,,,,,,,,
558.3,arrowleft,psychophysics,161,201528,0.0-3.0-0.78,,key,arrowleft,16.666,611,367,79,3,1,20,15,25,35,FALSE
null,null,psychophysics,162,202535,0.0-3.0-1.78,,key,null,16.666,611,367,,,,,,,,
918.0999999,arrowleft,psychophysics,163,203456,0.0-3.0-0.79,,key,arrowleft,16.666,611,367,80,3,-1,25,35,25,35,TRUE
null,null,psychophysics,164,204462,0.0-3.0-1.79,,key,null,16.69320339,611,367,,,,,,,,
614.5,arrowleft,psychophysics,165,205081,0.0-3.0-0.80,,key,arrowleft,16.666,611,367,81,3,-1,30,15,25,35,TRUE
null,null,psychophysics,166,206082,0.0-3.0-1.80,,key,null,16.666,611,367,,,,,,,,
793.6999998,arrowleft,psychophysics,167,206879,0.0-3.0-0.81,,key,arrowleft,16.666,611,367,82,3,1,23,35,25,35,FALSE
null,null,psychophysics,168,207886,0.0-3.0-1.81,,key,null,16.666,611,367,,,,,,,,
591.8999999,arrowright,psychophysics,169,208482,0.0-3.0-0.82,,key,arrowright,16.666,611,367,83,3,-1,20,15,25,35,FALSE
null,null,psychophysics,170,209488,0.0-3.0-1.82,,key,null,16.666,611,367,,,,,,,,
422.5,arrowleft,psychophysics,171,209917,0.0-3.0-0.83,,key,arrowleft,16.666,611,367,84,4,-1,30,35,25,35,TRUE
null,null,psychophysics,172,210921,0.0-3.0-1.83,,key,null,16.666,611,367,,,,,,,,
955.5999999,enter,html-keyboard-response,173,211884,0.0-3.0-2.83-0.83,"<div style=""color: white; text-align: center; vertical-align: top; display: inline-block; width: 800px; margin: auto""><p>You have completed 30% of the trials. You are on block 4 of 10. <br>Good job! Take a break if you need to.</p><p>Press any key to continue the experiment.</p></div>",,,,,,,,,,,,,
1154.1,arrowleft,psychophysics,174,214049,0.0-3.0-0.84,,key,arrowleft,16.666,611,367,85,4,1,23,35,25,35,FALSE
null,null,psychophysics,175,215055,0.0-3.0-1.84,,key,null,16.666,611,367,,,,,,,,
658.8,arrowright,psychophysics,176,215719,0.0-3.0-0.85,,key,arrowright,16.666,611,367,86,4,1,25,15,25,35,TRUE
null,null,psychophysics,177,216722,0.0-3.0-1.85,,key,null,16.666,611,367,,,,,,,,
524.5,arrowleft,psychophysics,178,217250,0.0-3.0-0.86,,key,arrowleft,16.666,611,367,87,4,-1,30,35,25,35,TRUE
null,null,psychophysics,179,218254,0.0-3.0-1.86,,key,null,16.666,611,367,,,,,,,,
482.1000001,arrowright,psychophysics,180,218742,0.0-3.0-0.87,,key,arrowright,16.666,611,367,88,4,-1,24,35,25,35,FALSE
null,null,psychophysics,181,219746,0.0-3.0-1.87,,key,null,16.666,611,367,,,,,,,,
616,arrowright,psychophysics,182,220366,0.0-3.0-0.88,,key,arrowright,16.666,611,367,89,4,1,30,35,25,35,TRUE
null,null,psychophysics,183,221371,0.0-3.0-1.88,,key,null,16.666,611,367,,,,,,,,
646.5999999,arrowleft,psychophysics,184,222024,0.0-3.0-0.89,,key,arrowleft,16.666,611,367,90,4,1,20,35,25,35,FALSE
null,null,psychophysics,185,223029,0.0-3.0-1.89,,key,null,16.666,611,367,,,,,,,,
664.0999999,arrowright,psychophysics,186,223698,0.0-3.0-0.90,,key,arrowright,16.70707692,611,367,91,4,-1,23,35,25,35,FALSE
null,null,psychophysics,187,224700,0.0-3.0-1.90,,key,null,16.666,611,367,,,,,,,,
714.5,arrowleft,psychophysics,188,225418,0.0-3.0-0.91,,key,arrowleft,16.666,611,367,92,4,-1,26,15,25,35,TRUE
null,null,psychophysics,189,226421,0.0-3.0-1.91,,key,null,16.666,611,367,,,,,,,,
882.7,arrowleft,psychophysics,190,227310,0.0-3.0-0.92,,key,arrowleft,16.666,611,367,93,4,-1,25,15,25,35,TRUE
null,null,psychophysics,191,228313,0.0-3.0-1.92,,key,null,16.666,611,367,,,,,,,,
529.3999999,arrowleft,psychophysics,192,228846,0.0-3.0-0.93,,key,arrowleft,16.666,611,367,94,4,-1,30,35,25,35,TRUE
null,null,psychophysics,193,229849,0.0-3.0-1.93,,key,null,16.666,611,367,,,,,,,,
643.8999999,arrowright,psychophysics,194,230497,0.0-3.0-0.94,,key,arrowright,16.666,611,367,95,4,-1,24,35,25,35,FALSE
null,null,psychophysics,195,231504,0.0-3.0-1.94,,key,null,16.666,611,367,,,,,,,,
502.2,arrowleft,psychophysics,196,232013,0.0-3.0-0.95,,key,arrowleft,16.666,611,367,96,4,-1,26,35,25,35,TRUE
null,null,psychophysics,197,233019,0.0-3.0-1.95,,key,null,16.666,611,367,,,,,,,,
591.3000002,arrowleft,psychophysics,198,233614,0.0-3.0-0.96,,key,arrowleft,16.666,611,367,97,4,-1,25,15,25,35,TRUE
null,null,psychophysics,199,234621,0.0-3.0-1.96,,key,null,16.666,611,367,,,,,,,,
1388.6,arrowleft,psychophysics,200,236015,0.0-3.0-0.97,,key,arrowleft,16.666,611,367,98,4,1,23,35,25,35,FALSE
null,null,psychophysics,201,237019,0.0-3.0-1.97,,key,null,16.666,611,367,,,,,,,,
558.6999998,arrowright,psychophysics,202,237582,0.0-3.0-0.98,,key,arrowright,16.666,611,367,99,4,1,25,15,25,35,TRUE
null,null,psychophysics,203,238588,0.0-3.0-1.98,,key,null,16.666,611,367,,,,,,,,
1100.5,arrowright,psychophysics,204,239697,0.0-3.0-0.99,,key,arrowright,16.666,611,367,100,4,-1,20,15,25,35,FALSE
null,null,psychophysics,205,240698,0.0-3.0-1.99,,key,null,16.666,611,367,,,,,,,,
511.2,arrowleft,psychophysics,206,241214,0.0-3.0-0.100,,key,arrowleft,16.666,611,367,101,4,-1,30,15,25,35,TRUE
null,null,psychophysics,207,242221,0.0-3.0-1.100,,key,null,16.666,611,367,,,,,,,,
897.3,arrowleft,psychophysics,208,243123,0.0-3.0-0.101,,key,arrowleft,16.666,611,367,102,4,1,25,35,25,35,FALSE
null,null,psychophysics,209,244129,0.0-3.0-1.101,,key,null,16.69316949,611,367,,,,,,,,
986.8,arrowright,psychophysics,210,245120,0.0-3.0-0.102,,key,arrowright,16.666,611,367,103,4,-1,25,15,25,35,FALSE
null,null,psychophysics,211,246123,0.0-3.0-1.102,,key,null,16.666,611,367,,,,,,,,
929.2,arrowleft,psychophysics,212,247057,0.0-3.0-0.103,,key,arrowleft,16.666,611,367,104,4,1,20,35,25,35,FALSE
null,null,psychophysics,213,248063,0.0-3.0-1.103,,key,null,16.666,611,367,,,,,,,,
558.1000001,arrowleft,psychophysics,214,248625,0.0-3.0-0.104,,key,arrowleft,16.666,611,367,105,4,-1,30,35,25,35,TRUE
null,null,psychophysics,215,249629,0.0-3.0-1.104,,key,null,16.666,611,367,,,,,,,,
658.3999999,arrowright,psychophysics,216,250290,0.0-3.0-0.105,,key,arrowright,16.666,611,367,106,4,1,27,35,25,35,TRUE
null,null,psychophysics,217,251296,0.0-3.0-1.105,,key,null,16.666,611,367,,,,,,,,
988.5,arrowright,psychophysics,218,252288,0.0-3.0-0.106,,key,arrowright,16.666,611,367,107,4,-1,20,35,25,35,FALSE
null,null,psychophysics,219,253295,0.0-3.0-1.106,,key,null,16.666,611,367,,,,,,,,
565.3000002,arrowleft,psychophysics,220,253865,0.0-3.0-0.107,,key,arrowleft,16.666,611,367,108,4,1,20,15,25,35,FALSE
null,null,psychophysics,221,254872,0.0-3.0-1.107,,key,null,16.666,611,367,,,,,,,,
634.3,arrowright,psychophysics,222,255512,0.0-3.0-0.108,,key,arrowright,16.666,611,367,109,4,1,25,35,25,35,TRUE
null,null,psychophysics,223,256514,0.0-3.0-1.108,,key,null,16.666,611,367,,,,,,,,
765.0999999,arrowleft,psychophysics,224,257283,0.0-3.0-0.109,,key,arrowleft,16.666,611,367,110,4,-1,24,15,25,35,TRUE
null,null,psychophysics,225,258288,0.0-3.0-1.109,,key,null,16.666,611,367,,,,,,,,
705.9000001,arrowright,psychophysics,226,259000,0.0-3.0-0.110,,key,arrowright,16.666,611,367,111,4,1,27,15,25,35,TRUE
null,null,psychophysics,227,260005,0.0-3.0-1.110,,key,null,16.666,611,367,,,,,,,,
611.5,arrowright,psychophysics,228,260622,0.0-3.0-0.111,,key,arrowright,16.666,611,367,112,5,1,30,35,25,35,TRUE
null,null,psychophysics,229,261624,0.0-3.0-1.111,,key,null,16.666,611,367,,,,,,,,
2566.8,enter,html-keyboard-response,230,264197,0.0-3.0-2.111-0.111,"<div style=""color: white; text-align: center; vertical-align: top; display: inline-block; width: 800px; margin: auto""><p>You have completed 40% of the trials. You are on block 5 of 10. <br>Good job! Take a break if you need to.</p><p>Press any key to continue the experiment.</p></div>",,,,,,,,,,,,,
1612.4,arrowleft,psychophysics,231,266821,0.0-3.0-0.112,,key,arrowleft,16.666,611,367,113,5,-1,25,35,25,35,TRUE
null,null,psychophysics,232,267824,0.0-3.0-1.112,,key,null,16.666,611,367,,,,,,,,
710.2,arrowright,psychophysics,233,268538,0.0-3.0-0.113,,key,arrowright,16.666,611,367,114,5,1,27,15,25,35,TRUE
null,null,psychophysics,234,269544,0.0-3.0-1.113,,key,null,16.666,611,367,,,,,,,,
701.6000001,arrowright,psychophysics,235,270248,0.0-3.0-0.114,,key,arrowright,16.666,611,367,115,5,-1,26,35,25,35,FALSE
null,null,psychophysics,236,271254,0.0-3.0-1.114,,key,null,16.666,611,367,,,,,,,,
635.7,arrowright,psychophysics,237,271896,0.0-3.0-0.115,,key,arrowright,16.666,611,367,116,5,1,26,15,25,35,TRUE
null,null,psychophysics,238,272897,0.0-3.0-1.115,,key,null,16.666,611,367,,,,,,,,
935.2,arrowright,psychophysics,239,273837,0.0-3.0-0.116,,key,arrowright,16.666,611,367,117,5,1,26,35,25,35,TRUE
null,null,psychophysics,240,274839,0.0-3.0-1.116,,key,null,16.666,611,367,,,,,,,,
736.9000001,arrowleft,psychophysics,241,275579,0.0-3.0-0.117,,key,arrowleft,16.666,611,367,118,5,-1,26,35,25,35,TRUE
null,null,psychophysics,242,276582,0.0-3.0-1.117,,key,null,16.666,611,367,,,,,,,,
693.5,arrowright,psychophysics,243,277278,0.0-3.0-0.118,,key,arrowright,16.666,611,367,119,5,-1,26,35,25,35,FALSE
null,null,psychophysics,244,278279,0.0-3.0-1.118,,key,null,16.666,611,367,,,,,,,,
583,arrowright,psychophysics,245,278866,0.0-3.0-0.119,,key,arrowright,16.666,611,367,120,5,1,23,15,25,35,TRUE
null,null,psychophysics,246,279872,0.0-3.0-1.119,,key,null,16.666,611,367,,,,,,,,
645.3000002,arrowright,psychophysics,247,280523,0.0-3.0-0.120,,key,arrowright,16.666,611,367,121,5,1,26,35,25,35,TRUE
null,null,psychophysics,248,281530,0.0-3.0-1.120,,key,null,16.666,611,367,,,,,,,,
744.8999999,arrowleft,psychophysics,249,282279,0.0-3.0-0.121,,key,arrowleft,16.666,611,367,122,5,1,20,35,25,35,FALSE
null,null,psychophysics,250,283285,0.0-3.0-1.121,,key,null,16.666,611,367,,,,,,,,
533.2,arrowright,psychophysics,251,283828,0.0-3.0-0.122,,key,arrowright,16.666,611,367,123,5,1,24,15,25,35,TRUE
null,null,psychophysics,252,284830,0.0-3.0-1.122,,key,null,16.69655932,611,367,,,,,,,,
718.7,arrowright,psychophysics,253,285552,0.0-3.0-0.123,,key,arrowright,16.666,611,367,124,5,1,24,15,25,35,TRUE
null,null,psychophysics,254,286555,0.0-3.0-1.123,,key,null,16.666,611,367,,,,,,,,
670.1999998,arrowleft,psychophysics,255,287231,0.0-3.0-0.124,,key,arrowleft,16.666,611,367,125,5,1,20,15,25,35,FALSE
null,null,psychophysics,256,288233,0.0-3.0-1.124,,key,null,16.666,611,367,,,,,,,,
826.2,arrowright,psychophysics,257,289064,0.0-3.0-0.125,,key,arrowright,16.666,611,367,126,5,1,25,35,25,35,TRUE
null,null,psychophysics,258,290071,0.0-3.0-1.125,,key,null,16.666,611,367,,,,,,,,
831.4000001,arrowright,psychophysics,259,290908,0.0-3.0-0.126,,key,arrowright,16.666,611,367,127,5,1,24,35,25,35,TRUE
null,null,psychophysics,260,291913,0.0-3.0-1.126,,key,null,16.666,611,367,,,,,,,,
663,arrowright,psychophysics,261,292580,0.0-3.0-0.127,,key,arrowright,16.666,611,367,128,5,-1,20,15,25,35,FALSE
null,null,psychophysics,262,293587,0.0-3.0-1.127,,key,null,16.666,611,367,,,,,,,,
803.2,arrowright,psychophysics,263,294396,0.0-3.0-0.128,,key,arrowright,16.666,611,367,129,5,-1,20,15,25,35,FALSE
null,null,psychophysics,264,295402,0.0-3.0-1.128,,key,null,16.666,611,367,,,,,,,,
644.2,arrowright,psychophysics,265,296051,0.0-3.0-0.129,,key,arrowright,16.666,611,367,130,5,1,30,35,25,35,TRUE
null,null,psychophysics,266,297055,0.0-3.0-1.129,,key,null,16.666,611,367,,,,,,,,
1204.6,arrowright,psychophysics,267,298265,0.0-3.0-0.130,,key,arrowright,16.666,611,367,131,5,1,27,35,25,35,TRUE
null,null,psychophysics,268,299271,0.0-3.0-1.130,,key,null,16.666,611,367,,,,,,,,
705.6000001,arrowright,psychophysics,269,299983,0.0-3.0-0.131,,key,arrowright,16.666,611,367,132,5,1,26,35,25,35,TRUE
null,null,psychophysics,270,300988,0.0-3.0-1.131,,key,null,16.666,611,367,,,,,,,,
880.6000001,arrowleft,psychophysics,271,301874,0.0-3.0-0.132,,key,arrowleft,16.666,611,367,133,5,1,20,35,25,35,FALSE
null,null,psychophysics,272,302880,0.0-3.0-1.132,,key,null,16.666,611,367,,,,,,,,
503.8999999,arrowright,psychophysics,273,303388,0.0-3.0-0.133,,key,arrowright,16.666,611,367,134,5,-1,23,15,25,35,FALSE
null,null,psychophysics,274,304391,0.0-3.0-1.133,,key,null,16.6927,611,367,,,,,,,,
852.8999999,arrowleft,psychophysics,275,305248,0.0-3.0-0.134,,key,arrowleft,16.666,611,367,135,5,1,23,35,25,35,FALSE
null,null,psychophysics,276,306254,0.0-3.0-1.134,,key,null,16.666,611,367,,,,,,,,
606,arrowleft,psychophysics,277,306865,0.0-3.0-0.135,,key,arrowleft,16.666,611,367,136,5,-1,27,35,25,35,TRUE
null,null,psychophysics,278,307871,0.0-3.0-1.135,,key,null,16.666,611,367,,,,,,,,
1192.9,arrowleft,psychophysics,279,309070,0.0-3.0-0.136,,key,arrowleft,16.666,611,367,137,5,1,24,35,25,35,FALSE
null,null,psychophysics,280,310072,0.0-3.0-1.136,,key,null,16.666,611,367,,,,,,,,
486.5999999,arrowleft,psychophysics,281,310564,0.0-3.0-0.137,,key,arrowleft,16.666,611,367,138,5,-1,30,15,25,35,TRUE
null,null,psychophysics,282,311571,0.0-3.0-1.137,,key,null,16.666,611,367,,,,,,,,
522.5,arrowright,psychophysics,283,312099,0.0-3.0-0.138,,key,arrowright,16.666,611,367,139,5,1,30,15,25,35,TRUE
null,null,psychophysics,284,313105,0.0-3.0-1.138,,key,null,16.666,611,367,,,,,,,,
603.3999999,arrowright,psychophysics,285,313714,0.0-3.0-0.139,,key,arrowright,16.666,611,367,140,6,1,30,15,25,35,TRUE
null,null,psychophysics,286,314722,0.0-3.0-1.139,,key,null,16.666,611,367,,,,,,,,
1103,enter,html-keyboard-response,287,315827,0.0-3.0-2.139-0.139,"<div style=""color: white; text-align: center; vertical-align: top; display: inline-block; width: 800px; margin: auto""><p>You have completed 50% of the trials. You are on block 6 of 10. <br>Good job! Take a break if you need to.</p><p>Press any key to continue the experiment.</p></div>",,,,,,,,,,,,,
775.5,arrowleft,psychophysics,288,317614,0.0-3.0-0.140,,key,arrowleft,16.666,611,367,141,6,1,24,35,25,35,FALSE
null,null,psychophysics,289,318621,0.0-3.0-1.140,,key,null,16.666,611,367,,,,,,,,
464.2,arrowright,psychophysics,290,319090,0.0-3.0-0.141,,key,arrowright,16.666,611,367,142,6,1,30,15,25,35,TRUE
null,null,psychophysics,291,320096,0.0-3.0-1.141,,key,null,16.666,611,367,,,,,,,,
660.8999999,arrowright,psychophysics,292,320762,0.0-3.0-0.142,,key,arrowright,16.666,611,367,143,6,-1,23,35,25,35,FALSE
null,null,psychophysics,293,321763,0.0-3.0-1.142,,key,null,16.666,611,367,,,,,,,,
540.8,arrowleft,psychophysics,294,322307,0.0-3.0-0.143,,key,arrowleft,16.666,611,367,144,6,1,23,15,25,35,FALSE
null,null,psychophysics,295,323317,0.0-3.0-1.143,,key,null,16.666,611,367,,,,,,,,
546.3999999,arrowright,psychophysics,296,323866,0.0-3.0-0.144,,key,arrowright,16.666,611,367,145,6,1,27,15,25,35,TRUE
null,null,psychophysics,297,324872,0.0-3.0-1.144,,key,null,16.69316949,611,367,,,,,,,,
773.5,arrowright,psychophysics,298,325649,0.0-3.0-0.145,,key,arrowright,16.666,611,367,146,6,1,27,15,25,35,TRUE
null,null,psychophysics,299,326655,0.0-3.0-1.145,,key,null,16.666,611,367,,,,,,,,
570,arrowright,psychophysics,300,327232,0.0-3.0-0.146,,key,arrowright,16.666,611,367,147,6,-1,20,15,25,35,FALSE
null,null,psychophysics,301,328238,0.0-3.0-1.146,,key,null,16.666,611,367,,,,,,,,
683.3,arrowright,psychophysics,302,328928,0.0-3.0-0.147,,key,arrowright,16.666,611,367,148,6,-1,20,35,25,35,FALSE
null,null,psychophysics,303,329929,0.0-3.0-1.147,,key,null,16.666,611,367,,,,,,,,
1049.1,arrowright,psychophysics,304,330981,0.0-3.0-0.148,,key,arrowright,16.666,611,367,149,6,-1,23,15,25,35,FALSE
null,null,psychophysics,305,331987,0.0-3.0-1.148,,key,null,16.666,611,367,,,,,,,,
644.3000002,arrowright,psychophysics,306,332638,0.0-3.0-0.149,,key,arrowright,16.666,611,367,150,6,1,25,15,25,35,TRUE
null,null,psychophysics,307,333640,0.0-3.0-1.149,,key,null,16.666,611,367,,,,,,,,
644,arrowright,psychophysics,308,334288,0.0-3.0-0.150,,key,arrowright,16.666,611,367,151,6,1,26,15,25,35,TRUE
null,null,psychophysics,309,335290,0.0-3.0-1.150,,key,null,16.666,611,367,,,,,,,,
719.9000001,arrowleft,psychophysics,310,336014,0.0-3.0-0.151,,key,arrowleft,16.666,611,367,152,6,-1,27,35,25,35,TRUE
null,null,psychophysics,311,337020,0.0-3.0-1.151,,key,null,16.666,611,367,,,,,,,,
689.8,arrowright,psychophysics,312,337716,0.0-3.0-0.152,,key,arrowright,16.666,611,367,153,6,-1,23,35,25,35,FALSE
null,null,psychophysics,313,338722,0.0-3.0-1.152,,key,null,16.666,611,367,,,,,,,,
595.5,arrowright,psychophysics,314,339324,0.0-3.0-0.153,,key,arrowright,16.666,611,367,154,6,1,26,15,25,35,TRUE
null,null,psychophysics,315,340330,0.0-3.0-1.153,,key,null,16.666,611,367,,,,,,,,
481.8,arrowright,psychophysics,316,340815,0.0-3.0-0.154,,key,arrowright,16.666,611,367,155,6,1,26,15,25,35,TRUE
null,null,psychophysics,317,341821,0.0-3.0-1.154,,key,null,16.666,611,367,,,,,,,,
405.6000001,arrowright,psychophysics,318,342233,0.0-3.0-0.155,,key,arrowright,16.666,611,367,156,6,-1,23,35,25,35,FALSE
null,null,psychophysics,319,343238,0.0-3.0-1.155,,key,null,16.666,611,367,,,,,,,,
612.8999999,arrowright,psychophysics,320,343857,0.0-3.0-0.156,,key,arrowright,16.666,611,367,157,6,-1,24,15,25,35,FALSE
null,null,psychophysics,321,344862,0.0-3.0-1.156,,key,null,16.69363793,611,367,,,,,,,,
521.1999998,arrowleft,psychophysics,322,345386,0.0-3.0-0.157,,key,arrowleft,16.666,611,367,158,6,-1,27,15,25,35,TRUE
null,null,psychophysics,323,346389,0.0-3.0-1.157,,key,null,16.666,611,367,,,,,,,,
586,arrowright,psychophysics,324,346981,0.0-3.0-0.158,,key,arrowright,16.666,611,367,159,6,1,30,35,25,35,TRUE
null,null,psychophysics,325,347988,0.0-3.0-1.158,,key,null,16.666,611,367,,,,,,,,
509.1999998,arrowright,psychophysics,326,348503,0.0-3.0-0.159,,key,arrowright,16.666,611,367,160,6,1,30,15,25,35,TRUE
null,null,psychophysics,327,349505,0.0-3.0-1.159,,key,null,16.666,611,367,,,,,,,,
636.3,arrowleft,psychophysics,328,350148,0.0-3.0-0.160,,key,arrowleft,16.666,611,367,161,6,1,23,15,25,35,FALSE
null,null,psychophysics,329,351154,0.0-3.0-1.160,,key,null,16.666,611,367,,,,,,,,
558.5999999,arrowright,psychophysics,330,351719,0.0-3.0-0.161,,key,arrowright,16.666,611,367,162,6,-1,24,35,25,35,FALSE
null,null,psychophysics,331,352722,0.0-3.0-1.161,,key,null,16.666,611,367,,,,,,,,
951,arrowright,psychophysics,332,353679,0.0-3.0-0.162,,key,arrowright,16.666,611,367,163,6,1,25,35,25,35,TRUE
null,null,psychophysics,333,354682,0.0-3.0-1.162,,key,null,16.666,611,367,,,,,,,,
826.4000001,arrowright,psychophysics,334,355512,0.0-3.0-0.163,,key,arrowright,16.666,611,367,164,6,1,25,15,25,35,TRUE
null,null,psychophysics,335,356518,0.0-3.0-1.163,,key,null,16.666,611,367,,,,,,,,
849.3,arrowright,psychophysics,336,357372,0.0-3.0-0.164,,key,arrowright,16.666,611,367,165,6,1,25,35,25,35,TRUE
null,null,psychophysics,337,358374,0.0-3.0-1.164,,key,null,16.666,611,367,,,,,,,,
858.3,arrowright,psychophysics,338,359236,0.0-3.0-0.165,,key,arrowright,16.666,611,367,166,6,-1,24,15,25,35,FALSE
null,null,psychophysics,339,360239,0.0-3.0-1.165,,key,null,16.666,611,367,,,,,,,,
789.7,arrowleft,psychophysics,340,361032,0.0-3.0-0.166,,key,arrowleft,16.666,611,367,167,6,-1,27,15,25,35,TRUE
null,null,psychophysics,341,362038,0.0-3.0-1.166,,key,null,16.666,611,367,,,,,,,,
767.0999999,arrowleft,psychophysics,342,362807,0.0-3.0-0.167,,key,arrowleft,16.666,611,367,168,7,-1,24,15,25,35,TRUE
null,null,psychophysics,343,363813,0.0-3.0-1.167,,key,null,16.666,611,367,,,,,,,,
999.4000001,enter,html-keyboard-response,344,364815,0.0-3.0-2.167-0.167,"<div style=""color: white; text-align: center; vertical-align: top; display: inline-block; width: 800px; margin: auto""><p>You have completed 60% of the trials. You are on block 7 of 10. <br>Good job! Take a break if you need to.</p><p>Press any key to continue the experiment.</p></div>",,,,,,,,,,,,,
1136.4,arrowleft,psychophysics,345,366964,0.0-3.0-0.168,,key,arrowleft,16.666,611,367,169,7,1,27,35,25,35,FALSE
null,null,psychophysics,346,367970,0.0-3.0-1.168,,key,null,16.666,611,367,,,,,,,,
590.5,arrowright,psychophysics,347,368565,0.0-3.0-0.169,,key,arrowright,16.666,611,367,170,7,1,27,35,25,35,TRUE
null,null,psychophysics,348,369571,0.0-3.0-1.169,,key,null,16.666,611,367,,,,,,,,
604.8,arrowleft,psychophysics,349,370182,0.0-3.0-0.170,,key,arrowleft,16.666,611,367,171,7,-1,25,15,25,35,TRUE
null,null,psychophysics,350,371188,0.0-3.0-1.170,,key,null,16.666,611,367,,,,,,,,
1668.8,arrowleft,psychophysics,351,372863,0.0-3.0-0.171,,key,arrowleft,16.666,611,367,172,7,-1,24,35,25,35,TRUE
null,null,psychophysics,352,373869,0.0-3.0-1.171,,key,null,16.666,611,367,,,,,,,,
1182.3,arrowright,psychophysics,353,375056,0.0-3.0-0.172,,key,arrowright,16.666,611,367,173,7,-1,24,35,25,35,FALSE
null,null,psychophysics,354,376057,0.0-3.0-1.172,,key,null,16.666,611,367,,,,,,,,
776.2,arrowright,psychophysics,355,376837,0.0-3.0-0.173,,key,arrowright,16.666,611,367,174,7,-1,20,35,25,35,FALSE
null,null,psychophysics,356,377839,0.0-3.0-1.173,,key,null,16.666,611,367,,,,,,,,
1006.1,arrowright,psychophysics,357,378850,0.0-3.0-0.174,,key,arrowright,16.666,611,367,175,7,1,23,15,25,35,TRUE
null,null,psychophysics,358,379855,0.0-3.0-1.174,,key,null,16.666,611,367,,,,,,,,
743.8999999,arrowleft,psychophysics,359,380605,0.0-3.0-0.175,,key,arrowleft,16.666,611,367,176,7,-1,27,35,25,35,TRUE
null,null,psychophysics,360,381611,0.0-3.0-1.175,,key,null,16.666,611,367,,,,,,,,
1449.9,arrowright,psychophysics,361,383064,0.0-3.0-0.176,,key,arrowright,16.666,611,367,177,7,1,26,15,25,35,TRUE
null,null,psychophysics,362,384070,0.0-3.0-1.176,,key,null,16.666,611,367,,,,,,,,
836.6000001,arrowright,psychophysics,363,384913,0.0-3.0-0.177,,key,arrowright,16.6996,611,367,178,7,1,27,35,25,35,TRUE
null,null,psychophysics,364,385918,0.0-3.0-1.177,,key,null,16.666,611,367,,,,,,,,
750.8,arrowright,psychophysics,365,386673,0.0-3.0-0.178,,key,arrowright,16.666,611,367,179,7,-1,23,15,25,35,FALSE
null,null,psychophysics,366,387680,0.0-3.0-1.178,,key,null,16.666,611,367,,,,,,,,
600.5,arrowleft,psychophysics,367,388284,0.0-3.0-0.179,,key,arrowleft,16.666,611,367,180,7,-1,26,15,25,35,TRUE
null,null,psychophysics,368,389289,0.0-3.0-1.179,,key,null,16.666,611,367,,,,,,,,
824.2,arrowright,psychophysics,369,390119,0.0-3.0-0.180,,key,arrowright,16.666,611,367,181,7,1,26,15,25,35,TRUE
null,null,psychophysics,370,391122,0.0-3.0-1.180,,key,null,16.666,611,367,,,,,,,,
520.2,arrowleft,psychophysics,371,391648,0.0-3.0-0.181,,key,arrowleft,16.666,611,367,182,7,-1,26,15,25,35,TRUE
null,null,psychophysics,372,392650,0.0-3.0-1.181,,key,null,16.666,611,367,,,,,,,,
527.1000001,arrowleft,psychophysics,373,393181,0.0-3.0-0.182,,key,arrowleft,16.666,611,367,183,7,-1,20,15,25,35,TRUE
null,null,psychophysics,374,394188,0.0-3.0-1.182,,key,null,16.666,611,367,,,,,,,,
601,arrowleft,psychophysics,375,394795,0.0-3.0-0.183,,key,arrowleft,16.666,611,367,184,7,1,20,35,25,35,FALSE
null,null,psychophysics,376,395800,0.0-3.0-1.183,,key,null,16.666,611,367,,,,,,,,
641.5,arrowright,psychophysics,377,396446,0.0-3.0-0.184,,key,arrowright,16.666,611,367,185,7,1,30,15,25,35,TRUE
null,null,psychophysics,378,397453,0.0-3.0-1.184,,key,null,16.666,611,367,,,,,,,,
743.4000001,arrowleft,psychophysics,379,398200,0.0-3.0-0.185,,key,arrowleft,16.666,611,367,186,7,-1,26,15,25,35,TRUE
null,null,psychophysics,380,399205,0.0-3.0-1.185,,key,null,16.666,611,367,,,,,,,,
3318.6,arrowright,psychophysics,381,402530,0.0-3.0-0.186,,key,arrowright,16.666,611,367,187,7,-1,25,35,25,35,FALSE
null,null,psychophysics,382,403537,0.0-3.0-1.186,,key,null,16.666,611,367,,,,,,,,
1173.8,arrowright,psychophysics,383,404716,0.0-3.0-0.187,,key,arrowright,16.666,611,367,188,7,1,24,15,25,35,TRUE
null,null,psychophysics,384,405722,0.0-3.0-1.187,,key,null,16.98098276,611,367,,,,,,,,
660.8,arrowright,psychophysics,385,406389,0.0-3.0-0.188,,key,arrowright,16.666,611,367,189,7,1,24,15,25,35,TRUE
null,null,psychophysics,386,407391,0.0-3.0-1.188,,key,null,16.666,611,367,,,,,,,,
514.5,arrowright,psychophysics,387,407909,0.0-3.0-0.189,,key,arrowright,16.666,611,367,190,7,1,27,15,25,35,TRUE
null,null,psychophysics,388,408913,0.0-3.0-1.189,,key,null,16.666,611,367,,,,,,,,
764.7,arrowleft,psychophysics,389,409682,0.0-3.0-0.190,,key,arrowleft,16.666,611,367,191,7,1,23,35,25,35,FALSE
null,null,psychophysics,390,410688,0.0-3.0-1.190,,key,null,16.666,611,367,,,,,,,,
695.6000001,arrowright,psychophysics,391,411389,0.0-3.0-0.191,,key,arrowright,16.666,611,367,192,7,1,26,35,25,35,TRUE
null,null,psychophysics,392,412392,0.0-3.0-1.191,,key,null,16.666,611,367,,,,,,,,
1282.7,arrowleft,psychophysics,393,413678,0.0-3.0-0.192,,key,arrowleft,16.88821333,611,367,193,7,1,24,35,25,35,FALSE
null,null,psychophysics,394,414680,0.0-3.0-1.192,,key,null,16.666,611,367,,,,,,,,
663.7,arrowleft,psychophysics,395,415348,0.0-3.0-0.193,,key,arrowleft,16.666,611,367,194,7,1,23,35,25,35,FALSE
null,null,psychophysics,396,416355,0.0-3.0-1.193,,key,null,16.666,611,367,,,,,,,,
769.8,arrowright,psychophysics,397,417131,0.0-3.0-0.194,,key,arrowright,16.666,611,367,195,7,1,30,35,25,35,TRUE
null,null,psychophysics,398,418137,0.0-3.0-1.194,,key,null,16.666,611,367,,,,,,,,
881.7,arrowright,psychophysics,399,419025,0.0-3.0-0.195,,key,arrowright,16.666,611,367,196,8,1,24,15,25,35,TRUE
null,null,psychophysics,400,420030,0.0-3.0-1.195,,key,null,16.666,611,367,,,,,,,,
1097.6,enter,html-keyboard-response,401,421130,0.0-3.0-2.195-0.195,"<div style=""color: white; text-align: center; vertical-align: top; display: inline-block; width: 800px; margin: auto""><p>You have completed 70% of the trials. You are on block 8 of 10. <br>Good job! Take a break if you need to.</p><p>Press any key to continue the experiment.</p></div>",,,,,,,,,,,,,
795,arrowleft,psychophysics,402,422937,0.0-3.0-0.196,,key,arrowleft,16.666,611,367,197,8,-1,30,15,25,35,TRUE
null,null,psychophysics,403,423939,0.0-3.0-1.196,,key,null,16.666,611,367,,,,,,,,
553.2,arrowleft,psychophysics,404,424498,0.0-3.0-0.197,,key,arrowleft,16.666,611,367,198,8,-1,30,35,25,35,TRUE
null,null,psychophysics,405,425505,0.0-3.0-1.197,,key,null,16.69315254,611,367,,,,,,,,
618.4000001,arrowright,psychophysics,406,426131,0.0-3.0-0.198,,key,arrowright,16.666,611,367,199,8,1,25,35,25,35,TRUE
null,null,psychophysics,407,427138,0.0-3.0-1.198,,key,null,16.666,611,367,,,,,,,,
771.8999999,arrowright,psychophysics,408,427915,0.0-3.0-0.199,,key,arrowright,16.666,611,367,200,8,-1,23,35,25,35,FALSE
null,null,psychophysics,409,428920,0.0-3.0-1.199,,key,null,16.666,611,367,,,,,,,,
2270.9,arrowright,psychophysics,410,431195,0.0-3.0-0.200,,key,arrowright,16.666,611,367,201,8,-1,24,35,25,35,FALSE
null,null,psychophysics,411,432199,0.0-3.0-1.200,,key,null,16.666,611,367,,,,,,,,
664.5999999,arrowright,psychophysics,412,432867,0.0-3.0-0.201,,key,arrowright,16.666,611,367,202,8,-1,23,35,25,35,FALSE
null,null,psychophysics,413,433872,0.0-3.0-1.201,,key,null,16.666,611,367,,,,,,,,
2169.2,arrowright,psychophysics,414,436048,0.0-3.0-0.202,,key,arrowright,16.666,611,367,203,8,-1,24,35,25,35,FALSE
null,null,psychophysics,415,437054,0.0-3.0-1.202,,key,null,16.666,611,367,,,,,,,,
610.5,arrowleft,psychophysics,416,437668,0.0-3.0-0.203,,key,arrowleft,16.666,611,367,204,8,1,20,15,25,35,FALSE
null,null,psychophysics,417,438672,0.0-3.0-1.203,,key,null,16.666,611,367,,,,,,,,
719.5,arrowright,psychophysics,418,439398,0.0-3.0-0.204,,key,arrowright,16.666,611,367,205,8,1,25,15,25,35,TRUE
null,null,psychophysics,419,440405,0.0-3.0-1.204,,key,null,16.666,611,367,,,,,,,,
540.8000002,arrowright,psychophysics,420,440951,0.0-3.0-0.205,,key,arrowright,16.666,611,367,206,8,-1,20,35,25,35,FALSE
null,null,psychophysics,421,441956,0.0-3.0-1.205,,key,null,16.666,611,367,,,,,,,,
1051.6,arrowleft,psychophysics,422,443013,0.0-3.0-0.206,,key,arrowleft,16.666,611,367,207,8,-1,25,35,25,35,TRUE
null,null,psychophysics,423,444019,0.0-3.0-1.206,,key,null,16.666,611,367,,,,,,,,
541,arrowright,psychophysics,424,444567,0.0-3.0-0.207,,key,arrowright,16.666,611,367,208,8,1,26,35,25,35,TRUE
null,null,psychophysics,425,445572,0.0-3.0-1.207,,key,null,16.69316949,611,367,,,,,,,,
771.0999999,arrowleft,psychophysics,426,446349,0.0-3.0-0.208,,key,arrowleft,16.666,611,367,209,8,-1,25,15,25,35,TRUE
null,null,psychophysics,427,447356,0.0-3.0-1.208,,key,null,16.666,611,367,,,,,,,,
601.8,arrowright,psychophysics,428,447964,0.0-3.0-0.209,,key,arrowright,16.666,611,367,210,8,-1,24,35,25,35,FALSE
null,null,psychophysics,429,448970,0.0-3.0-1.209,,key,null,16.666,611,367,,,,,,,,
758.8000002,arrowright,psychophysics,430,449733,0.0-3.0-0.210,,key,arrowright,16.666,611,367,211,8,-1,26,35,25,35,FALSE
null,null,psychophysics,431,450739,0.0-3.0-1.210,,key,null,16.666,611,367,,,,,,,,
761.3,arrowleft,psychophysics,432,451506,0.0-3.0-0.211,,key,arrowleft,16.666,611,367,212,8,-1,30,15,25,35,TRUE
null,null,psychophysics,433,452509,0.0-3.0-1.211,,key,null,16.666,611,367,,,,,,,,
683.3999999,arrowright,psychophysics,434,453196,0.0-3.0-0.212,,key,arrowright,16.666,611,367,213,8,1,27,35,25,35,TRUE
null,null,psychophysics,435,454203,0.0-3.0-1.212,,key,null,16.666,611,367,,,,,,,,
1726.5,arrowright,psychophysics,436,455933,0.0-3.0-0.213,,key,arrowright,16.666,611,367,214,8,-1,26,35,25,35,FALSE
null,null,psychophysics,437,456939,0.0-3.0-1.213,,key,null,16.666,611,367,,,,,,,,
1012.3,arrowright,psychophysics,438,457957,0.0-3.0-0.214,,key,arrowright,16.666,611,367,215,8,1,25,15,25,35,TRUE
null,null,psychophysics,439,458964,0.0-3.0-1.214,,key,null,16.666,611,367,,,,,,,,
619.8,arrowright,psychophysics,440,459587,0.0-3.0-0.215,,key,arrowright,16.666,611,367,216,8,1,27,35,25,35,TRUE
null,null,psychophysics,441,460589,0.0-3.0-1.215,,key,null,16.666,611,367,,,,,,,,
930.0999999,arrowright,psychophysics,442,461524,0.0-3.0-0.216,,key,arrowright,16.96901818,611,367,217,8,1,26,35,25,35,TRUE
null,null,psychophysics,443,462530,0.0-3.0-1.216,,key,null,16.666,611,367,,,,,,,,
873.7,arrowright,psychophysics,444,463408,0.0-3.0-0.217,,key,arrowright,16.666,611,367,218,8,1,24,35,25,35,TRUE
null,null,psychophysics,445,464414,0.0-3.0-1.217,,key,null,16.666,611,367,,,,,,,,
773.8,arrowright,psychophysics,446,465192,0.0-3.0-0.218,,key,arrowright,16.70084783,611,367,219,8,1,25,15,25,35,TRUE
null,null,psychophysics,447,466197,0.0-3.0-1.218,,key,null,16.666,611,367,,,,,,,,
564.8,arrowright,psychophysics,448,466765,0.0-3.0-0.219,,key,arrowright,16.666,611,367,220,8,1,30,35,25,35,TRUE
null,null,psychophysics,449,467771,0.0-3.0-1.219,,key,null,16.666,611,367,,,,,,,,
440.0999999,arrowright,psychophysics,450,468215,0.0-3.0-0.220,,key,arrowright,16.666,611,367,221,8,1,24,35,25,35,TRUE
null,null,psychophysics,451,469220,0.0-3.0-1.220,,key,null,16.666,611,367,,,,,,,,
718.3,arrowright,psychophysics,452,469942,0.0-3.0-0.221,,key,arrowright,16.666,611,367,222,8,-1,26,35,25,35,FALSE
null,null,psychophysics,453,470947,0.0-3.0-1.221,,key,null,16.666,611,367,,,,,,,,
783.6000001,arrowleft,psychophysics,454,471735,0.0-3.0-0.222,,key,arrowleft,16.666,611,367,223,8,1,23,35,25,35,FALSE
null,null,psychophysics,455,472739,0.0-3.0-1.222,,key,null,16.666,611,367,,,,,,,,
636.5,arrowleft,psychophysics,456,473382,0.0-3.0-0.223,,key,arrowleft,16.666,611,367,224,9,1,23,35,25,35,FALSE
null,null,psychophysics,457,474388,0.0-3.0-1.223,,key,null,16.666,611,367,,,,,,,,
901.2,enter,html-keyboard-response,458,475292,0.0-3.0-2.223-0.223,"<div style=""color: white; text-align: center; vertical-align: top; display: inline-block; width: 800px; margin: auto""><p>You have completed 80% of the trials. You are on block 9 of 10. <br>Good job! Take a break if you need to.</p><p>Press any key to continue the experiment.</p></div>",,,,,,,,,,,,,
601.4000001,arrowright,psychophysics,459,476905,0.0-3.0-0.224,,key,arrowright,16.666,611,367,225,9,1,30,35,25,35,TRUE
null,null,psychophysics,460,477908,0.0-3.0-1.224,,key,null,16.666,611,367,,,,,,,,
489.9000001,arrowright,psychophysics,461,478401,0.0-3.0-0.225,,key,arrowright,16.666,611,367,226,9,1,30,15,25,35,TRUE
null,null,psychophysics,462,479406,0.0-3.0-1.225,,key,null,16.666,611,367,,,,,,,,
552.3,arrowleft,psychophysics,463,479965,0.0-3.0-0.226,,key,arrowleft,16.666,611,367,227,9,-1,30,35,25,35,TRUE
null,null,psychophysics,464,480968,0.0-3.0-1.226,,key,null,16.666,611,367,,,,,,,,
846.9000001,arrowleft,psychophysics,465,481819,0.0-3.0-0.227,,key,arrowleft,16.666,611,367,228,9,-1,26,15,25,35,TRUE
null,null,psychophysics,466,482822,0.0-3.0-1.227,,key,null,16.666,611,367,,,,,,,,
542.3000002,arrowright,psychophysics,467,483370,0.0-3.0-0.228,,key,arrowright,16.666,611,367,229,9,1,30,35,25,35,TRUE
null,null,psychophysics,468,484372,0.0-3.0-1.228,,key,null,16.666,611,367,,,,,,,,
865.3000002,arrowleft,psychophysics,469,485248,0.0-3.0-0.229,,key,arrowleft,16.666,611,367,230,9,-1,30,15,25,35,TRUE
null,null,psychophysics,470,486255,0.0-3.0-1.229,,key,null,16.666,611,367,,,,,,,,
613.6000001,arrowleft,psychophysics,471,486874,0.0-3.0-0.230,,key,arrowleft,16.666,611,367,231,9,-1,30,15,25,35,TRUE
null,null,psychophysics,472,487880,0.0-3.0-1.230,,key,null,16.666,611,367,,,,,,,,
699.4000001,arrowright,psychophysics,473,488584,0.0-3.0-0.231,,key,arrowright,16.666,611,367,232,9,1,23,15,25,35,TRUE
null,null,psychophysics,474,489589,0.0-3.0-1.231,,key,null,16.666,611,367,,,,,,,,
1085.2,arrowleft,psychophysics,475,490680,0.0-3.0-0.232,,key,arrowleft,16.666,611,367,233,9,1,20,35,25,35,FALSE
null,null,psychophysics,476,491684,0.0-3.0-1.232,,key,null,16.666,611,367,,,,,,,,
2752.3,arrowleft,psychophysics,477,494440,0.0-3.0-0.233,,key,arrowleft,16.666,611,367,234,9,-1,27,15,25,35,TRUE
null,null,psychophysics,478,495442,0.0-3.0-1.233,,key,null,16.69435593,611,367,,,,,,,,
653.5,arrowright,psychophysics,479,496099,0.0-3.0-0.234,,key,arrowright,16.666,611,367,235,9,1,24,15,25,35,TRUE
null,null,psychophysics,480,497105,0.0-3.0-1.234,,key,null,16.666,611,367,,,,,,,,
856.2,arrowleft,psychophysics,481,497968,0.0-3.0-0.235,,key,arrowleft,16.666,611,367,236,9,-1,27,35,25,35,TRUE
null,null,psychophysics,482,498980,0.0-3.0-1.235,,key,null,16.666,611,367,,,,,,,,
485.3999999,arrowright,psychophysics,483,499469,0.0-3.0-0.236,,key,arrowright,16.666,611,367,237,9,1,27,15,25,35,TRUE
null,null,psychophysics,484,500473,0.0-3.0-1.236,,key,null,16.666,611,367,,,,,,,,
586,arrowleft,psychophysics,485,501065,0.0-3.0-0.237,,key,arrowleft,16.666,611,367,238,9,-1,27,15,25,35,TRUE
null,null,psychophysics,486,502072,0.0-3.0-1.237,,key,null,16.666,611,367,,,,,,,,
790.4000001,arrowright,psychophysics,487,502871,0.0-3.0-0.238,,key,arrowright,16.666,611,367,239,9,1,23,15,25,35,TRUE
null,null,psychophysics,488,503873,0.0-3.0-1.238,,key,null,16.666,611,367,,,,,,,,
647,arrowleft,psychophysics,489,504526,0.0-3.0-0.239,,key,arrowleft,16.666,611,367,240,9,-1,24,15,25,35,TRUE
null,null,psychophysics,490,505530,0.0-3.0-1.239,,key,null,16.666,611,367,,,,,,,,
1563.7,arrowright,psychophysics,491,507097,0.0-3.0-0.240,,key,arrowright,16.666,611,367,241,9,-1,24,35,25,35,FALSE
null,null,psychophysics,492,508104,0.0-3.0-1.240,,key,null,16.666,611,367,,,,,,,,
703.1000001,arrowleft,psychophysics,493,508813,0.0-3.0-0.241,,key,arrowleft,16.666,611,367,242,9,-1,30,15,25,35,TRUE
null,null,psychophysics,494,509817,0.0-3.0-1.241,,key,null,16.666,611,367,,,,,,,,
4380.1,arrowright,psychophysics,495,514201,0.0-3.0-0.242,,key,arrowright,16.666,611,367,243,9,-1,23,15,25,35,FALSE
null,null,psychophysics,496,515206,0.0-3.0-1.242,,key,null,16.666,611,367,,,,,,,,
921.2,arrowright,psychophysics,497,516133,0.0-3.0-0.243,,key,arrowright,16.69516364,611,367,244,9,1,30,35,25,35,TRUE
null,null,psychophysics,498,517139,0.0-3.0-1.243,,key,null,16.666,611,367,,,,,,,,
936.9000001,arrowleft,psychophysics,499,518082,0.0-3.0-0.244,,key,arrowleft,16.666,611,367,245,9,-1,24,15,25,35,TRUE
null,null,psychophysics,500,519089,0.0-3.0-1.244,,key,null,16.666,611,367,,,,,,,,
655.0999999,arrowleft,psychophysics,501,519750,0.0-3.0-0.245,,key,arrowleft,16.666,611,367,246,9,-1,27,15,25,35,TRUE
null,null,psychophysics,502,520756,0.0-3.0-1.245,,key,null,16.666,611,367,,,,,,,,
988.9000001,arrowleft,psychophysics,503,521751,0.0-3.0-0.246,,key,arrowleft,16.666,611,367,247,9,-1,27,35,25,35,TRUE
null,null,psychophysics,504,522756,0.0-3.0-1.246,,key,null,16.666,611,367,,,,,,,,
854.1999998,arrowleft,psychophysics,505,523616,0.0-3.0-0.247,,key,arrowleft,16.666,611,367,248,9,-1,27,35,25,35,TRUE
null,null,psychophysics,506,524623,0.0-3.0-1.247,,key,null,16.666,611,367,,,,,,,,
786,arrowleft,psychophysics,507,525414,0.0-3.0-0.248,,key,arrowleft,16.666,611,367,249,9,-1,25,15,25,35,TRUE
null,null,psychophysics,508,526421,0.0-3.0-1.248,,key,null,16.666,611,367,,,,,,,,
1233.8,arrowleft,psychophysics,509,527658,0.0-3.0-0.249,,key,arrowleft,16.666,611,367,250,9,1,24,15,25,35,FALSE
null,null,psychophysics,510,528664,0.0-3.0-1.249,,key,null,16.666,611,367,,,,,,,,
615.3999999,arrowright,psychophysics,511,529283,0.0-3.0-0.250,,key,arrowright,16.666,611,367,251,9,1,26,15,25,35,TRUE
null,null,psychophysics,512,530289,0.0-3.0-1.250,,key,null,16.666,611,367,,,,,,,,
1306,arrowleft,psychophysics,513,531601,0.0-3.0-0.251,,key,arrowleft,16.666,611,367,252,10,-1,23,15,25,35,TRUE
null,null,psychophysics,514,532606,0.0-3.0-1.251,,key,null,16.666,611,367,,,,,,,,
89120.7,enter,html-keyboard-response,515,621726,0.0-3.0-2.251-0.251,"<div style=""color: white; text-align: center; vertical-align: top; display: inline-block; width: 800px; margin: auto""><p>You have completed 90% of the trials. You are on block 10 of 10. <br>Good job! Take a break if you need to.</p><p>Press any key to continue the experiment.</p></div>",,,,,,,,,,,,,
908,arrowleft,psychophysics,516,623645,0.0-3.0-0.252,,key,arrowleft,16.666,611,367,253,10,1,24,35,25,35,FALSE
null,null,psychophysics,517,624648,0.0-3.0-1.252,,key,null,16.666,611,367,,,,,,,,
924.7,arrowleft,psychophysics,518,625576,0.0-3.0-0.253,,key,arrowleft,16.666,611,367,254,10,1,20,15,25,35,FALSE
null,null,psychophysics,519,626581,0.0-3.0-1.253,,key,null,16.666,611,367,,,,,,,,
1515.1,arrowleft,psychophysics,520,628100,0.0-3.0-0.254,,key,arrowleft,16.666,611,367,255,10,1,20,15,25,35,FALSE
null,null,psychophysics,521,629106,0.0-3.0-1.254,,key,null,16.666,611,367,,,,,,,,
620.7,arrowleft,psychophysics,522,629733,0.0-3.0-0.255,,key,arrowleft,16.666,611,367,256,10,1,20,35,25,35,FALSE
null,null,psychophysics,523,630739,0.0-3.0-1.255,,key,null,16.666,611,367,,,,,,,,
711.4000001,arrowleft,psychophysics,524,631457,0.0-3.0-0.256,,key,arrowleft,16.666,611,367,257,10,-1,25,15,25,35,TRUE
null,null,psychophysics,525,632459,0.0-3.0-1.256,,key,null,16.666,611,367,,,,,,,,
1471.6,arrowright,psychophysics,526,633934,0.0-3.0-0.257,,key,arrowright,16.666,611,367,258,10,-1,23,35,25,35,FALSE
null,null,psychophysics,527,634940,0.0-3.0-1.257,,key,null,16.666,611,367,,,,,,,,
767.1000001,arrowleft,psychophysics,528,635713,0.0-3.0-0.258,,key,arrowleft,16.666,611,367,259,10,-1,23,15,25,35,TRUE
null,null,psychophysics,529,636714,0.0-3.0-1.258,,key,null,16.666,611,367,,,,,,,,
803,arrowright,psychophysics,530,637521,0.0-3.0-0.259,,key,arrowright,16.666,611,367,260,10,-1,20,35,25,35,FALSE
null,null,psychophysics,531,638523,0.0-3.0-1.259,,key,null,16.666,611,367,,,,,,,,
618.2,arrowleft,psychophysics,532,639147,0.0-3.0-0.260,,key,arrowleft,16.666,611,367,261,10,-1,26,15,25,35,TRUE
null,null,psychophysics,533,640149,0.0-3.0-1.260,,key,null,16.666,611,367,,,,,,,,
3844.1,arrowleft,psychophysics,534,643997,0.0-3.0-0.261,,key,arrowleft,16.6733087,611,367,262,10,-1,24,15,25,35,TRUE
null,null,psychophysics,535,645004,0.0-3.0-1.261,,key,null,16.666,611,367,,,,,,,,
6429.1,arrowleft,psychophysics,536,651437,0.0-3.0-0.262,,key,arrowleft,16.666,611,367,263,10,-1,27,15,25,35,TRUE
null,null,psychophysics,537,652440,0.0-3.0-1.262,,key,null,16.666,611,367,,,,,,,,
1368.3,arrowright,psychophysics,538,653814,0.0-3.0-0.263,,key,arrowright,16.666,611,367,264,10,-1,25,35,25,35,FALSE
null,null,psychophysics,539,654820,0.0-3.0-1.263,,key,null,16.666,611,367,,,,,,,,
1891.6,arrowright,psychophysics,540,656716,0.0-3.0-0.264,,key,arrowright,16.666,611,367,265,10,-1,24,35,25,35,FALSE
null,null,psychophysics,541,657723,0.0-3.0-1.264,,key,null,16.666,611,367,,,,,,,,
3641.9,arrowleft,psychophysics,542,661370,0.0-3.0-0.265,,key,arrowleft,16.666,611,367,266,10,1,25,35,25,35,FALSE
null,null,psychophysics,543,662373,0.0-3.0-1.265,,key,null,16.69316949,611,367,,,,,,,,
3822,arrowleft,psychophysics,544,666199,0.0-3.0-0.266,,key,arrowleft,16.666,611,367,267,10,-1,25,35,25,35,TRUE
null,null,psychophysics,545,667205,0.0-3.0-1.266,,key,null,16.666,611,367,,,,,,,,
3373,arrowleft,psychophysics,546,670584,0.0-3.0-0.267,,key,arrowleft,16.666,611,367,268,10,-1,30,15,25,35,TRUE
null,null,psychophysics,547,671590,0.0-3.0-1.267,,key,null,16.666,611,367,,,,,,,,
1154.8,arrowright,psychophysics,548,672751,0.0-3.0-0.268,,key,arrowright,16.666,611,367,269,10,1,24,15,25,35,TRUE
null,null,psychophysics,549,673756,0.0-3.0-1.268,,key,null,16.666,611,367,,,,,,,,
1211.1,arrowright,psychophysics,550,674973,0.0-3.0-0.269,,key,arrowright,16.666,611,367,270,10,-1,20,15,25,35,FALSE
null,null,psychophysics,551,675981,0.0-3.0-1.269,,key,null,16.666,611,367,,,,,,,,
5445.1,arrowleft,psychophysics,552,681428,0.0-3.0-0.270,,key,arrowleft,16.666,611,367,271,10,-1,25,35,25,35,TRUE
null,null,psychophysics,553,682431,0.0-3.0-1.270,,key,null,16.69315254,611,367,,,,,,,,
7882.6,arrowright,psychophysics,554,690316,0.0-3.0-0.271,,key,arrowright,16.666,611,367,272,10,1,30,15,25,35,TRUE
null,null,psychophysics,555,691322,0.0-3.0-1.271,,key,null,16.666,611,367,,,,,,,,
721.1000001,arrowright,psychophysics,556,692049,0.0-3.0-0.272,,key,arrowright,16.666,611,367,273,10,1,30,15,25,35,TRUE
null,null,psychophysics,557,693055,0.0-3.0-1.272,,key,null,16.666,611,367,,,,,,,,
4127.5,arrowright,psychophysics,558,697188,0.0-3.0-0.273,,key,arrowright,16.666,611,367,274,10,-1,20,15,25,35,FALSE
null,null,psychophysics,559,698191,0.0-3.0-1.273,,key,null,16.666,611,367,,,,,,,,
1454.2,arrowleft,psychophysics,560,699648,0.0-3.0-0.274,,key,arrowleft,16.666,611,367,275,10,1,20,35,25,35,FALSE
null,null,psychophysics,561,700655,0.0-3.0-1.274,,key,null,16.666,611,367,,,,,,,,
1345.9,arrowleft,psychophysics,562,702007,0.0-3.0-0.275,,key,arrowleft,16.6860375,611,367,276,10,-1,26,15,25,35,TRUE
null,null,psychophysics,563,703009,0.0-3.0-1.275,,key,null,16.666,611,367,,,,,,,,
4053.8,arrowright,psychophysics,564,707066,0.0-3.0-0.276,,key,arrowright,16.666,611,367,277,10,1,25,15,25,35,TRUE
null,null,psychophysics,565,708073,0.0-3.0-1.276,,key,null,16.666,611,367,,,,,,,,
2070.8,arrowleft,psychophysics,566,710149,0.0-3.0-0.277,,key,arrowleft,16.666,611,367,278,10,1,20,15,25,35,FALSE
null,null,psychophysics,567,711156,0.0-3.0-1.277,,key,null,16.666,611,367,,,,,,,,
8410.8,arrowright,psychophysics,568,719572,0.0-3.0-0.278,,key,arrowright,16.666,611,367,279,10,-1,25,35,25,35,FALSE
null,null,psychophysics,569,720575,0.0-3.0-1.278,,key,null,16.666,611,367,,,,,,,,
2604.5,arrowleft,psychophysics,570,723183,0.0-3.0-0.279,,key,arrowleft,16.67634194,611,367,280,11,-1,30,35,25,35,TRUE
null,null,psychophysics,571,724188,0.0-3.0-1.279,,key,null,16.666,611,367,,,,,,,,