rt,response,trial_type,trial_index,time_elapsed,internal_node_id,stimulus,response_type,key_press,avg_frame_time,center_x,center_y,trial,block,test_pos,test_inner_radius,test_outer_radius,ref_inner_radius,ref_outer_radius,test_bigger
38025.4,"{""p_id"":""5497"",""age"":""19"",""handedness"":""right"",""sex"":""female"",""other_sex"":""""}",survey-html-form,0,38029,0.0-0.0,,,,,,,,,,,,,,
9190.5, ,html-keyboard-response,1,47221,0.0-1.0,"<p style=""color: white"">Welcome to the Size Judgment Experiment. <br>There will be 10 blocks in this experiment. <br>There will be 28 trials in each block. <br>You will be given a chance to take a break between blocks. <br>Press any key to start the experiment.</p>",,,,,,,,,,,,,
14171.5, ,psychophysics,2,61436,0.0-2.0,,key, ,16.68274736,960,468.5,,,,,,,,
2194.2,arrowleft,psychophysics,3,63636,0.0-3.0-0.0,,key,arrowleft,16.66375573,960,468.5,1,1,-1,30,15,25,35,TRUE
null,null,psychophysics,4,64652,0.0-3.0-1.0,,key,null,16.66437705,960,468.5,,,,,,,,
1817.7,arrowright,psychophysics,5,66473,0.0-3.0-0.1,,key,arrowright,16.66328704,960,468.5,2,1,1,26,15,25,35,TRUE
null,null,psychophysics,6,67486,0.0-3.0-1.1,,key,null,16.6643,960,468.5,,,,,,,,
2578.8,arrowright,psychophysics,7,70068,0.0-3.0-0.2,,key,arrowright,16.66293464,960,468.5,3,1,-1,20,15,25,35,FALSE
null,null,psychophysics,8,71085,0.0-3.0-1.2,,key,null,16.66337705,960,468.5,,,,,,,,
2536.6,arrowright,psychophysics,9,73625,0.0-3.0-0.3,,key,arrowright,16.66372848,960,468.5,4,1,-1,23,15,25,35,FALSE
null,null,psychophysics,10,74632,0.0-3.0-1.3,,key,null,16.66186441,960,468.5,,,,,,,,
1697.5,arrowright,psychophysics,11,76337,0.0-3.0-0.4,,key,arrowright,16.6639902,960,468.5,5,1,1,26,35,25,35,TRUE
null,null,psychophysics,12,77350,0.0-3.0-1.4,,key,null,16.66181667,960,468.5,,,,,,,,
1776.2,arrowright,psychophysics,13,79128,0.0-3.0-0.5,,key,arrowright,16.66340952,960,468.5,6,1,1,27,35,25,35,TRUE
null,null,psychophysics,14,80134,0.0-3.0-1.5,,key,null,16.66578333,960,468.5,,,,,,,,
1135.1,arrowleft,psychophysics,15,81272,0.0-3.0-0.6,,key,arrowleft,16.6631194,960,468.5,7,1,1,20,35,25,35,FALSE
null,null,psychophysics,16,82282,0.0-3.0-1.6,,key,null,16.66311864,960,468.5,,,,,,,,
842.9,arrowright,psychophysics,17,83132,0.0-3.0-0.7,,key,arrowright,16.6604,960,468.5,8,1,1,30,35,25,35,TRUE
null,null,psychophysics,18,84146,0.0-3.0-1.7,,key,null,16.66521667,960,468.5,,,,,,,,
716.4,arrowleft,psychophysics,19,84872,0.0-3.0-0.8,,key,arrowleft,16.66148837,960,468.5,9,1,1,23,15,25,35,FALSE
null,null,psychophysics,20,85881,0.0-3.0-1.8,,key,null,16.66630508,960,468.5,,,,,,,,
984.8,arrowright,psychophysics,21,86873,0.0-3.0-0.9,,key,arrowright,16.66116949,960,468.5,10,1,1,30,35,25,35,TRUE
null,null,psychophysics,22,87882,0.0-3.0-1.9,,key,null,16.66555,960,468.5,,,,,,,,
1295.5,arrowright,psychophysics,23,89182,0.0-3.0-0.10,,key,arrowright,16.66217105,960,468.5,11,1,1,26,15,25,35,TRUE
null,null,psychophysics,24,90188,0.0-3.0-1.10,,key,null,16.6642,960,468.5,,,,,,,,
1371.2,arrowleft,psychophysics,25,91563,0.0-3.0-0.11,,key,arrowleft,16.66228395,960,468.5,12,1,-1,27,15,25,35,TRUE
null,null,psychophysics,26,92579,0.0-3.0-1.11,,key,null,16.66326667,960,468.5,,,,,,,,
1065.8,arrowleft,psychophysics,27,93656,0.0-3.0-0.12,,key,arrowleft,16.66184375,960,468.5,13,1,-1,27,15,25,35,TRUE
null,null,psychophysics,28,94663,0.0-3.0-1.12,,key,null,16.66216667,960,468.5,,,,,,,,
1249.6,arrowright,psychophysics,29,95916,0.0-3.0-0.13,,key,arrowright,16.664,960,468.5,14,1,1,27,35,25,35,TRUE
null,null,psychophysics,30,96946,0.0-3.0-1.13,,key,null,16.66439344,960,468.5,,,,,,,,
1348,arrowleft,psychophysics,31,98296,0.0-3.0-0.14,,key,arrowleft,16.66265,960,468.5,15,1,-1,30,35,25,35,TRUE
null,null,psychophysics,32,99298,0.0-3.0-1.14,,key,null,16.66310169,960,468.5,,,,,,,,
1494.4,arrowright,psychophysics,33,100795,0.0-3.0-0.15,,key,arrowright,16.66231818,960,468.5,16,1,-1,23,35,25,35,FALSE
null,null,psychophysics,34,101811,0.0-3.0-1.15,,key,null,16.66252459,960,468.5,,,,,,,,
1067.8,arrowright,psychophysics,35,102881,0.0-3.0-0.16,,key,arrowright,16.66401587,960,468.5,17,1,1,30,15,25,35,TRUE
null,null,psychophysics,36,103892,0.0-3.0-1.16,,key,null,16.66235593,960,468.5,,,,,,,,
914.7,arrowright,psychophysics,37,104816,0.0-3.0-0.17,,key,arrowright,16.65970909,960,468.5,18,1,-1,20,15,25,35,FALSE
null,null,psychophysics,38,105827,0.0-3.0-1.17,,key,null,16.66491667,960,468.5,,,,,,,,
1242.7,arrowleft,psychophysics,39,107072,0.0-3.0-0.18,,key,arrowleft,16.66184932,960,468.5,19,1,-1,27,35,25,35,TRUE
null,null,psychophysics,40,108088,0.0-3.0-1.18,,key,null,16.66305,960,468.5,,,,,,,,
1004.6,arrowleft,psychophysics,41,109104,0.0-3.0-0.19,,key,arrowleft,16.66308333,960,468.5,20,1,1,25,35,25,35,FALSE
null,null,psychophysics,42,110110,0.0-3.0-1.19,,key,null,16.6633,960,468.5,,,,,,,,
1511.9,arrowright,psychophysics,43,111626,0.0-3.0-0.20,,key,arrowright,16.66317978,960,468.5,21,1,-1,23,15,25,35,FALSE
null,null,psychophysics,44,112642,0.0-3.0-1.20,,key,null,16.66377049,960,468.5,,,,,,,,
1499.4,arrowleft,psychophysics,45,114144,0.0-3.0-0.21,,key,arrowleft,16.66365169,960,468.5,22,1,-1,24,35,25,35,TRUE
null,null,psychophysics,46,115157,0.0-3.0-1.21,,key,null,16.66320339,960,468.5,,,,,,,,
1300.3,arrowright,psychophysics,47,116464,0.0-3.0-0.22,,key,arrowright,16.66211538,960,468.5,23,1,1,27,15,25,35,TRUE
null,null,psychophysics,48,117467,0.0-3.0-1.22,,key,null,16.66440678,960,468.5,,,,,,,,
1621.9,arrowright,psychophysics,49,119091,0.0-3.0-0.23,,key,arrowright,16.663625,960,468.5,24,1,-1,20,35,25,35,FALSE
null,null,psychophysics,50,120100,0.0-3.0-1.23,,key,null,16.66408333,960,468.5,,,,,,,,
1299.8,arrowright,psychophysics,51,121409,0.0-3.0-0.24,,key,arrowright,16.66419231,960,468.5,25,1,1,24,35,25,35,TRUE
null,null,psychophysics,52,122423,0.0-3.0-1.24,,key,null,16.66356667,960,468.5,,,,,,,,
2601.6,arrowright,psychophysics,53,125027,0.0-3.0-0.25,,key,arrowright,16.6638129,960,468.5,26,1,-1,25,35,25,35,FALSE
null,null,psychophysics,54,126039,0.0-3.0-1.25,,key,null,16.66136667,960,468.5,,,,,,,,
901.5,arrowright,psychophysics,55,126943,0.0-3.0-0.26,,key,arrowright,16.66177358,960,468.5,27,1,1,27,15,25,35,TRUE
null,null,psychophysics,56,127955,0.0-3.0-1.26,,key,null,16.66288333,960,468.5,,,,,,,,
1001.7,arrowleft,psychophysics,57,128959,0.0-3.0-0.27,,key,arrowleft,16.66350847,960,468.5,28,2,-1,30,35,25,35,TRUE
null,null,psychophysics,58,129972,0.0-3.0-1.27,,key,null,16.66316667,960,468.5,,,,,,,,
7387.2,arrowright,html-keyboard-response,59,137360,0.0-3.0-2.27-0.27,"<div style=""color: white; text-align: center; vertical-align: top; display: inline-block; width: 800px; margin: auto""><p>You have completed 10% of the trials. You are on block 2 of 10. <br>Good job! Take a break if you need to.</p><p>Press any key to continue the experiment.</p></div>",,,,,,,,,,,,,
1525.7,arrowleft,psychophysics,60,139903,0.0-3.0-0.28,,key,arrowleft,16.66155435,960,468.5,29,2,-1,26,15,25,35,TRUE
null,null,psychophysics,61,140917,0.0-3.0-1.28,,key,null,16.66327119,960,468.5,,,,,,,,
812.9,arrowright,psychophysics,62,141736,0.0-3.0-0.29,,key,arrowright,16.66297959,960,468.5,30,2,-1,23,35,25,35,FALSE
null,null,psychophysics,63,142749,0.0-3.0-1.29,,key,null,16.66367797,960,468.5,,,,,,,,
716.1,arrowleft,psychophysics,64,143471,0.0-3.0-0.30,,key,arrowleft,16.66316279,960,468.5,31,2,-1,30,15,25,35,TRUE
null,null,psychophysics,65,144479,0.0-3.0-1.30,,key,null,16.66318644,960,468.5,,,,,,,,
763.1,arrowright,psychophysics,66,145247,0.0-3.0-0.31,,key,arrowright,16.66568889,960,468.5,32,2,-1,23,15,25,35,FALSE
null,null,psychophysics,67,146251,0.0-3.0-1.31,,key,null,16.66581667,960,468.5,,,,,,,,
1582.7,arrowleft,psychophysics,68,147840,0.0-3.0-0.32,,key,arrowleft,16.66118085,960,468.5,33,2,-1,24,15,25,35,TRUE
null,null,psychophysics,69,148851,0.0-3.0-1.32,,key,null,16.66646667,960,468.5,,,,,,,,
712.8,arrowright,psychophysics,70,149569,0.0-3.0-0.33,,key,arrowright,16.66140476,960,468.5,34,2,1,30,35,25,35,TRUE
null,null,psychophysics,71,150580,0.0-3.0-1.33,,key,null,16.66338983,960,468.5,,,,,,,,
699.1,arrowright,psychophysics,72,151287,0.0-3.0-0.34,,key,arrowright,16.66378571,960,468.5,35,2,1,25,15,25,35,TRUE
null,null,psychophysics,73,152292,0.0-3.0-1.34,,key,null,16.66447458,960,468.5,,,,,,,,
866.1,arrowleft,psychophysics,74,153160,0.0-3.0-0.35,,key,arrowleft,16.66578431,960,468.5,36,2,-1,27,35,25,35,TRUE
null,null,psychophysics,75,154163,0.0-3.0-1.35,,key,null,16.66410169,960,468.5,,,,,,,,
947.5,arrowright,psychophysics,76,155121,0.0-3.0-0.36,,key,arrowright,16.66319298,960,468.5,37,2,1,26,35,25,35,TRUE
null,null,psychophysics,77,156132,0.0-3.0-1.36,,key,null,16.662,960,468.5,,,,,,,,
4054.6,arrowleft,psychophysics,78,160193,0.0-3.0-0.37,,key,arrowleft,16.66334298,960,468.5,38,2,-1,24,15,25,35,TRUE
null,null,psychophysics,79,161198,0.0-3.0-1.37,,key,null,16.66425,960,468.5,,,,,,,,
3118.2,arrowleft,psychophysics,80,164320,0.0-3.0-0.38,,key,arrowleft,16.66261828,960,468.5,39,2,1,23,15,25,35,FALSE
null,null,psychophysics,81,165327,0.0-3.0-1.38,,key,null,16.66333898,960,468.5,,,,,,,,
814.9,arrowright,psychophysics,82,166150,0.0-3.0-0.39,,key,arrowright,16.66552083,960,468.5,40,2,1,25,15,25,35,TRUE
null,null,psychophysics,83,167158,0.0-3.0-1.39,,key,null,16.66443333,960,468.5,,,,,,,,
822.3,arrowleft,psychophysics,84,167997,0.0-3.0-0.40,,key,arrowleft,16.66540816,960,468.5,41,2,1,20,35,25,35,FALSE
null,null,psychophysics,85,169010,0.0-3.0-1.40,,key,null,16.66325,960,468.5,,,,,,,,
1448.9,arrowright,psychophysics,86,170465,0.0-3.0-0.41,,key,arrowright,16.66306897,960,468.5,42,2,-1,23,35,25,35,FALSE
null,null,psychophysics,87,171476,0.0-3.0-1.41,,key,null,16.66359322,960,468.5,,,,,,,,
869.1,arrowright,psychophysics,88,172360,0.0-3.0-0.42,,key,arrowright,16.66146154,960,468.5,43,2,1,27,35,25,35,TRUE
null,null,psychophysics,89,173371,0.0-3.0-1.42,,key,null,16.666,960,468.5,,,,,,,,
2240.9,arrowright,psychophysics,90,175615,0.0-3.0-0.43,,key,arrowright,16.66202985,960,468.5,44,2,1,25,35,25,35,TRUE
null,null,psychophysics,91,176627,0.0-3.0-1.43,,key,null,16.66316667,960,468.5,,,,,,,,
1072.6,arrowright,psychophysics,92,177703,0.0-3.0-0.44,,key,arrowright,16.66511111,960,468.5,45,2,1,27,15,25,35,TRUE
null,null,psychophysics,93,178713,0.0-3.0-1.44,,key,null,16.66326667,960,468.5,,,,,,,,
1146.3,arrowright,psychophysics,94,179864,0.0-3.0-0.45,,key,arrowright,16.66345588,960,468.5,46,2,1,27,35,25,35,TRUE
null,null,psychophysics,95,180868,0.0-3.0-1.45,,key,null,16.66255932,960,468.5,,,,,,,,
1232.1,arrowleft,psychophysics,96,182104,0.0-3.0-0.46,,key,arrowleft,16.66438356,960,468.5,47,2,1,20,15,25,35,FALSE
null,null,psychophysics,97,183108,0.0-3.0-1.46,,key,null,16.66398305,960,468.5,,,,,,,,
793,arrowright,psychophysics,98,183913,0.0-3.0-0.47,,key,arrowright,16.6620625,960,468.5,48,2,-1,20,15,25,35,FALSE
null,null,psychophysics,99,184929,0.0-3.0-1.47,,key,null,16.66453333,960,468.5,,,,,,,,
1082.6,arrowright,psychophysics,100,186017,0.0-3.0-0.48,,key,arrowright,16.6616875,960,468.5,49,2,-1,23,15,25,35,FALSE
null,null,psychophysics,101,187026,0.0-3.0-1.48,,key,null,16.66266667,960,468.5,,,,,,,,
827,arrowright,psychophysics,102,187856,0.0-3.0-0.49,,key,arrowright,16.66314583,960,468.5,50,2,-1,20,35,25,35,FALSE
null,null,psychophysics,103,188873,0.0-3.0-1.49,,key,null,16.66486667,960,468.5,,,,,,,,
1248.8,arrowleft,psychophysics,104,190130,0.0-3.0-0.50,,key,arrowleft,16.6654,960,468.5,51,2,1,20,15,25,35,FALSE
null,null,psychophysics,105,191139,0.0-3.0-1.50,,key,null,16.66333898,960,468.5,,,,,,,,
931.6,arrowleft,psychophysics,106,192080,0.0-3.0-0.51,,key,arrowleft,16.66417857,960,468.5,52,2,-1,24,15,25,35,TRUE
null,null,psychophysics,107,193089,0.0-3.0-1.51,,key,null,16.66389831,960,468.5,,,,,,,,
1832.8,arrowright,psychophysics,108,194928,0.0-3.0-0.52,,key,arrowright,16.66343636,960,468.5,53,2,1,25,35,25,35,TRUE
null,null,psychophysics,109,195930,0.0-3.0-1.52,,key,null,16.66564407,960,468.5,,,,,,,,
1492.2,arrowright,psychophysics,110,197428,0.0-3.0-0.53,,key,arrowright,16.66434831,960,468.5,54,2,-1,23,35,25,35,FALSE
null,null,psychophysics,111,198435,0.0-3.0-1.53,,key,null,16.66318644,960,468.5,,,,,,,,
860.3,arrowright,psychophysics,112,199304,0.0-3.0-0.54,,key,arrowright,16.66256863,960,468.5,55,2,-1,23,15,25,35,FALSE
null,null,psychophysics,113,200310,0.0-3.0-1.54,,key,null,16.66661667,960,468.5,,,,,,,,
1188.4,arrowright,psychophysics,114,201504,0.0-3.0-0.55,,key,arrowright,16.66237143,960,468.5,56,3,1,27,35,25,35,TRUE
null,null,psychophysics,115,202507,0.0-3.0-1.55,,key,null,16.66528333,960,468.5,,,,,,,,
3012.2, ,html-keyboard-response,116,205523,0.0-3.0-2.55-0.55,"<div style=""color: white; text-align: center; vertical-align: top; display: inline-block; width: 800px; margin: auto""><p>You have completed 20% of the trials. You are on block 3 of 10. <br>Good job! Take a break if you need to.</p><p>Press any key to continue the experiment.</p></div>",,,,,,,,,,,,,
1060.1,arrowleft,psychophysics,117,207608,0.0-3.0-0.56,,key,arrowleft,16.6604375,960,468.5,57,3,1,20,15,25,35,FALSE
null,null,psychophysics,118,208619,0.0-3.0-1.56,,key,null,16.66338983,960,468.5,,,,,,,,
928.6,arrowright,psychophysics,119,209553,0.0-3.0-0.57,,key,arrowright,16.66521818,960,468.5,58,3,1,25,15,25,35,TRUE
null,null,psychophysics,120,210558,0.0-3.0-1.57,,key,null,16.66598333,960,468.5,,,,,,,,
965.2,arrowright,psychophysics,121,211528,0.0-3.0-0.58,,key,arrowright,16.66136842,960,468.5,59,3,1,24,15,25,35,TRUE
null,null,psychophysics,122,212535,0.0-3.0-1.58,,key,null,16.66252542,960,468.5,,,,,,,,
843.6,arrowleft,psychophysics,123,213386,0.0-3.0-0.59,,key,arrowleft,16.6645,960,468.5,60,3,-1,27,35,25,35,TRUE
null,null,psychophysics,124,214401,0.0-3.0-1.59,,key,null,16.66346667,960,468.5,,,,,,,,
727,arrowleft,psychophysics,125,215144,0.0-3.0-0.60,,key,arrowleft,16.66229545,960,468.5,61,3,-1,30,15,25,35,TRUE
null,null,psychophysics,126,216152,0.0-3.0-1.60,,key,null,16.66348333,960,468.5,,,,,,,,
1085.8,arrowright,psychophysics,127,217242,0.0-3.0-0.61,,key,arrowright,16.66440625,960,468.5,62,3,-1,25,15,25,35,FALSE
null,null,psychophysics,128,218251,0.0-3.0-1.61,,key,null,16.66349153,960,468.5,,,,,,,,
2710,arrowleft,psychophysics,129,220986,0.0-3.0-0.62,,key,arrowleft,16.66348466,960,468.5,63,3,1,23,35,25,35,FALSE
null,null,psychophysics,130,221996,0.0-3.0-1.62,,key,null,16.66366667,960,468.5,,,,,,,,
2145.4,arrowleft,psychophysics,131,224144,0.0-3.0-0.63,,key,arrowleft,16.66335938,960,468.5,64,3,1,25,35,25,35,FALSE
null,null,psychophysics,132,225150,0.0-3.0-1.63,,key,null,16.66325424,960,468.5,,,,,,,,
1031.4,arrowright,psychophysics,133,226187,0.0-3.0-0.64,,key,arrowright,16.66366129,960,468.5,65,3,-1,20,35,25,35,FALSE
null,null,psychophysics,134,227195,0.0-3.0-1.64,,key,null,16.66240678,960,468.5,,,,,,,,
871.9,arrowright,psychophysics,135,228072,0.0-3.0-0.65,,key,arrowright,16.66430769,960,468.5,66,3,-1,25,35,25,35,FALSE
null,null,psychophysics,136,229076,0.0-3.0-1.65,,key,null,16.66601695,960,468.5,,,,,,,,
3188.3,arrowleft,psychophysics,137,232268,0.0-3.0-0.66,,key,arrowleft,16.6633,960,468.5,67,3,-1,26,35,25,35,TRUE
null,null,psychophysics,138,233282,0.0-3.0-1.66,,key,null,16.66355,960,468.5,,,,,,,,
852.9,arrowleft,psychophysics,139,234144,0.0-3.0-0.67,,key,arrowleft,16.66178431,960,468.5,68,3,-1,25,35,25,35,TRUE
null,null,psychophysics,140,235147,0.0-3.0-1.67,,key,null,16.66449153,960,468.5,,,,,,,,
929,arrowleft,psychophysics,141,236083,0.0-3.0-0.68,,key,arrowleft,16.66469091,960,468.5,69,3,1,24,35,25,35,FALSE
null,null,psychophysics,142,237097,0.0-3.0-1.68,,key,null,16.66408333,960,468.5,,,,,,,,
904.6,arrowright,psychophysics,143,238008,0.0-3.0-0.69,,key,arrowright,16.66305556,960,468.5,70,3,1,26,15,25,35,TRUE
null,null,psychophysics,144,239014,0.0-3.0-1.69,,key,null,16.66455932,960,468.5,,,,,,,,
964.4,arrowright,psychophysics,145,239985,0.0-3.0-0.70,,key,arrowright,16.66393103,960,468.5,71,3,1,26,15,25,35,TRUE
null,null,psychophysics,146,241000,0.0-3.0-1.70,,key,null,16.66648333,960,468.5,,,,,,,,
1644.1,arrowright,psychophysics,147,242650,0.0-3.0-0.71,,key,arrowright,16.66221429,960,468.5,72,3,1,25,15,25,35,TRUE
null,null,psychophysics,148,243660,0.0-3.0-1.71,,key,null,16.66416949,960,468.5,,,,,,,,
1169.1,arrowleft,psychophysics,149,244840,0.0-3.0-0.72,,key,arrowleft,16.66455714,960,468.5,73,3,1,24,15,25,35,FALSE
null,null,psychophysics,150,245846,0.0-3.0-1.72,,key,null,16.66422034,960,468.5,,,,,,,,
1209.6,arrowright,psychophysics,151,247065,0.0-3.0-0.73,,key,arrowright,16.66330137,960,468.5,74,3,-1,25,35,25,35,FALSE
null,null,psychophysics,152,248076,0.0-3.0-1.73,,key,null,16.66366102,960,468.5,,,,,,,,
1052.6,arrowright,psychophysics,153,249136,0.0-3.0-0.74,,key,arrowright,16.66385714,960,468.5,75,3,1,26,15,25,35,TRUE
null,null,psychophysics,154,250147,0.0-3.0-1.74,,key,null,16.66308333,960,468.5,,,,,,,,
949.3,arrowright,psychophysics,155,251098,0.0-3.0-0.75,,key,arrowright,16.66298214,960,468.5,76,3,-1,24,15,25,35,FALSE
null,null,psychophysics,156,252111,0.0-3.0-1.75,,key,null,16.66255932,960,468.5,,,,,,,,
1348.6,arrowleft,psychophysics,157,253465,0.0-3.0-0.76,,key,arrowleft,16.66251852,960,468.5,77,3,-1,24,15,25,35,TRUE
null,null,psychophysics,158,254479,0.0-3.0-1.76,,key,null,16.66446667,960,468.5,,,,,,,,
1454.5,arrowleft,psychophysics,159,255937,0.0-3.0-0.77,,key,arrowleft,16.66412791,960,468.5,78,3,-1,30,35,25,35,TRUE
null,null,psychophysics,160,256946,0.0-3.0-1.77,,key,null,16.66061667,960,468.5,,,,,,,,
2347.5,arrowright,psychophysics,161,259297,0.0-3.0-0.78,,key,arrowright,16.66306429,960,468.5,79,3,-1,25,35,25,35,FALSE
null,null,psychophysics,162,260309,0.0-3.0-1.78,,key,null,16.663,960,468.5,,,,,,,,
750.1,arrowleft,psychophysics,163,261065,0.0-3.0-0.79,,key,arrowleft,16.66262222,960,468.5,80,3,1,20,35,25,35,FALSE
null,null,psychophysics,164,262092,0.0-3.0-1.79,,key,null,16.66255,960,468.5,,,,,,,,
716.6,arrowleft,psychophysics,165,262814,0.0-3.0-0.80,,key,arrowleft,16.66332558,960,468.5,81,3,1,20,35,25,35,FALSE
null,null,psychophysics,166,263825,0.0-3.0-1.80,,key,null,16.66325424,960,468.5,,,,,,,,
1805.9,arrowleft,psychophysics,167,265640,0.0-3.0-0.81,,key,arrowleft,16.66287037,960,468.5,82,3,1,26,15,25,35,FALSE
null,null,psychophysics,168,266643,0.0-3.0-1.81,,key,null,16.66435,960,468.5,,,,,,,,
1217.7,arrowleft,psychophysics,169,267864,0.0-3.0-0.82,,key,arrowleft,16.664625,960,468.5,83,3,-1,25,15,25,35,TRUE
null,null,psychophysics,170,268876,0.0-3.0-1.82,,key,null,16.66181667,960,468.5,,,,,,,,
1249.8,arrowleft,psychophysics,171,270130,0.0-3.0-0.83,,key,arrowleft,16.66397297,960,468.5,84,4,1,26,35,25,35,FALSE
null,null,psychophysics,172,271138,0.0-3.0-1.83,,key,null,16.66277966,960,468.5,,,,,,,,
2148.6,arrowleft,html-keyboard-response,173,273291,0.0-3.0-2.83-0.83,"<div style=""color: white; text-align: center; vertical-align: top; display: inline-block; width: 800px; margin: auto""><p>You have completed 30% of the trials. You are on block 4 of 10. <br>Good job! Take a break if you need to.</p><p>Press any key to continue the experiment.</p></div>",,,,,,,,,,,,,
919.4,arrowright,psychophysics,174,275243,0.0-3.0-0.84,,key,arrowright,16.6624,960,468.5,85,4,-1,24,35,25,35,FALSE
null,null,psychophysics,175,276254,0.0-3.0-1.84,,key,null,16.66305,960,468.5,,,,,,,,
1151.7,arrowleft,psychophysics,176,277410,0.0-3.0-0.85,,key,arrowleft,16.66407246,960,468.5,86,4,-1,26,15,25,35,TRUE
null,null,psychophysics,177,278425,0.0-3.0-1.85,,key,null,16.66266667,960,468.5,,,,,,,,
1741.6,arrowright,psychophysics,178,280168,0.0-3.0-0.86,,key,arrowright,16.6633301,960,468.5,87,4,1,25,35,25,35,TRUE
null,null,psychophysics,179,281175,0.0-3.0-1.86,,key,null,16.66313333,960,468.5,,,,,,,,
1685.3,arrowright,psychophysics,180,282864,0.0-3.0-0.87,,key,arrowright,16.66345,960,468.5,88,4,-1,23,15,25,35,FALSE
null,null,psychophysics,181,283868,0.0-3.0-1.87,,key,null,16.66559322,960,468.5,,,,,,,,
852.5,arrowright,psychophysics,182,284729,0.0-3.0-0.88,,key,arrowright,16.66564706,960,468.5,89,4,-1,20,15,25,35,FALSE
null,null,psychophysics,183,285740,0.0-3.0-1.88,,key,null,16.6643,960,468.5,,,,,,,,
1734,arrowleft,psychophysics,184,287479,0.0-3.0-0.89,,key,arrowleft,16.66192233,960,468.5,90,4,-1,25,35,25,35,TRUE
null,null,psychophysics,185,288486,0.0-3.0-1.89,,key,null,16.66284746,960,468.5,,,,,,,,
1046.9,arrowleft,psychophysics,186,289544,0.0-3.0-0.90,,key,arrowleft,16.66212698,960,468.5,91,4,1,24,35,25,35,FALSE
null,null,psychophysics,187,290552,0.0-3.0-1.90,,key,null,16.6620339,960,468.5,,,,,,,,
962.4,arrowright,psychophysics,188,291521,0.0-3.0-0.91,,key,arrowright,16.66361404,960,468.5,92,4,-1,25,15,25,35,FALSE
null,null,psychophysics,189,292535,0.0-3.0-1.91,,key,null,16.6642,960,468.5,,,,,,,,
1738.8,arrowleft,psychophysics,190,294280,0.0-3.0-0.92,,key,arrowleft,16.66351923,960,468.5,93,4,-1,24,15,25,35,TRUE
null,null,psychophysics,191,295285,0.0-3.0-1.92,,key,null,16.66552542,960,468.5,,,,,,,,
1129.2,arrowright,psychophysics,192,296424,0.0-3.0-0.93,,key,arrowright,16.66229412,960,468.5,94,4,1,23,35,25,35,TRUE
null,null,psychophysics,193,297434,0.0-3.0-1.93,,key,null,16.66476271,960,468.5,,,,,,,,
1650.7,arrowright,psychophysics,194,299095,0.0-3.0-0.94,,key,arrowright,16.66307071,960,468.5,95,4,1,30,15,25,35,TRUE
null,null,psychophysics,195,300100,0.0-3.0-1.94,,key,null,16.66349153,960,468.5,,,,,,,,
981.7,arrowright,psychophysics,196,301096,0.0-3.0-0.95,,key,arrowright,16.66171186,960,468.5,96,4,-1,20,35,25,35,FALSE
null,null,psychophysics,197,302099,0.0-3.0-1.95,,key,null,16.66272881,960,468.5,,,,,,,,
1600.7,arrowleft,psychophysics,198,303723,0.0-3.0-0.96,,key,arrowleft,16.6631134,960,468.5,97,4,1,20,15,25,35,FALSE
null,null,psychophysics,199,304732,0.0-3.0-1.96,,key,null,16.66167797,960,468.5,,,,,,,,
736.7,arrowright,psychophysics,200,305479,0.0-3.0-0.97,,key,arrowright,16.66245455,960,468.5,98,4,1,30,35,25,35,TRUE
null,null,psychophysics,201,306498,0.0-3.0-1.97,,key,null,16.66436667,960,468.5,,,,,,,,
777,arrowleft,psychophysics,202,307287,0.0-3.0-0.98,,key,arrowleft,16.66361702,960,468.5,99,4,1,25,35,25,35,FALSE
null,null,psychophysics,203,308289,0.0-3.0-1.98,,key,null,16.66344068,960,468.5,,,,,,,,
660.2,arrowright,psychophysics,204,308952,0.0-3.0-0.99,,key,arrowright,16.66428205,960,468.5,100,4,1,24,35,25,35,TRUE
null,null,psychophysics,205,309967,0.0-3.0-1.99,,key,null,16.66508333,960,468.5,,,,,,,,
778.3,arrowleft,psychophysics,206,310769,0.0-3.0-0.100,,key,arrowleft,16.6636383,960,468.5,101,4,-1,30,35,25,35,TRUE
null,null,psychophysics,207,311783,0.0-3.0-1.100,,key,null,16.66323333,960,468.5,,,,,,,,
795.7,arrowright,psychophysics,208,312609,0.0-3.0-0.101,,key,arrowright,16.66333333,960,468.5,102,4,1,30,15,25,35,TRUE
null,null,psychophysics,209,313614,0.0-3.0-1.101,,key,null,16.66383051,960,468.5,,,,,,,,
1593.1,arrowleft,psychophysics,210,315218,0.0-3.0-0.102,,key,arrowleft,16.66236458,960,468.5,103,4,-1,27,15,25,35,TRUE
null,null,psychophysics,211,316230,0.0-3.0-1.102,,key,null,16.66455932,960,468.5,,,,,,,,
1903.8,arrowright,psychophysics,212,318145,0.0-3.0-0.103,,key,arrowright,16.66312281,960,468.5,104,4,1,24,15,25,35,TRUE
null,null,psychophysics,213,319155,0.0-3.0-1.103,,key,null,16.66298333,960,468.5,,,,,,,,
721.8,arrowleft,psychophysics,214,319880,0.0-3.0-0.104,,key,arrowleft,16.66442857,960,468.5,105,4,1,20,35,25,35,FALSE
null,null,psychophysics,215,320893,0.0-3.0-1.104,,key,null,16.66331667,960,468.5,,,,,,,,
1038,arrowright,psychophysics,216,321935,0.0-3.0-0.105,,key,arrowright,16.66287097,960,468.5,106,4,-1,20,15,25,35,FALSE
null,null,psychophysics,217,322945,0.0-3.0-1.105,,key,null,16.66355932,960,468.5,,,,,,,,
1209.3,arrowright,psychophysics,218,324160,0.0-3.0-0.106,,key,arrowright,16.66534722,960,468.5,107,4,1,24,35,25,35,TRUE
null,null,psychophysics,219,325174,0.0-3.0-1.106,,key,null,16.66446667,960,468.5,,,,,,,,
1190.2,arrowright,psychophysics,220,326367,0.0-3.0-0.107,,key,arrowright,16.66398592,960,468.5,108,4,1,26,15,25,35,TRUE
null,null,psychophysics,221,327380,0.0-3.0-1.107,,key,null,16.66313333,960,468.5,,,,,,,,
1732.4,arrowright,psychophysics,222,329117,0.0-3.0-0.108,,key,arrowright,16.66651456,960,468.5,109,4,-1,27,35,25,35,FALSE
null,null,psychophysics,223,330129,0.0-3.0-1.108,,key,null,16.66221667,960,468.5,,,,,,,,
802.8,arrowright,psychophysics,224,330935,0.0-3.0-0.109,,key,arrowright,16.66370213,960,468.5,110,4,1,26,15,25,35,TRUE
null,null,psychophysics,225,331946,0.0-3.0-1.109,,key,null,16.66465,960,468.5,,,,,,,,
902.8,arrowright,psychophysics,226,332855,0.0-3.0-0.110,,key,arrowright,16.66430189,960,468.5,111,4,1,27,35,25,35,TRUE
null,null,psychophysics,227,333860,0.0-3.0-1.110,,key,null,16.66425424,960,468.5,,,,,,,,
930.3,arrowright,psychophysics,228,334801,0.0-3.0-0.111,,key,arrowright,16.66305357,960,468.5,112,5,1,24,15,25,35,TRUE
null,null,psychophysics,229,335809,0.0-3.0-1.111,,key,null,16.66264407,960,468.5,,,,,,,,
23550.6, ,html-keyboard-response,230,359363,0.0-3.0-2.111-0.111,"<div style=""color: white; text-align: center; vertical-align: top; display: inline-block; width: 800px; margin: auto""><p>You have completed 40% of the trials. You are on block 5 of 10. <br>Good job! Take a break if you need to.</p><p>Press any key to continue the experiment.</p></div>",,,,,,,,,,,,,
713.6,arrowright,psychophysics,231,361112,0.0-3.0-0.112,,key,arrowright,17.04630233,960,468.5,113,5,1,30,35,25,35,TRUE
null,null,psychophysics,232,362122,0.0-3.0-1.112,,key,null,16.6640678,960,468.5,,,,,,,,
903.4,arrowright,psychophysics,233,363049,0.0-3.0-0.113,,key,arrowright,16.66232727,960,468.5,114,5,-1,26,35,25,35,FALSE
null,null,psychophysics,234,364058,0.0-3.0-1.113,,key,null,16.66325,960,468.5,,,,,,,,
690.4,arrowright,psychophysics,235,364752,0.0-3.0-0.114,,key,arrowright,16.66395,960,468.5,115,5,1,27,15,25,35,TRUE
null,null,psychophysics,236,365758,0.0-3.0-1.114,,key,null,16.66576667,960,468.5,,,,,,,,
933.5,arrowright,psychophysics,237,366696,0.0-3.0-0.115,,key,arrowright,16.66189091,960,468.5,116,5,1,24,15,25,35,TRUE
null,null,psychophysics,238,367708,0.0-3.0-1.115,,key,null,16.6643,960,468.5,,,,,,,,
1104.6,arrowright,psychophysics,239,368816,0.0-3.0-0.116,,key,arrowright,16.66201538,960,468.5,117,5,1,27,15,25,35,TRUE
null,null,psychophysics,240,369820,0.0-3.0-1.116,,key,null,16.66437288,960,468.5,,,,,,,,
1102.2,arrowright,psychophysics,241,370928,0.0-3.0-0.117,,key,arrowright,16.66365152,960,468.5,118,5,-1,23,15,25,35,FALSE
null,null,psychophysics,242,371937,0.0-3.0-1.117,,key,null,16.66352542,960,468.5,,,,,,,,
1120.4,arrowright,psychophysics,243,373064,0.0-3.0-0.118,,key,arrowright,16.66352239,960,468.5,119,5,1,23,15,25,35,TRUE
null,null,psychophysics,244,374074,0.0-3.0-1.118,,key,null,16.66463333,960,468.5,,,,,,,,
1466.3,arrowright,psychophysics,245,375544,0.0-3.0-0.119,,key,arrowright,16.66177011,960,468.5,120,5,-1,20,15,25,35,FALSE
null,null,psychophysics,246,376553,0.0-3.0-1.119,,key,null,16.66532203,960,468.5,,,,,,,,
917.8,arrowleft,psychophysics,247,377480,0.0-3.0-0.120,,key,arrowleft,16.66134545,960,468.5,121,5,1,23,35,25,35,FALSE
null,null,psychophysics,248,378485,0.0-3.0-1.120,,key,null,16.66374576,960,468.5,,,,,,,,
1164.5,arrowleft,psychophysics,249,379656,0.0-3.0-0.121,,key,arrowleft,16.66425714,960,468.5,122,5,1,20,35,25,35,FALSE
null,null,psychophysics,250,380666,0.0-3.0-1.121,,key,null,16.66605085,960,468.5,,,,,,,,
1209.8,arrowleft,psychophysics,251,381888,0.0-3.0-0.122,,key,arrowleft,16.66360274,960,468.5,123,5,1,20,15,25,35,FALSE
null,null,psychophysics,252,382896,0.0-3.0-1.122,,key,null,16.66438983,960,468.5,,,,,,,,
1338.4,arrowright,psychophysics,253,384240,0.0-3.0-0.123,,key,arrowright,16.6647875,960,468.5,124,5,1,26,35,25,35,TRUE
null,null,psychophysics,254,385249,0.0-3.0-1.123,,key,null,16.66350847,960,468.5,,,,,,,,
746.2,arrowright,psychophysics,255,386024,0.0-3.0-0.124,,key,arrowright,16.66445652,960,468.5,125,5,1,23,15,25,35,TRUE
null,null,psychophysics,256,387037,0.0-3.0-1.124,,key,null,16.6632,960,468.5,,,,,,,,
1112.8,arrowleft,psychophysics,257,388155,0.0-3.0-0.125,,key,arrowleft,16.66204545,960,468.5,126,5,1,20,35,25,35,FALSE
null,null,psychophysics,258,389167,0.0-3.0-1.125,,key,null,16.66354237,960,468.5,,,,,,,,
742.8,arrowright,psychophysics,259,389920,0.0-3.0-0.126,,key,arrowright,16.66226667,960,468.5,127,5,-1,20,35,25,35,FALSE
null,null,psychophysics,260,390925,0.0-3.0-1.126,,key,null,16.66322034,960,468.5,,,,,,,,
896.1,arrowright,psychophysics,261,391824,0.0-3.0-0.127,,key,arrowright,16.66303774,960,468.5,128,5,1,25,15,25,35,TRUE
null,null,psychophysics,262,392828,0.0-3.0-1.127,,key,null,16.66377966,960,468.5,,,,,,,,
703.5,arrowright,psychophysics,263,393536,0.0-3.0-0.128,,key,arrowright,16.66285714,960,468.5,129,5,1,30,35,25,35,TRUE
null,null,psychophysics,264,394541,0.0-3.0-1.128,,key,null,16.66432203,960,468.5,,,,,,,,
1126.9,arrowleft,psychophysics,265,395672,0.0-3.0-0.129,,key,arrowleft,16.66352239,960,468.5,130,5,-1,26,15,25,35,TRUE
null,null,psychophysics,266,396685,0.0-3.0-1.129,,key,null,16.6639,960,468.5,,,,,,,,
2551.8,arrowright,psychophysics,267,399239,0.0-3.0-0.130,,key,arrowright,16.663125,960,468.5,131,5,1,24,35,25,35,TRUE
null,null,psychophysics,268,400245,0.0-3.0-1.130,,key,null,16.66338983,960,468.5,,,,,,,,
1501.3,arrowleft,psychophysics,269,401751,0.0-3.0-0.131,,key,arrowleft,16.66337778,960,468.5,132,5,-1,25,15,25,35,TRUE
null,null,psychophysics,270,402763,0.0-3.0-1.131,,key,null,16.66301695,960,468.5,,,,,,,,
711.1,arrowright,psychophysics,271,403481,0.0-3.0-0.132,,key,arrowright,16.66380952,960,468.5,133,5,1,25,35,25,35,TRUE
null,null,psychophysics,272,404497,0.0-3.0-1.132,,key,null,16.66606667,960,468.5,,,,,,,,
901.4,arrowright,psychophysics,273,405408,0.0-3.0-0.133,,key,arrowright,16.66172222,960,468.5,134,5,-1,23,15,25,35,FALSE
null,null,psychophysics,274,406417,0.0-3.0-1.133,,key,null,16.66318333,960,468.5,,,,,,,,
921.3,arrowright,psychophysics,275,407344,0.0-3.0-0.134,,key,arrowright,16.66214815,960,468.5,135,5,1,23,15,25,35,TRUE
null,null,psychophysics,276,408346,0.0-3.0-1.134,,key,null,16.66515254,960,468.5,,,,,,,,
1227.8,arrowleft,psychophysics,277,409583,0.0-3.0-0.135,,key,arrowleft,16.66348649,960,468.5,136,5,-1,25,35,25,35,TRUE
null,null,psychophysics,278,410595,0.0-3.0-1.135,,key,null,16.66416949,960,468.5,,,,,,,,
867.4,arrowright,psychophysics,279,411468,0.0-3.0-0.136,,key,arrowright,16.66573077,960,468.5,137,5,-1,20,15,25,35,FALSE
null,null,psychophysics,280,412478,0.0-3.0-1.136,,key,null,16.66133898,960,468.5,,,,,,,,
1507.2,arrowright,psychophysics,281,413992,0.0-3.0-0.137,,key,arrowright,16.66332222,960,468.5,138,5,1,27,15,25,35,TRUE
null,null,psychophysics,282,414995,0.0-3.0-1.137,,key,null,16.66549153,960,468.5,,,,,,,,
1102,arrowright,psychophysics,283,416106,0.0-3.0-0.138,,key,arrowright,16.66212121,960,468.5,139,5,1,30,15,25,35,TRUE
null,null,psychophysics,284,417111,0.0-3.0-1.138,,key,null,16.66254237,960,468.5,,,,,,,,
1255.1,arrowright,psychophysics,285,418375,0.0-3.0-0.139,,key,arrowright,16.66176,960,468.5,140,6,1,30,15,25,35,TRUE
null,null,psychophysics,286,419381,0.0-3.0-1.139,,key,null,16.66601667,960,468.5,,,,,,,,
1787.8, ,html-keyboard-response,287,421170,0.0-3.0-2.139-0.139,"<div style=""color: white; text-align: center; vertical-align: top; display: inline-block; width: 800px; margin: auto""><p>You have completed 50% of the trials. You are on block 6 of 10. <br>Good job! Take a break if you need to.</p><p>Press any key to continue the experiment.</p></div>",,,,,,,,,,,,,
1337.9,arrowleft,psychophysics,288,423531,0.0-3.0-0.140,,key,arrowleft,16.66208642,960,468.5,141,6,1,24,35,25,35,FALSE
null,null,psychophysics,289,424540,0.0-3.0-1.140,,key,null,16.66225424,960,468.5,,,,,,,,
880.3,arrowright,psychophysics,290,425431,0.0-3.0-0.141,,key,arrowright,16.66339623,960,468.5,142,6,-1,23,35,25,35,FALSE
null,null,psychophysics,291,426441,0.0-3.0-1.141,,key,null,16.66338983,960,468.5,,,,,,,,
791.5,arrowright,psychophysics,292,427244,0.0-3.0-0.142,,key,arrowright,16.66040426,960,468.5,143,6,-1,24,35,25,35,FALSE
null,null,psychophysics,293,428252,0.0-3.0-1.142,,key,null,16.66531667,960,468.5,,,,,,,,
689.7,arrowright,psychophysics,294,428946,0.0-3.0-0.143,,key,arrowright,16.66473171,960,468.5,144,6,-1,23,35,25,35,FALSE
null,null,psychophysics,295,429957,0.0-3.0-1.143,,key,null,16.66254237,960,468.5,,,,,,,,
625.2,arrowright,psychophysics,296,430592,0.0-3.0-0.144,,key,arrowright,16.658,960,468.5,145,6,-1,20,15,25,35,FALSE
null,null,psychophysics,297,431610,0.0-3.0-1.144,,key,null,16.66329508,960,468.5,,,,,,,,
1597.7,arrowright,psychophysics,298,433232,0.0-3.0-0.145,,key,arrowright,16.66430208,960,468.5,146,6,-1,23,15,25,35,FALSE
null,null,psychophysics,299,434239,0.0-3.0-1.145,,key,null,16.66166102,960,468.5,,,,,,,,
1066.1,arrowleft,psychophysics,300,435313,0.0-3.0-0.146,,key,arrowleft,16.66453125,960,468.5,147,6,-1,30,35,25,35,TRUE
null,null,psychophysics,301,436322,0.0-3.0-1.146,,key,null,16.66354237,960,468.5,,,,,,,,
949,arrowright,psychophysics,302,437279,0.0-3.0-0.147,,key,arrowright,16.66387719,960,468.5,148,6,-1,20,35,25,35,FALSE
null,null,psychophysics,303,438286,0.0-3.0-1.147,,key,null,16.66398305,960,468.5,,,,,,,,
1025.9,arrowright,psychophysics,304,439319,0.0-3.0-0.148,,key,arrowright,16.66154098,960,468.5,149,6,1,25,15,25,35,TRUE
null,null,psychophysics,305,440322,0.0-3.0-1.148,,key,null,16.66455932,960,468.5,,,,,,,,
955.6,arrowright,psychophysics,306,441287,0.0-3.0-0.149,,key,arrowright,16.66266667,960,468.5,150,6,1,26,35,25,35,TRUE
null,null,psychophysics,307,442309,0.0-3.0-1.149,,key,null,16.66572131,960,468.5,,,,,,,,
982.1,arrowright,psychophysics,308,443295,0.0-3.0-0.150,,key,arrowright,16.66182759,960,468.5,151,6,-1,24,35,25,35,FALSE
null,null,psychophysics,309,444300,0.0-3.0-1.150,,key,null,16.66371186,960,468.5,,,,,,,,
1216.8,arrowleft,psychophysics,310,445519,0.0-3.0-0.151,,key,arrowleft,16.66377778,960,468.5,152,6,-1,27,15,25,35,TRUE
null,null,psychophysics,311,446520,0.0-3.0-1.151,,key,null,16.66425424,960,468.5,,,,,,,,
899.2,arrowleft,psychophysics,312,447425,0.0-3.0-0.152,,key,arrowleft,16.66587037,960,468.5,153,6,-1,30,35,25,35,TRUE
null,null,psychophysics,313,448438,0.0-3.0-1.152,,key,null,16.66525424,960,468.5,,,,,,,,
1159.6,arrowleft,psychophysics,314,449608,0.0-3.0-0.153,,key,arrowleft,16.6617,960,468.5,154,6,-1,27,35,25,35,TRUE
null,null,psychophysics,315,450620,0.0-3.0-1.153,,key,null,16.66455932,960,468.5,,,,,,,,
1088,arrowleft,psychophysics,316,451727,0.0-3.0-0.154,,key,arrowleft,16.66162121,960,468.5,155,6,-1,30,15,25,35,TRUE
null,null,psychophysics,317,452739,0.0-3.0-1.154,,key,null,16.66426667,960,468.5,,,,,,,,
2295.7,arrowleft,psychophysics,318,455041,0.0-3.0-0.155,,key,arrowleft,16.66305839,960,468.5,156,6,1,23,35,25,35,FALSE
null,null,psychophysics,319,456052,0.0-3.0-1.155,,key,null,16.66459322,960,468.5,,,,,,,,
2370.1,arrowleft,psychophysics,320,458432,0.0-3.0-0.156,,key,arrowleft,16.66306338,960,468.5,157,6,-1,25,15,25,35,TRUE
null,null,psychophysics,321,459437,0.0-3.0-1.156,,key,null,16.66316667,960,468.5,,,,,,,,
3407.2,arrowright,psychophysics,322,462848,0.0-3.0-0.157,,key,arrowright,16.66376355,960,468.5,158,6,-1,23,35,25,35,FALSE
null,null,psychophysics,323,463854,0.0-3.0-1.157,,key,null,16.66321667,960,468.5,,,,,,,,
3189.3,arrowleft,psychophysics,324,467047,0.0-3.0-0.158,,key,arrowleft,16.66362105,960,468.5,159,6,1,20,35,25,35,FALSE
null,null,psychophysics,325,468052,0.0-3.0-1.158,,key,null,16.66256667,960,468.5,,,,,,,,
983.7,arrowright,psychophysics,326,469039,0.0-3.0-0.159,,key,arrowright,16.66322414,960,468.5,160,6,1,27,35,25,35,TRUE
null,null,psychophysics,327,470043,0.0-3.0-1.159,,key,null,16.66420339,960,468.5,,,,,,,,
776.8,arrowright,psychophysics,328,470823,0.0-3.0-0.160,,key,arrowright,16.6645,960,468.5,161,6,-1,20,15,25,35,FALSE
null,null,psychophysics,329,471832,0.0-3.0-1.160,,key,null,16.66344068,960,468.5,,,,,,,,
1056.3,arrowright,psychophysics,330,472895,0.0-3.0-0.161,,key,arrowright,16.66257143,960,468.5,162,6,-1,24,35,25,35,FALSE
null,null,psychophysics,331,473900,0.0-3.0-1.161,,key,null,16.66361667,960,468.5,,,,,,,,
1336.8,arrowright,psychophysics,332,475240,0.0-3.0-0.162,,key,arrowright,16.66263291,960,468.5,163,6,1,25,15,25,35,TRUE
null,null,psychophysics,333,476250,0.0-3.0-1.162,,key,null,16.66371667,960,468.5,,,,,,,,
800.7,arrowleft,psychophysics,334,477055,0.0-3.0-0.163,,key,arrowleft,16.66374468,960,468.5,164,6,-1,30,15,25,35,TRUE
null,null,psychophysics,335,478067,0.0-3.0-1.163,,key,null,16.66333333,960,468.5,,,,,,,,
1008.8,arrowleft,psychophysics,336,479079,0.0-3.0-0.164,,key,arrowleft,16.66216949,960,468.5,165,6,-1,27,35,25,35,TRUE
null,null,psychophysics,337,480084,0.0-3.0-1.164,,key,null,16.66613333,960,468.5,,,,,,,,
1162.2,arrowleft,psychophysics,338,481271,0.0-3.0-0.165,,key,arrowleft,16.66285714,960,468.5,166,6,-1,27,15,25,35,TRUE
null,null,psychophysics,339,482281,0.0-3.0-1.165,,key,null,16.66452542,960,468.5,,,,,,,,
5549.8,arrowright,psychophysics,340,487839,0.0-3.0-0.166,,key,arrowright,16.6630961,960,468.5,167,6,-1,25,35,25,35,FALSE
null,null,psychophysics,341,488843,0.0-3.0-1.166,,key,null,16.66481356,960,468.5,,,,,,,,
755.9,arrowright,psychophysics,342,489609,0.0-3.0-0.167,,key,arrowright,16.66566667,960,468.5,168,7,1,27,35,25,35,TRUE
null,null,psychophysics,343,490612,0.0-3.0-1.167,,key,null,16.66528814,960,468.5,,,,,,,,
2512.5,arrowright,html-keyboard-response,344,493129,0.0-3.0-2.167-0.167,"<div style=""color: white; text-align: center; vertical-align: top; display: inline-block; width: 800px; margin: auto""><p>You have completed 60% of the trials. You are on block 7 of 10. <br>Good job! Take a break if you need to.</p><p>Press any key to continue the experiment.</p></div>",,,,,,,,,,,,,
1121.5,arrowright,psychophysics,345,495271,0.0-3.0-0.168,,key,arrowright,16.66002941,960,468.5,169,7,1,26,35,25,35,TRUE
null,null,psychophysics,346,496280,0.0-3.0-1.168,,key,null,16.66336667,960,468.5,,,,,,,,
957,arrowright,psychophysics,347,497240,0.0-3.0-0.169,,key,arrowright,16.66410714,960,468.5,170,7,1,26,35,25,35,TRUE
null,null,psychophysics,348,498244,0.0-3.0-1.169,,key,null,16.66398305,960,468.5,,,,,,,,
683.4,arrowright,psychophysics,349,498936,0.0-3.0-0.170,,key,arrowright,16.66368293,960,468.5,171,7,-1,23,35,25,35,FALSE
null,null,psychophysics,350,499964,0.0-3.0-1.170,,key,null,16.6632623,960,468.5,,,,,,,,
844.5,arrowleft,psychophysics,351,500815,0.0-3.0-0.171,,key,arrowleft,16.6631,960,468.5,172,7,-1,27,35,25,35,TRUE
null,null,psychophysics,352,501826,0.0-3.0-1.171,,key,null,16.66364407,960,468.5,,,,,,,,
768.2,arrowleft,psychophysics,353,502600,0.0-3.0-0.172,,key,arrowleft,16.66391304,960,468.5,173,7,1,20,35,25,35,FALSE
null,null,psychophysics,354,503610,0.0-3.0-1.172,,key,null,16.6629322,960,468.5,,,,,,,,
758.3,arrowleft,psychophysics,355,504377,0.0-3.0-0.173,,key,arrowleft,16.66202222,960,468.5,174,7,-1,30,35,25,35,TRUE
null,null,psychophysics,356,505392,0.0-3.0-1.173,,key,null,16.66461667,960,468.5,,,,,,,,
1016.3,arrowleft,psychophysics,357,506414,0.0-3.0-0.174,,key,arrowleft,16.66358333,960,468.5,175,7,-1,30,15,25,35,TRUE
null,null,psychophysics,358,507427,0.0-3.0-1.174,,key,null,16.6645082,960,468.5,,,,,,,,
1282.5,arrowright,psychophysics,359,508712,0.0-3.0-0.175,,key,arrowright,16.66331579,960,468.5,176,7,-1,23,15,25,35,FALSE
null,null,psychophysics,360,509728,0.0-3.0-1.175,,key,null,16.66415,960,468.5,,,,,,,,
787.6,arrowleft,psychophysics,361,510520,0.0-3.0-0.176,,key,arrowleft,16.66569565,960,468.5,177,7,-1,30,35,25,35,TRUE
null,null,psychophysics,362,511528,0.0-3.0-1.176,,key,null,16.66351667,960,468.5,,,,,,,,
1131.3,arrowright,psychophysics,363,512664,0.0-3.0-0.177,,key,arrowright,16.66258209,960,468.5,178,7,1,24,15,25,35,TRUE
null,null,psychophysics,364,513674,0.0-3.0-1.177,,key,null,16.66347458,960,468.5,,,,,,,,
1012.6,arrowright,psychophysics,365,514696,0.0-3.0-0.178,,key,arrowright,16.66288525,960,468.5,179,7,-1,25,35,25,35,FALSE
null,null,psychophysics,366,515707,0.0-3.0-1.178,,key,null,16.66391525,960,468.5,,,,,,,,
734.5,arrowleft,psychophysics,367,516448,0.0-3.0-0.179,,key,arrowleft,16.66395455,960,468.5,180,7,-1,25,15,25,35,TRUE
null,null,psychophysics,368,517460,0.0-3.0-1.179,,key,null,16.66231667,960,468.5,,,,,,,,
1343.4,arrowleft,psychophysics,369,518809,0.0-3.0-0.180,,key,arrowleft,16.66372152,960,468.5,181,7,-1,25,15,25,35,TRUE
null,null,psychophysics,370,519828,0.0-3.0-1.180,,key,null,16.66201639,960,468.5,,,,,,,,
862.4,arrowleft,psychophysics,371,520695,0.0-3.0-0.181,,key,arrowleft,16.66517647,960,468.5,182,7,1,20,15,25,35,FALSE
null,null,psychophysics,372,521700,0.0-3.0-1.181,,key,null,16.66276271,960,468.5,,,,,,,,
724,arrowright,psychophysics,373,522426,0.0-3.0-0.182,,key,arrowright,16.66323256,960,468.5,183,7,1,27,15,25,35,TRUE
null,null,psychophysics,374,523439,0.0-3.0-1.182,,key,null,16.6650339,960,468.5,,,,,,,,
679.2,arrowleft,psychophysics,375,524144,0.0-3.0-0.183,,key,arrowleft,16.66188095,960,468.5,184,7,1,24,35,25,35,FALSE
null,null,psychophysics,376,525155,0.0-3.0-1.183,,key,null,16.66386441,960,468.5,,,,,,,,
679.6,arrowleft,psychophysics,377,525847,0.0-3.0-0.184,,key,arrowleft,16.66192683,960,468.5,185,7,-1,26,15,25,35,TRUE
null,null,psychophysics,378,526855,0.0-3.0-1.184,,key,null,16.66364407,960,468.5,,,,,,,,
679.1,arrowright,psychophysics,379,527543,0.0-3.0-0.185,,key,arrowright,16.66470732,960,468.5,186,7,1,30,15,25,35,TRUE
null,null,psychophysics,380,528556,0.0-3.0-1.185,,key,null,16.66213333,960,468.5,,,,,,,,
759.4,arrowright,psychophysics,381,529319,0.0-3.0-0.186,,key,arrowright,16.66311364,960,468.5,187,7,1,27,15,25,35,TRUE
null,null,psychophysics,382,530324,0.0-3.0-1.186,,key,null,16.66593333,960,468.5,,,,,,,,
1315,arrowleft,psychophysics,383,531643,0.0-3.0-0.187,,key,arrowleft,16.66353846,960,468.5,188,7,1,23,35,25,35,FALSE
null,null,psychophysics,384,532651,0.0-3.0-1.187,,key,null,16.66315254,960,468.5,,,,,,,,
699.2,arrowright,psychophysics,385,533375,0.0-3.0-0.188,,key,arrowright,16.66211628,960,468.5,189,7,1,27,15,25,35,TRUE
null,null,psychophysics,386,534384,0.0-3.0-1.188,,key,null,16.66294915,960,468.5,,,,,,,,
3183.8,arrowright,psychophysics,387,537576,0.0-3.0-0.189,,key,arrowright,16.66397906,960,468.5,190,7,1,24,35,25,35,TRUE
null,null,psychophysics,388,538586,0.0-3.0-1.189,,key,null,16.66249153,960,468.5,,,,,,,,
1175,arrowleft,psychophysics,389,539771,0.0-3.0-0.190,,key,arrowleft,16.66248571,960,468.5,191,7,-1,24,15,25,35,TRUE
null,null,psychophysics,390,540785,0.0-3.0-1.190,,key,null,16.6633,960,468.5,,,,,,,,
3162.1,arrowright,psychophysics,391,543953,0.0-3.0-0.191,,key,arrowright,16.66346032,960,468.5,192,7,1,23,15,25,35,TRUE
null,null,psychophysics,392,544962,0.0-3.0-1.191,,key,null,16.65443333,960,468.5,,,,,,,,
881.9,arrowleft,psychophysics,393,545848,0.0-3.0-0.192,,key,arrowleft,16.66219231,960,468.5,193,7,1,23,35,25,35,FALSE
null,null,psychophysics,394,546851,0.0-3.0-1.192,,key,null,16.66405085,960,468.5,,,,,,,,
954.6,arrowright,psychophysics,395,547818,0.0-3.0-0.193,,key,arrowright,16.662,960,468.5,194,7,1,23,15,25,35,TRUE
null,null,psychophysics,396,548834,0.0-3.0-1.193,,key,null,16.66558333,960,468.5,,,,,,,,
748.4,arrowright,psychophysics,397,549592,0.0-3.0-0.194,,key,arrowright,16.66488889,960,468.5,195,7,1,25,15,25,35,TRUE
null,null,psychophysics,398,550600,0.0-3.0-1.194,,key,null,16.66415254,960,468.5,,,,,,,,
827.8,arrowright,psychophysics,399,551439,0.0-3.0-0.195,,key,arrowright,16.66096,960,468.5,196,8,-1,24,35,25,35,FALSE
null,null,psychophysics,400,552448,0.0-3.0-1.195,,key,null,16.66677966,960,468.5,,,,,,,,
2228,arrowdown,html-keyboard-response,401,554682,0.0-3.0-2.195-0.195,"<div style=""color: white; text-align: center; vertical-align: top; display: inline-block; width: 800px; margin: auto""><p>You have completed 70% of the trials. You are on block 8 of 10. <br>Good job! Take a break if you need to.</p><p>Press any key to continue the experiment.</p></div>",,,,,,,,,,,,,
1020.6,arrowleft,psychophysics,402,556736,0.0-3.0-0.196,,key,arrowleft,16.65985484,960,468.5,197,8,-1,25,15,25,35,TRUE
null,null,psychophysics,403,557746,0.0-3.0-1.196,,key,null,16.66294915,960,468.5,,,,,,,,
1529.7,arrowleft,psychophysics,404,559304,0.0-3.0-0.197,,key,arrowleft,16.66402151,960,468.5,198,8,-1,26,35,25,35,TRUE
null,null,psychophysics,405,560315,0.0-3.0-1.197,,key,null,16.66516949,960,468.5,,,,,,,,
926.2,arrowleft,psychophysics,406,561255,0.0-3.0-0.198,,key,arrowleft,16.66178571,960,468.5,199,8,-1,25,15,25,35,TRUE
null,null,psychophysics,407,562265,0.0-3.0-1.198,,key,null,16.66647458,960,468.5,,,,,,,,
1050.1,arrowright,psychophysics,408,563328,0.0-3.0-0.199,,key,arrowright,16.663,960,468.5,200,8,-1,20,35,25,35,FALSE
null,null,psychophysics,409,564334,0.0-3.0-1.199,,key,null,16.66501667,960,468.5,,,,,,,,
821.5,arrowright,psychophysics,410,565160,0.0-3.0-0.200,,key,arrowright,16.66395833,960,468.5,201,8,1,24,15,25,35,TRUE
null,null,psychophysics,411,566163,0.0-3.0-1.200,,key,null,16.66432203,960,468.5,,,,,,,,
1482.1,arrowleft,psychophysics,412,567655,0.0-3.0-0.201,,key,arrowleft,16.66323596,960,468.5,202,8,-1,26,35,25,35,TRUE
null,null,psychophysics,413,568663,0.0-3.0-1.201,,key,null,16.66486441,960,468.5,,,,,,,,
903.1,arrowleft,psychophysics,414,569575,0.0-3.0-0.202,,key,arrowleft,16.66237037,960,468.5,203,8,-1,30,15,25,35,TRUE
null,null,psychophysics,415,570580,0.0-3.0-1.202,,key,null,16.66450847,960,468.5,,,,,,,,
1113,arrowleft,psychophysics,416,571719,0.0-3.0-0.203,,key,arrowleft,16.66272059,960,468.5,204,8,1,20,15,25,35,FALSE
null,null,psychophysics,417,572729,0.0-3.0-1.203,,key,null,16.66281356,960,468.5,,,,,,,,
764.2,arrowleft,psychophysics,418,573503,0.0-3.0-0.204,,key,arrowleft,16.66293478,960,468.5,205,8,-1,30,15,25,35,TRUE
null,null,psychophysics,419,574512,0.0-3.0-1.204,,key,null,16.6650678,960,468.5,,,,,,,,
766.3,arrowright,psychophysics,420,575303,0.0-3.0-0.205,,key,arrowright,16.65991489,960,468.5,206,8,1,26,35,25,35,TRUE
null,null,psychophysics,421,576311,0.0-3.0-1.205,,key,null,16.66362712,960,468.5,,,,,,,,
780,arrowleft,psychophysics,422,577097,0.0-3.0-0.206,,key,arrowleft,16.66317391,960,468.5,207,8,1,23,35,25,35,FALSE
null,null,psychophysics,423,578107,0.0-3.0-1.206,,key,null,16.66283333,960,468.5,,,,,,,,
739,arrowleft,psychophysics,424,578848,0.0-3.0-0.207,,key,arrowleft,16.6625,960,468.5,208,8,-1,26,15,25,35,TRUE
null,null,psychophysics,425,579855,0.0-3.0-1.207,,key,null,16.66177966,960,468.5,,,,,,,,
1407.5,arrowright,psychophysics,426,581264,0.0-3.0-0.208,,key,arrowright,16.66214286,960,468.5,209,8,-1,23,35,25,35,FALSE
null,null,psychophysics,427,582271,0.0-3.0-1.208,,key,null,16.66318644,960,468.5,,,,,,,,
766.4,arrowright,psychophysics,428,583040,0.0-3.0-0.209,,key,arrowright,16.66693333,960,468.5,210,8,1,30,35,25,35,TRUE
null,null,psychophysics,429,584043,0.0-3.0-1.209,,key,null,16.66259322,960,468.5,,,,,,,,
935.3,arrowleft,psychophysics,430,584983,0.0-3.0-0.210,,key,arrowleft,16.66260714,960,468.5,211,8,-1,27,15,25,35,TRUE
null,null,psychophysics,431,585987,0.0-3.0-1.210,,key,null,16.66318644,960,468.5,,,,,,,,
1689,arrowright,psychophysics,432,587681,0.0-3.0-0.211,,key,arrowright,16.66337624,960,468.5,212,8,1,24,15,25,35,TRUE
null,null,psychophysics,433,588692,0.0-3.0-1.211,,key,null,16.6640339,960,468.5,,,,,,,,
848.4,arrowright,psychophysics,434,589551,0.0-3.0-0.212,,key,arrowright,16.66184314,960,468.5,213,8,-1,24,15,25,35,FALSE
null,null,psychophysics,435,590558,0.0-3.0-1.212,,key,null,16.663,960,468.5,,,,,,,,
786.8,arrowright,psychophysics,436,591352,0.0-3.0-0.213,,key,arrowright,16.66561702,960,468.5,214,8,-1,24,35,25,35,FALSE
null,null,psychophysics,437,592358,0.0-3.0-1.213,,key,null,16.66423729,960,468.5,,,,,,,,
692.3,arrowleft,psychophysics,438,593071,0.0-3.0-0.214,,key,arrowleft,16.66316667,960,468.5,215,8,-1,27,15,25,35,TRUE
null,null,psychophysics,439,594078,0.0-3.0-1.214,,key,null,16.66413333,960,468.5,,,,,,,,
789.3,arrowright,psychophysics,440,594871,0.0-3.0-0.215,,key,arrowright,16.66121739,960,468.5,216,8,-1,20,35,25,35,FALSE
null,null,psychophysics,441,595878,0.0-3.0-1.215,,key,null,16.66366667,960,468.5,,,,,,,,
973.7,arrowright,psychophysics,442,596855,0.0-3.0-0.216,,key,arrowright,16.66201754,960,468.5,217,8,-1,26,35,25,35,FALSE
null,null,psychophysics,443,597861,0.0-3.0-1.216,,key,null,16.66515,960,468.5,,,,,,,,
719.1,arrowright,psychophysics,444,598584,0.0-3.0-0.217,,key,arrowright,16.66480952,960,468.5,218,8,-1,20,35,25,35,FALSE
null,null,psychophysics,445,599592,0.0-3.0-1.217,,key,null,16.6628,960,468.5,,,,,,,,
820,arrowleft,psychophysics,446,600415,0.0-3.0-0.218,,key,arrowleft,16.66095833,960,468.5,219,8,-1,24,35,25,35,TRUE
null,null,psychophysics,447,601426,0.0-3.0-1.218,,key,null,16.66598333,960,468.5,,,,,,,,
920.8,arrowleft,psychophysics,448,602351,0.0-3.0-0.219,,key,arrowleft,16.66196296,960,468.5,220,8,-1,26,35,25,35,TRUE
null,null,psychophysics,449,603356,0.0-3.0-1.219,,key,null,16.66566102,960,468.5,,,,,,,,
1034,arrowright,psychophysics,450,604399,0.0-3.0-0.220,,key,arrowright,16.66219355,960,468.5,221,8,1,25,15,25,35,TRUE
null,null,psychophysics,451,605406,0.0-3.0-1.220,,key,null,16.66244068,960,468.5,,,,,,,,
1053.7,arrowleft,psychophysics,452,606487,0.0-3.0-0.221,,key,arrowleft,16.6643125,960,468.5,222,8,-1,27,35,25,35,TRUE
null,null,psychophysics,453,607492,0.0-3.0-1.221,,key,null,16.66581667,960,468.5,,,,,,,,
4278.1,arrowleft,psychophysics,454,611775,0.0-3.0-0.222,,key,arrowleft,16.66285937,960,468.5,223,8,-1,24,15,25,35,TRUE
null,null,psychophysics,455,612785,0.0-3.0-1.222,,key,null,16.66611864,960,468.5,,,,,,,,
745.6,arrowright,psychophysics,456,613543,0.0-3.0-0.223,,key,arrowright,16.66364444,960,468.5,224,9,-1,23,35,25,35,FALSE
null,null,psychophysics,457,614549,0.0-3.0-1.223,,key,null,16.66530508,960,468.5,,,,,,,,
1898.8,arrowup,html-keyboard-response,458,616450,0.0-3.0-2.223-0.223,"<div style=""color: white; text-align: center; vertical-align: top; display: inline-block; width: 800px; margin: auto""><p>You have completed 80% of the trials. You are on block 9 of 10. <br>Good job! Take a break if you need to.</p><p>Press any key to continue the experiment.</p></div>",,,,,,,,,,,,,
1274.4,arrowright,psychophysics,459,618751,0.0-3.0-0.224,,key,arrowright,16.66177632,960,468.5,225,9,1,24,15,25,35,TRUE
null,null,psychophysics,460,619755,0.0-3.0-1.224,,key,null,16.66485,960,468.5,,,,,,,,
947.7,arrowleft,psychophysics,461,620706,0.0-3.0-0.225,,key,arrowleft,16.66323214,960,468.5,226,9,-1,26,15,25,35,TRUE
null,null,psychophysics,462,621720,0.0-3.0-1.225,,key,null,16.66455,960,468.5,,,,,,,,
1146.6,arrowleft,psychophysics,463,622871,0.0-3.0-0.226,,key,arrowleft,16.66401471,960,468.5,227,9,-1,27,15,25,35,TRUE
null,null,psychophysics,464,623875,0.0-3.0-1.226,,key,null,16.66366102,960,468.5,,,,,,,,
1097.5,arrowleft,psychophysics,465,624977,0.0-3.0-0.227,,key,arrowleft,16.66193846,960,468.5,228,9,-1,27,15,25,35,TRUE
null,null,psychophysics,466,625984,0.0-3.0-1.227,,key,null,16.66498305,960,468.5,,,,,,,,
808.3,arrowright,psychophysics,467,626807,0.0-3.0-0.228,,key,arrowright,16.66381633,960,468.5,229,9,1,30,15,25,35,TRUE
null,null,psychophysics,468,627818,0.0-3.0-1.228,,key,null,16.66247458,960,468.5,,,,,,,,
2400.9,arrowright,psychophysics,469,630223,0.0-3.0-0.229,,key,arrowright,16.66342361,960,468.5,230,9,-1,20,35,25,35,FALSE
null,null,psychophysics,470,631233,0.0-3.0-1.229,,key,null,16.66233898,960,468.5,,,,,,,,
1112.9,arrowleft,psychophysics,471,632354,0.0-3.0-0.230,,key,arrowleft,16.66344776,960,468.5,231,9,-1,26,35,25,35,TRUE
null,null,psychophysics,472,633364,0.0-3.0-1.230,,key,null,16.66345763,960,468.5,,,,,,,,
654.1,arrowright,psychophysics,473,634022,0.0-3.0-0.231,,key,arrowright,16.66458974,960,468.5,232,9,1,26,15,25,35,TRUE
null,null,psychophysics,474,635035,0.0-3.0-1.231,,key,null,16.66281667,960,468.5,,,,,,,,
916.3,arrowright,psychophysics,475,635956,0.0-3.0-0.232,,key,arrowright,16.66366667,960,468.5,233,9,-1,26,35,25,35,FALSE
null,null,psychophysics,476,636965,0.0-3.0-1.232,,key,null,16.66327119,960,468.5,,,,,,,,
831.2,arrowleft,psychophysics,477,637807,0.0-3.0-0.233,,key,arrowleft,16.66112,960,468.5,234,9,1,23,35,25,35,FALSE
null,null,psychophysics,478,638818,0.0-3.0-1.233,,key,null,16.66365,960,468.5,,,,,,,,
995.9,arrowleft,psychophysics,479,639820,0.0-3.0-0.234,,key,arrowleft,16.66323729,960,468.5,235,9,1,24,35,25,35,FALSE
null,null,psychophysics,480,640831,0.0-3.0-1.234,,key,null,16.66425424,960,468.5,,,,,,,,
861.8,arrowleft,psychophysics,481,641703,0.0-3.0-0.235,,key,arrowleft,16.66121154,960,468.5,236,9,1,20,15,25,35,FALSE
null,null,psychophysics,482,642714,0.0-3.0-1.235,,key,null,16.66335593,960,468.5,,,,,,,,
1834.8,arrowleft,psychophysics,483,644559,0.0-3.0-0.236,,key,arrowleft,16.66224545,960,468.5,237,9,1,20,15,25,35,FALSE
null,null,psychophysics,484,645563,0.0-3.0-1.236,,key,null,16.6630339,960,468.5,,,,,,,,
604.3,arrowleft,psychophysics,485,646176,0.0-3.0-0.237,,key,arrowleft,16.66188889,960,468.5,238,9,-1,30,35,25,35,TRUE
null,null,psychophysics,486,647180,0.0-3.0-1.237,,key,null,16.66294915,960,468.5,,,,,,,,
688.5,arrowright,psychophysics,487,647895,0.0-3.0-0.238,,key,arrowright,16.65885714,960,468.5,239,9,-1,24,35,25,35,FALSE
null,null,psychophysics,488,648901,0.0-3.0-1.238,,key,null,16.6665,960,468.5,,,,,,,,
1652.3,arrowleft,psychophysics,489,650559,0.0-3.0-0.239,,key,arrowleft,16.66281633,960,468.5,240,9,-1,30,15,25,35,TRUE
null,null,psychophysics,490,651563,0.0-3.0-1.239,,key,null,16.66486441,960,468.5,,,,,,,,
755.1,arrowright,psychophysics,491,652328,0.0-3.0-0.240,,key,arrowright,16.66248889,960,468.5,241,9,1,30,35,25,35,TRUE
null,null,psychophysics,492,653346,0.0-3.0-1.240,,key,null,16.66291667,960,468.5,,,,,,,,
591.1,arrowright,psychophysics,493,653943,0.0-3.0-0.241,,key,arrowright,16.66128571,960,468.5,242,9,1,30,15,25,35,TRUE
null,null,psychophysics,494,654949,0.0-3.0-1.241,,key,null,16.6654,960,468.5,,,,,,,,
669.3,arrowleft,psychophysics,495,655623,0.0-3.0-0.242,,key,arrowleft,16.6644359,960,468.5,243,9,1,20,35,25,35,FALSE
null,null,psychophysics,496,656633,0.0-3.0-1.242,,key,null,16.66436667,960,468.5,,,,,,,,
678.6,arrowright,psychophysics,497,657316,0.0-3.0-0.243,,key,arrowright,16.66471795,960,468.5,244,9,-1,30,35,25,35,FALSE
null,null,psychophysics,498,658328,0.0-3.0-1.243,,key,null,16.66396667,960,468.5,,,,,,,,
618,arrowleft,psychophysics,499,658952,0.0-3.0-0.244,,key,arrowleft,16.6632973,960,468.5,245,9,-1,26,15,25,35,TRUE
null,null,psychophysics,500,659977,0.0-3.0-1.244,,key,null,16.6641,960,468.5,,,,,,,,
744.2,arrowright,psychophysics,501,660729,0.0-3.0-0.245,,key,arrowright,16.66315909,960,468.5,246,9,-1,20,15,25,35,FALSE
null,null,psychophysics,502,661744,0.0-3.0-1.245,,key,null,16.665,960,468.5,,,,,,,,
995.7,arrowright,psychophysics,503,662746,0.0-3.0-0.246,,key,arrowright,16.66357627,960,468.5,247,9,1,23,35,25,35,TRUE
null,null,psychophysics,504,663749,0.0-3.0-1.246,,key,null,16.66661667,960,468.5,,,,,,,,
644.6,arrowright,psychophysics,505,664399,0.0-3.0-0.247,,key,arrowright,16.65813158,960,468.5,248,9,-1,27,35,25,35,FALSE
null,null,psychophysics,506,665410,0.0-3.0-1.247,,key,null,16.66322034,960,468.5,,,,,,,,
924.4,arrowleft,psychophysics,507,666345,0.0-3.0-0.248,,key,arrowleft,16.66041818,960,468.5,249,9,1,20,15,25,35,FALSE
null,null,psychophysics,508,667359,0.0-3.0-1.248,,key,null,16.65843333,960,468.5,,,,,,,,
1035,arrowright,psychophysics,509,668400,0.0-3.0-0.249,,key,arrowright,16.66429032,960,468.5,250,9,1,30,35,25,35,TRUE
null,null,psychophysics,510,669426,0.0-3.0-1.249,,key,null,16.66445,960,468.5,,,,,,,,
791.5,arrowleft,psychophysics,511,670223,0.0-3.0-0.250,,key,arrowleft,16.66297872,960,468.5,251,9,-1,26,35,25,35,TRUE
null,null,psychophysics,512,671226,0.0-3.0-1.250,,key,null,16.66537288,960,468.5,,,,,,,,
955.2,arrowright,psychophysics,513,672193,0.0-3.0-0.251,,key,arrowright,16.66287719,960,468.5,252,10,1,30,35,25,35,TRUE
null,null,psychophysics,514,673206,0.0-3.0-1.251,,key,null,16.66431667,960,468.5,,,,,,,,
1722.3,arrowup,html-keyboard-response,515,674930,0.0-3.0-2.251-0.251,"<div style=""color: white; text-align: center; vertical-align: top; display: inline-block; width: 800px; margin: auto""><p>You have completed 90% of the trials. You are on block 10 of 10. <br>Good job! Take a break if you need to.</p><p>Press any key to continue the experiment.</p></div>",,,,,,,,,,,,,
1815.5,arrowright,psychophysics,516,677768,0.0-3.0-0.252,,key,arrowright,16.66194495,960,468.5,253,10,-1,25,35,25,35,FALSE
null,null,psychophysics,517,678776,0.0-3.0-1.252,,key,null,16.66325,960,468.5,,,,,,,,
483,arrowright,psychophysics,518,679264,0.0-3.0-0.253,,key,arrowright,16.66310714,960,468.5,254,10,1,26,35,25,35,TRUE
null,null,psychophysics,519,680276,0.0-3.0-1.253,,key,null,16.66541667,960,468.5,,,,,,,,
534.2,arrowright,psychophysics,520,680815,0.0-3.0-0.254,,key,arrowright,16.66109677,960,468.5,255,10,1,24,15,25,35,TRUE
null,null,psychophysics,521,681823,0.0-3.0-1.254,,key,null,16.66459322,960,468.5,,,,,,,,
2215.4,arrowleft,psychophysics,522,684048,0.0-3.0-0.255,,key,arrowleft,16.66319549,960,468.5,256,10,-1,26,15,25,35,TRUE
null,null,psychophysics,523,685055,0.0-3.0-1.255,,key,null,16.66316949,960,468.5,,,,,,,,
932.2,arrowleft,psychophysics,524,685995,0.0-3.0-0.256,,key,arrowleft,16.66351786,960,468.5,257,10,1,23,15,25,35,FALSE
null,null,psychophysics,525,687005,0.0-3.0-1.256,,key,null,16.66344068,960,468.5,,,,,,,,
1881.5,arrowleft,psychophysics,526,688911,0.0-3.0-0.257,,key,arrowleft,16.66252632,960,468.5,258,10,1,23,15,25,35,FALSE
null,null,psychophysics,527,689922,0.0-3.0-1.257,,key,null,16.66498305,960,468.5,,,,,,,,
714.1,arrowleft,psychophysics,528,690643,0.0-3.0-0.258,,key,arrowleft,16.66144186,960,468.5,259,10,1,25,15,25,35,FALSE
null,null,psychophysics,529,691659,0.0-3.0-1.258,,key,null,16.66468333,960,468.5,,,,,,,,
743.9,arrowleft,psychophysics,530,692408,0.0-3.0-0.259,,key,arrowleft,16.66422727,960,468.5,260,10,-1,30,15,25,35,TRUE
null,null,psychophysics,531,693422,0.0-3.0-1.259,,key,null,16.66462712,960,468.5,,,,,,,,
808.5,arrowright,psychophysics,532,694242,0.0-3.0-0.260,,key,arrowright,16.66095918,960,468.5,261,10,1,26,15,25,35,TRUE
null,null,psychophysics,533,695257,0.0-3.0-1.260,,key,null,16.66538333,960,468.5,,,,,,,,
1328.9,arrowleft,psychophysics,534,696591,0.0-3.0-0.261,,key,arrowleft,16.66273418,960,468.5,262,10,-1,26,15,25,35,TRUE
null,null,psychophysics,535,697604,0.0-3.0-1.261,,key,null,16.66211864,960,468.5,,,,,,,,
876.2,arrowright,psychophysics,536,698489,0.0-3.0-0.262,,key,arrowright,16.66342308,960,468.5,263,10,1,25,35,25,35,TRUE
null,null,psychophysics,537,699503,0.0-3.0-1.262,,key,null,16.66211667,960,468.5,,,,,,,,
732.2,arrowleft,psychophysics,538,700242,0.0-3.0-0.263,,key,arrowleft,16.66409091,960,468.5,264,10,-1,26,15,25,35,TRUE
null,null,psychophysics,539,701253,0.0-3.0-1.263,,key,null,16.66220339,960,468.5,,,,,,,,
1839.3,arrowleft,psychophysics,540,703121,0.0-3.0-0.264,,key,arrowleft,16.66258559,960,468.5,265,10,1,23,15,25,35,FALSE
null,null,psychophysics,541,704123,0.0-3.0-1.264,,key,null,16.66411667,960,468.5,,,,,,,,
800.4,arrowleft,psychophysics,542,704927,0.0-3.0-0.265,,key,arrowleft,16.66555319,960,468.5,266,10,-1,24,35,25,35,TRUE
null,null,psychophysics,543,705935,0.0-3.0-1.265,,key,null,16.66377966,960,468.5,,,,,,,,
814.6,arrowleft,psychophysics,544,706759,0.0-3.0-0.266,,key,arrowleft,16.66318367,960,468.5,267,10,1,25,35,25,35,FALSE
null,null,psychophysics,545,707771,0.0-3.0-1.266,,key,null,16.66395,960,468.5,,,,,,,,
815.9,arrowleft,psychophysics,546,708592,0.0-3.0-0.267,,key,arrowleft,16.66320833,960,468.5,268,10,-1,25,15,25,35,TRUE
null,null,psychophysics,547,709601,0.0-3.0-1.267,,key,null,16.66132203,960,468.5,,,,,,,,
746.2,arrowleft,psychophysics,548,710354,0.0-3.0-0.268,,key,arrowleft,16.66126667,960,468.5,269,10,1,27,35,25,35,FALSE
null,null,psychophysics,549,711367,0.0-3.0-1.268,,key,null,16.66228814,960,468.5,,,,,,,,
794.5,arrowright,psychophysics,550,712169,0.0-3.0-0.269,,key,arrowright,16.66214894,960,468.5,270,10,1,30,15,25,35,TRUE
null,null,psychophysics,551,713183,0.0-3.0-1.269,,key,null,16.66435,960,468.5,,,,,,,,
771.4,arrowright,psychophysics,552,713960,0.0-3.0-0.270,,key,arrowright,16.66463043,960,468.5,271,10,1,25,35,25,35,TRUE
null,null,psychophysics,553,714968,0.0-3.0-1.270,,key,null,16.66243333,960,468.5,,,,,,,,
1387.9,arrowleft,psychophysics,554,716359,0.0-3.0-0.271,,key,arrowleft,16.66342683,960,468.5,272,10,-1,26,35,25,35,TRUE
null,null,psychophysics,555,717369,0.0-3.0-1.271,,key,null,16.6625,960,468.5,,,,,,,,
799.9,arrowleft,psychophysics,556,718172,0.0-3.0-0.272,,key,arrowleft,16.66370213,960,468.5,273,10,-1,27,35,25,35,TRUE
null,null,psychophysics,557,719178,0.0-3.0-1.272,,key,null,16.66205085,960,468.5,,,,,,,,
1289.7,arrowleft,psychophysics,558,720471,0.0-3.0-0.273,,key,arrowleft,16.6637013,960,468.5,274,10,-1,24,15,25,35,TRUE
null,null,psychophysics,559,721485,0.0-3.0-1.273,,key,null,16.6632,960,468.5,,,,,,,,
781.6,arrowright,psychophysics,560,722271,0.0-3.0-0.274,,key,arrowright,16.66156522,960,468.5,275,10,1,30,15,25,35,TRUE
null,null,psychophysics,561,723281,0.0-3.0-1.274,,key,null,16.66298305,960,468.5,,,,,,,,
983.9,arrowright,psychophysics,562,724271,0.0-3.0-0.275,,key,arrowright,16.66322034,960,468.5,276,10,1,27,35,25,35,TRUE
null,null,psychophysics,563,725285,0.0-3.0-1.275,,key,null,16.66296667,960,468.5,,,,,,,,
781.6,arrowleft,psychophysics,564,726070,0.0-3.0-0.276,,key,arrowleft,16.66430435,960,468.5,277,10,1,23,35,25,35,FALSE
null,null,psychophysics,565,727076,0.0-3.0-1.276,,key,null,16.6640339,960,468.5,,,,,,,,
799.9,arrowleft,psychophysics,566,727878,0.0-3.0-0.277,,key,arrowleft,16.66442553,960,468.5,278,10,1,26,35,25,35,FALSE
null,null,psychophysics,567,728883,0.0-3.0-1.277,,key,null,16.66566667,960,468.5,,,,,,,,
1148.5,arrowleft,psychophysics,568,730035,0.0-3.0-0.278,,key,arrowleft,16.66272059,960,468.5,279,10,-1,27,15,25,35,TRUE
null,null,psychophysics,569,731051,0.0-3.0-1.278,,key,null,16.66445,960,468.5,,,,,,,,
704.5,arrowright,psychophysics,570,731758,0.0-3.0-0.279,,key,arrowright,16.65919512,960,468.5,280,11,1,27,15,25,35,TRUE
null,null,psychophysics,571,732768,0.0-3.0-1.279,,key,null,16.66616667,960,468.5,,,,,,,,
