rt,response,trial_type,trial_index,time_elapsed,internal_node_id,stimulus,response_type,key_press,avg_frame_time,center_x,center_y,trial,block,test_pos,test_inner_radius,test_outer_radius,ref_inner_radius,ref_outer_radius,test_bigger
9363.6,"{""p_id"":""6991"",""age"":""19"",""handedness"":""left"",""sex"":""female"",""other_sex"":""""}",survey-html-form,0,9366,0.0-0.0,,,,,,,,,,,,,,
1490.3, ,html-keyboard-response,1,10857,0.0-1.0,"<p style=""color: white"">Welcome to the Size Judgment Experiment. <br>There will be 10 blocks in this experiment. <br>There will be 28 trials in each block. <br>You will be given a chance to take a break between blocks. <br>Press any key to start the experiment.</p>",,,,,,,,,,,,,
62280.2, ,psychophysics,2,73152,0.0-2.0,,key, ,16.66623147,616.5,300.5,,,,,,,,
7841.8,arrowleft,psychophysics,3,80998,0.0-3.0-0.0,,key,arrowleft,16.66647447,616.5,300.5,1,1,-1,30,35,25,35,TRUE
null,null,psychophysics,4,82002,0.0-3.0-1.0,,key,null,16.66605085,616.5,300.5,,,,,,,,
2586.8,arrowright,psychophysics,5,84592,0.0-3.0-0.1,,key,arrowright,16.66603871,616.5,300.5,2,1,-1,23,15,25,35,FALSE
null,null,psychophysics,6,85601,0.0-3.0-1.1,,key,null,16.66610169,616.5,300.5,,,,,,,,
4620.5,arrowright,psychophysics,7,90227,0.0-3.0-0.2,,key,arrowright,16.66519856,616.5,300.5,3,1,1,20,35,25,35,TRUE
null,null,psychophysics,8,91232,0.0-3.0-1.2,,key,null,16.66610169,616.5,300.5,,,,,,,,
2822.1,arrowright,psychophysics,9,94058,0.0-3.0-0.3,,key,arrowright,16.66510651,616.5,300.5,4,1,1,23,35,25,35,TRUE
null,null,psychophysics,10,95068,0.0-3.0-1.3,,key,null,16.66571186,616.5,300.5,,,,,,,,
1352.9,arrowleft,psychophysics,11,96425,0.0-3.0-0.4,,key,arrowleft,16.66616049,616.5,300.5,5,1,-1,26,35,25,35,TRUE
null,null,psychophysics,12,97431,0.0-3.0-1.4,,key,null,16.66186441,616.5,300.5,,,,,,,,
2435.8,arrowright,psychophysics,13,99869,0.0-3.0-0.5,,key,arrowright,16.66675342,616.5,300.5,6,1,1,25,35,25,35,TRUE
null,null,psychophysics,14,100884,0.0-3.0-1.5,,key,null,16.66901695,616.5,300.5,,,,,,,,
3397.8,arrowleft,psychophysics,15,104285,0.0-3.0-0.6,,key,arrowleft,16.66613725,616.5,300.5,7,1,1,23,35,25,35,FALSE
null,null,psychophysics,16,105301,0.0-3.0-1.6,,key,null,16.65950847,616.5,300.5,,,,,,,,
1603.8,arrowleft,psychophysics,17,106909,0.0-3.0-0.7,,key,arrowleft,16.66689583,616.5,300.5,8,1,-1,25,15,25,35,TRUE
null,null,psychophysics,18,107917,0.0-3.0-1.7,,key,null,16.66820339,616.5,300.5,,,,,,,,
2343.6,arrowleft,psychophysics,19,110264,0.0-3.0-0.8,,key,arrowleft,16.66608571,616.5,300.5,9,1,1,20,35,25,35,FALSE
null,null,psychophysics,20,111267,0.0-3.0-1.8,,key,null,16.66528814,616.5,300.5,,,,,,,,
3393.8,arrowright,psychophysics,21,114665,0.0-3.0-0.9,,key,arrowright,16.66633005,616.5,300.5,10,1,1,25,15,25,35,TRUE
null,null,psychophysics,22,115667,0.0-3.0-1.9,,key,null,16.67232203,616.5,300.5,,,,,,,,
3092.3,arrowright,psychophysics,23,118764,0.0-3.0-0.10,,key,arrowright,16.66632432,616.5,300.5,11,1,-1,24,35,25,35,FALSE
null,null,psychophysics,24,119768,0.0-3.0-1.10,,key,null,16.66637288,616.5,300.5,,,,,,,,
3436.8,arrowleft,psychophysics,25,123209,0.0-3.0-0.11,,key,arrowleft,16.66529612,616.5,300.5,12,1,-1,24,15,25,35,TRUE
null,null,psychophysics,26,124218,0.0-3.0-1.11,,key,null,16.66630508,616.5,300.5,,,,,,,,
3257.8,arrowright,psychophysics,27,127480,0.0-3.0-0.12,,key,arrowright,16.66484615,616.5,300.5,13,1,1,26,15,25,35,TRUE
null,null,psychophysics,28,128484,0.0-3.0-1.12,,key,null,16.67235593,616.5,300.5,,,,,,,,
5862,arrowright,psychophysics,29,134349,0.0-3.0-0.13,,key,arrowright,16.6665641,616.5,300.5,14,1,-1,25,15,25,35,FALSE
null,null,psychophysics,30,135351,0.0-3.0-1.13,,key,null,16.66754237,616.5,300.5,,,,,,,,
3465.8,arrowright,psychophysics,31,138822,0.0-3.0-0.14,,key,arrowright,16.66638462,616.5,300.5,15,1,-1,24,35,25,35,FALSE
null,null,psychophysics,32,139834,0.0-3.0-1.14,,key,null,16.66581356,616.5,300.5,,,,,,,,
1265,arrowright,psychophysics,33,141103,0.0-3.0-0.15,,key,arrowright,16.66507895,616.5,300.5,16,1,1,30,35,25,35,TRUE
null,null,psychophysics,34,142117,0.0-3.0-1.15,,key,null,16.67242373,616.5,300.5,,,,,,,,
1797.3,arrowleft,psychophysics,35,143919,0.0-3.0-0.16,,key,arrowleft,16.66628704,616.5,300.5,17,1,-1,24,15,25,35,TRUE
null,null,psychophysics,36,144934,0.0-3.0-1.16,,key,null,16.66620339,616.5,300.5,,,,,,,,
2119.8,arrowleft,psychophysics,37,147058,0.0-3.0-0.17,,key,arrowleft,16.66448031,616.5,300.5,18,1,-1,26,35,25,35,TRUE
null,null,psychophysics,38,148063,0.0-3.0-1.17,,key,null,16.65942373,616.5,300.5,,,,,,,,
1020.4,arrowright,psychophysics,39,149086,0.0-3.0-0.18,,key,arrowright,16.66672131,616.5,300.5,19,1,1,27,15,25,35,TRUE
null,null,psychophysics,40,150098,0.0-3.0-1.18,,key,null,16.66949153,616.5,300.5,,,,,,,,
1870.4,arrowleft,psychophysics,41,151970,0.0-3.0-0.19,,key,arrowleft,16.66613393,616.5,300.5,20,1,-1,26,35,25,35,TRUE
null,null,psychophysics,42,152984,0.0-3.0-1.19,,key,null,16.66618644,616.5,300.5,,,,,,,,
3251.3,arrowleft,psychophysics,43,156239,0.0-3.0-0.20,,key,arrowleft,16.66511282,616.5,300.5,21,1,1,24,15,25,35,FALSE
null,null,psychophysics,44,157249,0.0-3.0-1.20,,key,null,16.66918644,616.5,300.5,,,,,,,,
930.9,arrowright,psychophysics,45,158185,0.0-3.0-0.21,,key,arrowright,16.66619643,616.5,300.5,22,1,1,30,35,25,35,TRUE
null,null,psychophysics,46,159200,0.0-3.0-1.21,,key,null,16.66577966,616.5,300.5,,,,,,,,
1872.9,arrowleft,psychophysics,47,161077,0.0-3.0-0.22,,key,arrowleft,16.66611607,616.5,300.5,23,1,1,20,35,25,35,FALSE
null,null,psychophysics,48,162084,0.0-3.0-1.22,,key,null,16.66244068,616.5,300.5,,,,,,,,
2649.2,arrowleft,psychophysics,49,164737,0.0-3.0-0.23,,key,arrowleft,16.66757233,616.5,300.5,24,1,-1,23,15,25,35,TRUE
null,null,psychophysics,50,165750,0.0-3.0-1.23,,key,null,16.66728814,616.5,300.5,,,,,,,,
1462.7,arrowleft,psychophysics,51,167217,0.0-3.0-0.24,,key,arrowleft,16.6672069,616.5,300.5,25,1,-1,30,35,25,35,TRUE
null,null,psychophysics,52,168233,0.0-3.0-1.24,,key,null,16.6662,616.5,300.5,,,,,,,,
2770,arrowright,psychophysics,53,171008,0.0-3.0-0.25,,key,arrowright,16.66629518,616.5,300.5,26,1,-1,23,35,25,35,FALSE
null,null,psychophysics,54,172017,0.0-3.0-1.25,,key,null,16.66477966,616.5,300.5,,,,,,,,
3057.7,arrowright,psychophysics,55,175079,0.0-3.0-0.26,,key,arrowright,16.66586339,616.5,300.5,27,1,-1,20,35,25,35,FALSE
null,null,psychophysics,56,176084,0.0-3.0-1.26,,key,null,16.66645763,616.5,300.5,,,,,,,,
1015.7,arrowleft,psychophysics,57,177102,0.0-3.0-0.27,,key,arrowleft,16.67047541,616.5,300.5,28,2,-1,24,35,25,35,TRUE
null,null,psychophysics,58,178117,0.0-3.0-1.27,,key,null,16.66559322,616.5,300.5,,,,,,,,
191169.6, ,html-keyboard-response,59,369288,0.0-3.0-2.27-0.27,"<div style=""color: white; text-align: center; vertical-align: top; display: inline-block; width: 800px; margin: auto""><p>You have completed 10% of the trials. You are on block 2 of 10. <br>Good job! Take a break if you need to.</p><p>Press any key to continue the experiment.</p></div>",,,,,,,,,,,,,
6702.5,arrowleft,psychophysics,60,376998,0.0-3.0-0.28,,key,arrowleft,16.66631343,616.5,300.5,29,2,-1,26,15,25,35,TRUE
null,null,psychophysics,61,378013,0.0-3.0-1.28,,key,null,16.66688136,616.5,300.5,,,,,,,,
1827.3,arrowleft,psychophysics,62,379844,0.0-3.0-0.29,,key,arrowleft,16.6656789,616.5,300.5,30,2,-1,27,35,25,35,TRUE
null,null,psychophysics,63,380846,0.0-3.0-1.29,,key,null,16.67374576,616.5,300.5,,,,,,,,
3136.5,arrowleft,psychophysics,64,383987,0.0-3.0-0.30,,key,arrowleft,16.66476064,616.5,300.5,31,2,-1,30,15,25,35,TRUE
null,null,psychophysics,65,384996,0.0-3.0-1.30,,key,null,16.66688136,616.5,300.5,,,,,,,,
2340.9,arrowleft,psychophysics,66,387341,0.0-3.0-0.31,,key,arrowleft,16.66625,616.5,300.5,32,2,1,20,35,25,35,FALSE
null,null,psychophysics,67,388346,0.0-3.0-1.31,,key,null,16.66794915,616.5,300.5,,,,,,,,
1087.9,arrowright,psychophysics,68,389437,0.0-3.0-0.32,,key,arrowright,16.66463077,616.5,300.5,33,2,1,26,15,25,35,TRUE
null,null,psychophysics,69,390446,0.0-3.0-1.32,,key,null,16.66484746,616.5,300.5,,,,,,,,
1633.7,arrowleft,psychophysics,70,392083,0.0-3.0-0.33,,key,arrowleft,16.66618367,616.5,300.5,34,2,-1,27,15,25,35,TRUE
null,null,psychophysics,71,393096,0.0-3.0-1.33,,key,null,16.66630508,616.5,300.5,,,,,,,,
1211.3,arrowright,psychophysics,72,394311,0.0-3.0-0.34,,key,arrowright,16.66633333,616.5,300.5,35,2,-1,23,35,25,35,FALSE
null,null,psychophysics,73,395313,0.0-3.0-1.34,,key,null,16.6662,616.5,300.5,,,,,,,,
1498.7,arrowright,psychophysics,74,396814,0.0-3.0-0.35,,key,arrowright,16.66711236,616.5,300.5,36,2,-1,20,15,25,35,FALSE
null,null,psychophysics,75,397826,0.0-3.0-1.35,,key,null,16.66632203,616.5,300.5,,,,,,,,
879.8,arrowleft,psychophysics,76,398708,0.0-3.0-0.36,,key,arrowleft,16.66673077,616.5,300.5,37,2,-1,27,35,25,35,TRUE
null,null,psychophysics,77,399712,0.0-3.0-1.36,,key,null,16.66557627,616.5,300.5,,,,,,,,
990.3,arrowright,psychophysics,78,400707,0.0-3.0-0.37,,key,arrowright,16.66474576,616.5,300.5,38,2,-1,23,35,25,35,FALSE
null,null,psychophysics,79,401712,0.0-3.0-1.37,,key,null,16.66581356,616.5,300.5,,,,,,,,
853.6,arrowleft,psychophysics,80,402570,0.0-3.0-0.38,,key,arrowleft,16.66703922,616.5,300.5,39,2,-1,26,35,25,35,TRUE
null,null,psychophysics,81,403579,0.0-3.0-1.38,,key,null,16.66571186,616.5,300.5,,,,,,,,
830.8,arrowright,psychophysics,82,404416,0.0-3.0-0.39,,key,arrowright,16.66752,616.5,300.5,40,2,1,24,15,25,35,TRUE
null,null,psychophysics,83,405429,0.0-3.0-1.39,,key,null,16.66730508,616.5,300.5,,,,,,,,
672.7,arrowright,psychophysics,84,406105,0.0-3.0-0.40,,key,arrowright,16.668425,616.5,300.5,41,2,1,23,15,25,35,TRUE
null,null,psychophysics,85,407112,0.0-3.0-1.40,,key,null,16.66408475,616.5,300.5,,,,,,,,
915.8,arrowright,psychophysics,86,408031,0.0-3.0-0.41,,key,arrowright,16.66965455,616.5,300.5,42,2,1,25,15,25,35,TRUE
null,null,psychophysics,87,409034,0.0-3.0-1.41,,key,null,16.66898305,616.5,300.5,,,,,,,,
873.5,arrowleft,psychophysics,88,409909,0.0-3.0-0.42,,key,arrowleft,16.66647059,616.5,300.5,43,2,-1,26,15,25,35,TRUE
null,null,psychophysics,89,410912,0.0-3.0-1.42,,key,null,16.6659322,616.5,300.5,,,,,,,,
1139.5,arrowright,psychophysics,90,412056,0.0-3.0-0.43,,key,arrowright,16.66647059,616.5,300.5,44,2,-1,20,15,25,35,FALSE
null,null,psychophysics,91,413062,0.0-3.0-1.43,,key,null,16.66654237,616.5,300.5,,,,,,,,
848.5,arrowleft,psychophysics,92,413915,0.0-3.0-0.44,,key,arrowleft,16.66788235,616.5,300.5,45,2,1,20,15,25,35,FALSE
null,null,psychophysics,93,414929,0.0-3.0-1.44,,key,null,16.65816949,616.5,300.5,,,,,,,,
888.1,arrowright,psychophysics,94,415821,0.0-3.0-0.45,,key,arrowright,16.66515094,616.5,300.5,46,2,-1,20,15,25,35,FALSE
null,null,psychophysics,95,416829,0.0-3.0-1.45,,key,null,16.66527119,616.5,300.5,,,,,,,,
725.5,arrowleft,psychophysics,96,417557,0.0-3.0-0.46,,key,arrowleft,16.66481395,616.5,300.5,47,2,1,23,35,25,35,FALSE
null,null,psychophysics,97,418562,0.0-3.0-1.46,,key,null,16.66564407,616.5,300.5,,,,,,,,
1321.5,arrowright,psychophysics,98,419888,0.0-3.0-0.47,,key,arrowright,16.66636709,616.5,300.5,48,2,1,24,35,25,35,TRUE
null,null,psychophysics,99,420895,0.0-3.0-1.47,,key,null,16.65923729,616.5,300.5,,,,,,,,
767.2,arrowright,psychophysics,100,421669,0.0-3.0-0.48,,key,arrowright,16.6666087,616.5,300.5,49,2,1,30,15,25,35,TRUE
null,null,psychophysics,101,422679,0.0-3.0-1.48,,key,null,16.66662712,616.5,300.5,,,,,,,,
2230.9,arrowright,psychophysics,102,424914,0.0-3.0-0.49,,key,arrowright,16.66619403,616.5,300.5,50,2,1,27,35,25,35,TRUE
null,null,psychophysics,103,425925,0.0-3.0-1.49,,key,null,16.66705085,616.5,300.5,,,,,,,,
980.9,arrowleft,psychophysics,104,426909,0.0-3.0-0.50,,key,arrowleft,16.66672414,616.5,300.5,51,2,1,23,35,25,35,FALSE
null,null,psychophysics,105,427912,0.0-3.0-1.50,,key,null,16.66854237,616.5,300.5,,,,,,,,
865.8,arrowleft,psychophysics,106,428781,0.0-3.0-0.51,,key,arrowleft,16.66451923,616.5,300.5,52,2,-1,27,15,25,35,TRUE
null,null,psychophysics,107,429796,0.0-3.0-1.51,,key,null,16.66984746,616.5,300.5,,,,,,,,
823.5,arrowleft,psychophysics,108,430623,0.0-3.0-0.52,,key,arrowleft,16.66942857,616.5,300.5,53,2,-1,30,35,25,35,TRUE
null,null,psychophysics,109,431628,0.0-3.0-1.52,,key,null,16.66754237,616.5,300.5,,,,,,,,
778.4,arrowright,psychophysics,110,432411,0.0-3.0-0.53,,key,arrowright,16.66673913,616.5,300.5,54,2,1,26,15,25,35,TRUE
null,null,psychophysics,111,433413,0.0-3.0-1.53,,key,null,16.66718333,616.5,300.5,,,,,,,,
1069,arrowleft,psychophysics,112,434484,0.0-3.0-0.54,,key,arrowleft,16.66612698,616.5,300.5,55,2,1,23,35,25,35,FALSE
null,null,psychophysics,113,435488,0.0-3.0-1.54,,key,null,16.667,616.5,300.5,,,,,,,,
731.8,arrowright,psychophysics,114,436223,0.0-3.0-0.55,,key,arrowright,16.66802326,616.5,300.5,56,3,1,27,35,25,35,TRUE
null,null,psychophysics,115,437229,0.0-3.0-1.55,,key,null,16.66559322,616.5,300.5,,,,,,,,
284739.3, ,html-keyboard-response,116,721969,0.0-3.0-2.55-0.55,"<div style=""color: white; text-align: center; vertical-align: top; display: inline-block; width: 800px; margin: auto""><p>You have completed 20% of the trials. You are on block 3 of 10. <br>Good job! Take a break if you need to.</p><p>Press any key to continue the experiment.</p></div>",,,,,,,,,,,,,
3851,arrowleft,psychophysics,117,726831,0.0-3.0-0.56,,key,arrowleft,16.66844589,616.5,300.5,57,3,-1,27,15,25,35,TRUE
null,null,psychophysics,118,727839,0.0-3.0-1.56,,key,null,16.66623729,616.5,300.5,,,,,,,,
930.6,arrowleft,psychophysics,119,728775,0.0-3.0-0.57,,key,arrowleft,16.66601786,616.5,300.5,58,3,-1,30,35,25,35,TRUE
null,null,psychophysics,120,729789,0.0-3.0-1.57,,key,null,16.66572881,616.5,300.5,,,,,,,,
897.8,arrowright,psychophysics,121,730691,0.0-3.0-0.58,,key,arrowright,16.66759259,616.5,300.5,59,3,1,25,35,25,35,TRUE
null,null,psychophysics,122,731705,0.0-3.0-1.58,,key,null,16.66528814,616.5,300.5,,,,,,,,
1083.4,arrowleft,psychophysics,123,732793,0.0-3.0-0.59,,key,arrowleft,16.66621538,616.5,300.5,60,3,1,23,35,25,35,FALSE
null,null,psychophysics,124,733799,0.0-3.0-1.59,,key,null,16.66594915,616.5,300.5,,,,,,,,
729.7,arrowright,psychophysics,125,734531,0.0-3.0-0.60,,key,arrowright,16.66444186,616.5,300.5,61,3,1,30,35,25,35,TRUE
null,null,psychophysics,126,735536,0.0-3.0-1.60,,key,null,16.66545763,616.5,300.5,,,,,,,,
1583.8,arrowright,psychophysics,127,737122,0.0-3.0-0.61,,key,arrowright,16.66575532,616.5,300.5,62,3,1,26,15,25,35,TRUE
null,null,psychophysics,128,738123,0.0-3.0-1.61,,key,null,16.66725,616.5,300.5,,,,,,,,
3471.9,arrowleft,psychophysics,129,741597,0.0-3.0-0.62,,key,arrowleft,16.666343,616.5,300.5,63,3,-1,24,35,25,35,TRUE
null,null,psychophysics,130,742606,0.0-3.0-1.62,,key,null,16.66359322,616.5,300.5,,,,,,,,
792.4,arrowleft,psychophysics,131,743402,0.0-3.0-0.63,,key,arrowleft,16.67340426,616.5,300.5,64,3,1,23,35,25,35,FALSE
null,null,psychophysics,132,744406,0.0-3.0-1.63,,key,null,16.66823729,616.5,300.5,,,,,,,,
776.4,arrowright,psychophysics,133,745186,0.0-3.0-0.64,,key,arrowright,16.6658913,616.5,300.5,65,3,1,26,15,25,35,TRUE
null,null,psychophysics,134,746189,0.0-3.0-1.64,,key,null,16.67176271,616.5,300.5,,,,,,,,
796.4,arrowright,psychophysics,135,746990,0.0-3.0-0.65,,key,arrowright,16.6588125,616.5,300.5,66,3,1,30,35,25,35,TRUE
null,null,psychophysics,136,748006,0.0-3.0-1.65,,key,null,16.66616949,616.5,300.5,,,,,,,,
973.6,arrowleft,psychophysics,137,748983,0.0-3.0-0.66,,key,arrowleft,16.66455172,616.5,300.5,67,3,1,20,35,25,35,FALSE
null,null,psychophysics,138,749989,0.0-3.0-1.66,,key,null,16.67132203,616.5,300.5,,,,,,,,
686.1,arrowleft,psychophysics,139,750679,0.0-3.0-0.67,,key,arrowleft,16.66656098,616.5,300.5,68,3,-1,27,35,25,35,TRUE
null,null,psychophysics,140,751689,0.0-3.0-1.67,,key,null,16.66984746,616.5,300.5,,,,,,,,
998.7,arrowright,psychophysics,141,752691,0.0-3.0-0.68,,key,arrowright,16.66083333,616.5,300.5,69,3,-1,23,35,25,35,FALSE
null,null,psychophysics,142,753699,0.0-3.0-1.68,,key,null,16.66728814,616.5,300.5,,,,,,,,
1219.6,arrowright,psychophysics,143,754920,0.0-3.0-0.69,,key,arrowright,16.66884722,616.5,300.5,70,3,-1,23,35,25,35,FALSE
null,null,psychophysics,144,755922,0.0-3.0-1.69,,key,null,16.66728814,616.5,300.5,,,,,,,,
965.1,arrowleft,psychophysics,145,756892,0.0-3.0-0.70,,key,arrowleft,16.66777586,616.5,300.5,71,3,1,25,35,25,35,FALSE
null,null,psychophysics,146,757905,0.0-3.0-1.70,,key,null,16.6660678,616.5,300.5,,,,,,,,
1206.5,arrowleft,psychophysics,147,759116,0.0-3.0-0.71,,key,arrowleft,16.66638889,616.5,300.5,72,3,-1,23,15,25,35,TRUE
null,null,psychophysics,148,760122,0.0-3.0-1.71,,key,null,16.66588136,616.5,300.5,,,,,,,,
2252.2,arrowleft,psychophysics,149,762378,0.0-3.0-0.72,,key,arrowleft,16.66641481,616.5,300.5,73,3,1,24,35,25,35,FALSE
null,null,psychophysics,150,763384,0.0-3.0-1.72,,key,null,16.66567797,616.5,300.5,,,,,,,,
787,arrowleft,psychophysics,151,764173,0.0-3.0-0.73,,key,arrowleft,16.66623404,616.5,300.5,74,3,-1,30,15,25,35,TRUE
null,null,psychophysics,152,765184,0.0-3.0-1.73,,key,null,16.66645763,616.5,300.5,,,,,,,,
803.5,arrowright,psychophysics,153,765990,0.0-3.0-0.74,,key,arrowright,16.6708125,616.5,300.5,75,3,1,26,35,25,35,TRUE
null,null,psychophysics,154,766997,0.0-3.0-1.74,,key,null,16.66486441,616.5,300.5,,,,,,,,
1164.5,arrowleft,psychophysics,155,768164,0.0-3.0-0.75,,key,arrowleft,16.67288406,616.5,300.5,76,3,1,20,35,25,35,FALSE
null,null,psychophysics,156,769172,0.0-3.0-1.75,,key,null,16.66510169,616.5,300.5,,,,,,,,
5355.4,arrowright,psychophysics,157,774531,0.0-3.0-0.76,,key,arrowright,16.66688162,616.5,300.5,77,3,1,25,15,25,35,TRUE
null,null,psychophysics,158,775539,0.0-3.0-1.76,,key,null,16.66638983,616.5,300.5,,,,,,,,
977.7,arrowleft,psychophysics,159,776521,0.0-3.0-0.77,,key,arrowleft,16.66693103,616.5,300.5,78,3,1,24,15,25,35,FALSE
null,null,psychophysics,160,777523,0.0-3.0-1.77,,key,null,16.67101695,616.5,300.5,,,,,,,,
2092.1,arrowright,psychophysics,161,779619,0.0-3.0-0.78,,key,arrowright,16.666448,616.5,300.5,79,3,1,27,15,25,35,TRUE
null,null,psychophysics,162,780623,0.0-3.0-1.78,,key,null,16.67040678,616.5,300.5,,,,,,,,
2399.2,arrowleft,psychophysics,163,783026,0.0-3.0-0.79,,key,arrowleft,16.66661111,616.5,300.5,80,3,-1,25,35,25,35,TRUE
null,null,psychophysics,164,784039,0.0-3.0-1.79,,key,null,16.66594915,616.5,300.5,,,,,,,,
940.5,arrowright,psychophysics,165,784984,0.0-3.0-0.80,,key,arrowright,16.66653571,616.5,300.5,81,3,1,30,15,25,35,TRUE
null,null,psychophysics,166,785989,0.0-3.0-1.80,,key,null,16.66620339,616.5,300.5,,,,,,,,
2023.2,arrowleft,psychophysics,167,788015,0.0-3.0-0.81,,key,arrowleft,16.66736364,616.5,300.5,82,3,1,30,15,25,35,FALSE
null,null,psychophysics,168,789023,0.0-3.0-1.81,,key,null,16.66569492,616.5,300.5,,,,,,,,
1051.4,arrowleft,psychophysics,169,790078,0.0-3.0-0.82,,key,arrowleft,16.66634921,616.5,300.5,83,3,-1,25,35,25,35,TRUE
null,null,psychophysics,170,791087,0.0-3.0-1.82,,key,null,16.66857627,616.5,300.5,,,,,,,,
865.3,arrowleft,psychophysics,171,791954,0.0-3.0-0.83,,key,arrowleft,16.67080392,616.5,300.5,84,4,-1,23,15,25,35,TRUE
null,null,psychophysics,172,792956,0.0-3.0-1.83,,key,null,16.67211864,616.5,300.5,,,,,,,,
518338.6, ,html-keyboard-response,173,1311296,0.0-3.0-2.83-0.83,"<div style=""color: white; text-align: center; vertical-align: top; display: inline-block; width: 800px; margin: auto""><p>You have completed 30% of the trials. You are on block 4 of 10. <br>Good job! Take a break if you need to.</p><p>Press any key to continue the experiment.</p></div>",,,,,,,,,,,,,
2140.2,arrowright,psychophysics,174,1314449,0.0-3.0-0.84,,key,arrowright,16.67049612,616.5,300.5,85,4,1,24,15,25,35,TRUE
null,null,psychophysics,175,1315454,0.0-3.0-1.84,,key,null,16.66583051,616.5,300.5,,,,,,,,
1235.9,arrowleft,psychophysics,176,1316691,0.0-3.0-0.85,,key,arrowleft,16.66553425,616.5,300.5,86,4,1,24,35,25,35,FALSE
null,null,psychophysics,177,1317693,0.0-3.0-1.85,,key,null,16.66637288,616.5,300.5,,,,,,,,
4126.5,arrowleft,psychophysics,178,1321824,0.0-3.0-0.86,,key,arrowleft,16.66678138,616.5,300.5,87,4,1,24,15,25,35,FALSE
null,null,psychophysics,179,1322830,0.0-3.0-1.86,,key,null,16.66901695,616.5,300.5,,,,,,,,
848.4,arrowleft,psychophysics,180,1323682,0.0-3.0-0.87,,key,arrowleft,16.66531373,616.5,300.5,88,4,-1,26,15,25,35,TRUE
null,null,psychophysics,181,1324686,0.0-3.0-1.87,,key,null,16.66808475,616.5,300.5,,,,,,,,
1159.2,arrowleft,psychophysics,182,1325847,0.0-3.0-0.88,,key,arrowleft,16.66633333,616.5,300.5,89,4,1,20,35,25,35,FALSE
null,null,psychophysics,183,1326848,0.0-3.0-1.88,,key,null,16.67152542,616.5,300.5,,,,,,,,
860.1,arrowright,psychophysics,184,1327710,0.0-3.0-0.89,,key,arrowright,16.6651,616.5,300.5,90,4,-1,26,35,25,35,FALSE
null,null,psychophysics,185,1328713,0.0-3.0-1.89,,key,null,16.66725424,616.5,300.5,,,,,,,,
631,arrowright,psychophysics,186,1329346,0.0-3.0-0.90,,key,arrowright,16.66632432,616.5,300.5,91,4,-1,20,35,25,35,FALSE
null,null,psychophysics,187,1330347,0.0-3.0-1.90,,key,null,16.66565,616.5,300.5,,,,,,,,
1277.3,arrowleft,psychophysics,188,1331626,0.0-3.0-0.91,,key,arrowleft,16.66630667,616.5,300.5,92,4,1,26,35,25,35,FALSE
null,null,psychophysics,189,1332629,0.0-3.0-1.91,,key,null,16.66772881,616.5,300.5,,,,,,,,
936.6,arrowleft,psychophysics,190,1333570,0.0-3.0-0.92,,key,arrowleft,16.66626786,616.5,300.5,93,4,-1,30,15,25,35,TRUE
null,null,psychophysics,191,1334574,0.0-3.0-1.92,,key,null,16.67177966,616.5,300.5,,,,,,,,
1578.4,arrowright,psychophysics,192,1336155,0.0-3.0-0.93,,key,arrowright,16.66671277,616.5,300.5,94,4,-1,24,15,25,35,FALSE
null,null,psychophysics,193,1337158,0.0-3.0-1.93,,key,null,16.66933898,616.5,300.5,,,,,,,,
764.7,arrowright,psychophysics,194,1337925,0.0-3.0-0.94,,key,arrowright,16.66675556,616.5,300.5,95,4,1,26,35,25,35,TRUE
null,null,psychophysics,195,1338929,0.0-3.0-1.94,,key,null,16.66672881,616.5,300.5,,,,,,,,
880.6,arrowleft,psychophysics,196,1339814,0.0-3.0-0.95,,key,arrowleft,16.66598113,616.5,300.5,96,4,-1,25,35,25,35,TRUE
null,null,psychophysics,197,1340822,0.0-3.0-1.95,,key,null,16.66789831,616.5,300.5,,,,,,,,
841.7,arrowright,psychophysics,198,1341666,0.0-3.0-0.96,,key,arrowright,16.6651,616.5,300.5,97,4,1,30,15,25,35,TRUE
null,null,psychophysics,199,1342670,0.0-3.0-1.96,,key,null,16.66781356,616.5,300.5,,,,,,,,
1115.1,arrowleft,psychophysics,200,1343788,0.0-3.0-0.97,,key,arrowleft,16.66707576,616.5,300.5,98,4,-1,27,35,25,35,TRUE
null,null,psychophysics,201,1344789,0.0-3.0-1.97,,key,null,16.6650678,616.5,300.5,,,,,,,,
981.2,arrowright,psychophysics,202,1345773,0.0-3.0-0.98,,key,arrowright,16.66398276,616.5,300.5,99,4,-1,20,35,25,35,FALSE
null,null,psychophysics,203,1346779,0.0-3.0-1.98,,key,null,16.66783051,616.5,300.5,,,,,,,,
974,arrowleft,psychophysics,204,1347756,0.0-3.0-0.99,,key,arrowleft,16.66562069,616.5,300.5,100,4,1,25,15,25,35,FALSE
null,null,psychophysics,205,1348762,0.0-3.0-1.99,,key,null,16.66577966,616.5,300.5,,,,,,,,
908.8,arrowright,psychophysics,206,1349673,0.0-3.0-0.100,,key,arrowright,16.66737037,616.5,300.5,101,4,1,26,35,25,35,TRUE
null,null,psychophysics,207,1350679,0.0-3.0-1.100,,key,null,16.66549153,616.5,300.5,,,,,,,,
965,arrowright,psychophysics,208,1351647,0.0-3.0-0.101,,key,arrowright,16.66517241,616.5,300.5,102,4,-1,23,35,25,35,FALSE
null,null,psychophysics,209,1352654,0.0-3.0-1.101,,key,null,16.66564407,616.5,300.5,,,,,,,,
725.1,arrowleft,psychophysics,210,1353381,0.0-3.0-0.102,,key,arrowleft,16.66623256,616.5,300.5,103,4,-1,30,15,25,35,TRUE
null,null,psychophysics,211,1354390,0.0-3.0-1.102,,key,null,16.66510169,616.5,300.5,,,,,,,,
990.2,arrowleft,psychophysics,212,1355383,0.0-3.0-0.103,,key,arrowleft,16.66642373,616.5,300.5,104,4,1,20,35,25,35,FALSE
null,null,psychophysics,213,1356390,0.0-3.0-1.103,,key,null,16.66927119,616.5,300.5,,,,,,,,
639.5,arrowleft,psychophysics,214,1357032,0.0-3.0-0.104,,key,arrowleft,16.66634211,616.5,300.5,105,4,-1,30,15,25,35,TRUE
null,null,psychophysics,215,1358038,0.0-3.0-1.104,,key,null,16.66928814,616.5,300.5,,,,,,,,
1026.1,arrowleft,psychophysics,216,1359066,0.0-3.0-0.105,,key,arrowleft,16.66508197,616.5,300.5,106,4,1,23,35,25,35,FALSE
null,null,psychophysics,217,1360070,0.0-3.0-1.105,,key,null,16.66118644,616.5,300.5,,,,,,,,
683.7,arrowleft,psychophysics,218,1360756,0.0-3.0-0.106,,key,arrowleft,16.677525,616.5,300.5,107,4,-1,26,15,25,35,TRUE
null,null,psychophysics,219,1361758,0.0-3.0-1.106,,key,null,16.66737288,616.5,300.5,,,,,,,,
770.7,arrowleft,psychophysics,220,1362531,0.0-3.0-0.107,,key,arrowleft,16.66723913,616.5,300.5,108,4,1,20,15,25,35,FALSE
null,null,psychophysics,221,1363534,0.0-3.0-1.107,,key,null,16.66608475,616.5,300.5,,,,,,,,
1208.4,arrowleft,psychophysics,222,1364746,0.0-3.0-0.108,,key,arrowleft,16.66556944,616.5,300.5,109,4,-1,24,15,25,35,TRUE
null,null,psychophysics,223,1365747,0.0-3.0-1.108,,key,null,16.66238983,616.5,300.5,,,,,,,,
811.7,arrowright,psychophysics,224,1366561,0.0-3.0-0.109,,key,arrowright,16.67029787,616.5,300.5,110,4,-1,25,35,25,35,FALSE
null,null,psychophysics,225,1367562,0.0-3.0-1.109,,key,null,16.66591525,616.5,300.5,,,,,,,,
590.7,arrowleft,psychophysics,226,1368156,0.0-3.0-0.110,,key,arrowleft,16.66454286,616.5,300.5,111,4,1,20,35,25,35,FALSE
null,null,psychophysics,227,1369162,0.0-3.0-1.110,,key,null,16.67005085,616.5,300.5,,,,,,,,
808.5,arrowleft,psychophysics,228,1369974,0.0-3.0-0.111,,key,arrowleft,16.66679167,616.5,300.5,112,5,1,20,15,25,35,FALSE
null,null,psychophysics,229,1370979,0.0-3.0-1.111,,key,null,16.67067797,616.5,300.5,,,,,,,,
365112.1, ,html-keyboard-response,230,1736093,0.0-3.0-2.111-0.111,"<div style=""color: white; text-align: center; vertical-align: top; display: inline-block; width: 800px; margin: auto""><p>You have completed 40% of the trials. You are on block 5 of 10. <br>Good job! Take a break if you need to.</p><p>Press any key to continue the experiment.</p></div>",,,,,,,,,,,,,
3752.4,arrowleft,psychophysics,231,1740863,0.0-3.0-0.112,,key,arrowleft,16.66721681,616.5,300.5,113,5,1,20,15,25,35,FALSE
null,null,psychophysics,232,1741872,0.0-3.0-1.112,,key,null,16.66710169,616.5,300.5,,,,,,,,
1197.5,arrowleft,psychophysics,233,1743074,0.0-3.0-0.113,,key,arrowleft,16.66706944,616.5,300.5,114,5,-1,27,35,25,35,TRUE
null,null,psychophysics,234,1744089,0.0-3.0-1.113,,key,null,16.66530508,616.5,300.5,,,,,,,,
1517.4,arrowleft,psychophysics,235,1745610,0.0-3.0-0.114,,key,arrowleft,16.66658242,616.5,300.5,115,5,-1,27,35,25,35,TRUE
null,null,psychophysics,236,1746617,0.0-3.0-1.114,,key,null,16.66515254,616.5,300.5,,,,,,,,
2806,arrowleft,psychophysics,237,1749425,0.0-3.0-0.115,,key,arrowleft,16.66614286,616.5,300.5,116,5,-1,25,35,25,35,TRUE
null,null,psychophysics,238,1750436,0.0-3.0-1.115,,key,null,16.66611864,616.5,300.5,,,,,,,,
1360.7,arrowright,psychophysics,239,1751800,0.0-3.0-0.116,,key,arrowright,16.66664198,616.5,300.5,117,5,1,25,35,25,35,TRUE
null,null,psychophysics,240,1752806,0.0-3.0-1.116,,key,null,16.6649661,616.5,300.5,,,,,,,,
899.3,arrowright,psychophysics,241,1753709,0.0-3.0-0.117,,key,arrowright,16.66672222,616.5,300.5,118,5,1,27,15,25,35,TRUE
null,null,psychophysics,242,1754717,0.0-3.0-1.117,,key,null,16.66516949,616.5,300.5,,,,,,,,
730.4,arrowleft,psychophysics,243,1755450,0.0-3.0-0.118,,key,arrowleft,16.66634884,616.5,300.5,119,5,-1,27,15,25,35,TRUE
null,null,psychophysics,244,1756456,0.0-3.0-1.118,,key,null,16.66771186,616.5,300.5,,,,,,,,
643.6,arrowright,psychophysics,245,1757102,0.0-3.0-0.119,,key,arrowright,16.66231579,616.5,300.5,120,5,1,30,35,25,35,TRUE
null,null,psychophysics,246,1758106,0.0-3.0-1.119,,key,null,16.66611864,616.5,300.5,,,,,,,,
1340.8,arrowright,psychophysics,247,1759450,0.0-3.0-0.120,,key,arrowright,16.6659375,616.5,300.5,121,5,-1,23,15,25,35,FALSE
null,null,psychophysics,248,1760455,0.0-3.0-1.120,,key,null,16.66547458,616.5,300.5,,,,,,,,
787.6,arrowleft,psychophysics,249,1761247,0.0-3.0-0.121,,key,arrowleft,16.66648936,616.5,300.5,122,5,1,20,35,25,35,FALSE
null,null,psychophysics,250,1762256,0.0-3.0-1.121,,key,null,16.6660678,616.5,300.5,,,,,,,,
720.5,arrowleft,psychophysics,251,1762980,0.0-3.0-0.122,,key,arrowleft,16.66804651,616.5,300.5,123,5,-1,27,35,25,35,TRUE
null,null,psychophysics,252,1763987,0.0-3.0-1.122,,key,null,16.66730508,616.5,300.5,,,,,,,,
693.5,arrowright,psychophysics,253,1764685,0.0-3.0-0.123,,key,arrowright,16.6677561,616.5,300.5,124,5,-1,23,35,25,35,FALSE
null,null,psychophysics,254,1765689,0.0-3.0-1.123,,key,null,16.66654237,616.5,300.5,,,,,,,,
725.5,arrowleft,psychophysics,255,1766418,0.0-3.0-0.124,,key,arrowleft,16.66632558,616.5,300.5,125,5,1,23,35,25,35,FALSE
null,null,psychophysics,256,1767422,0.0-3.0-1.124,,key,null,16.66728814,616.5,300.5,,,,,,,,
603,arrowright,psychophysics,257,1768029,0.0-3.0-0.125,,key,arrowright,16.66630556,616.5,300.5,126,5,1,27,15,25,35,TRUE
null,null,psychophysics,258,1769039,0.0-3.0-1.125,,key,null,16.65818644,616.5,300.5,,,,,,,,
645.1,arrowleft,psychophysics,259,1769686,0.0-3.0-0.126,,key,arrowleft,16.66736842,616.5,300.5,127,5,1,20,15,25,35,FALSE
null,null,psychophysics,260,1770688,0.0-3.0-1.126,,key,null,16.66628814,616.5,300.5,,,,,,,,
899.2,arrowright,psychophysics,261,1771591,0.0-3.0-0.127,,key,arrowright,16.66681481,616.5,300.5,128,5,1,30,35,25,35,TRUE
null,null,psychophysics,262,1772600,0.0-3.0-1.127,,key,null,16.66523729,616.5,300.5,,,,,,,,
686.4,arrowright,psychophysics,263,1773288,0.0-3.0-0.128,,key,arrowright,16.666825,616.5,300.5,129,5,1,30,15,25,35,TRUE
null,null,psychophysics,264,1774290,0.0-3.0-1.128,,key,null,16.66638333,616.5,300.5,,,,,,,,
831.7,arrowleft,psychophysics,265,1775124,0.0-3.0-0.129,,key,arrowleft,16.6654898,616.5,300.5,130,5,1,26,15,25,35,FALSE
null,null,psychophysics,266,1776127,0.0-3.0-1.129,,key,null,16.66450847,616.5,300.5,,,,,,,,
943.5,arrowright,psychophysics,267,1777074,0.0-3.0-0.130,,key,arrowright,16.66541071,616.5,300.5,131,5,1,26,35,25,35,TRUE
null,null,psychophysics,268,1778088,0.0-3.0-1.130,,key,null,16.6669661,616.5,300.5,,,,,,,,
606.9,arrowleft,psychophysics,269,1778698,0.0-3.0-0.131,,key,arrowleft,16.66486111,616.5,300.5,132,5,-1,26,15,25,35,TRUE
null,null,psychophysics,270,1779706,0.0-3.0-1.131,,key,null,16.66454237,616.5,300.5,,,,,,,,
970.4,arrowleft,psychophysics,271,1780679,0.0-3.0-0.132,,key,arrowleft,16.66505172,616.5,300.5,133,5,1,24,35,25,35,FALSE
null,null,psychophysics,272,1781689,0.0-3.0-1.132,,key,null,16.66589831,616.5,300.5,,,,,,,,
1048.9,arrowright,psychophysics,273,1782741,0.0-3.0-0.133,,key,arrowright,16.66560317,616.5,300.5,134,5,-1,23,15,25,35,FALSE
null,null,psychophysics,274,1783745,0.0-3.0-1.133,,key,null,16.66616949,616.5,300.5,,,,,,,,
835.6,arrowright,psychophysics,275,1784582,0.0-3.0-0.134,,key,arrowright,16.67063265,616.5,300.5,135,5,1,26,15,25,35,TRUE
null,null,psychophysics,276,1785588,0.0-3.0-1.134,,key,null,16.66666102,616.5,300.5,,,,,,,,
827.3,arrowleft,psychophysics,277,1786419,0.0-3.0-0.135,,key,arrowleft,16.66679592,616.5,300.5,136,5,-1,25,15,25,35,TRUE
null,null,psychophysics,278,1787422,0.0-3.0-1.135,,key,null,16.66586441,616.5,300.5,,,,,,,,
1178.5,arrowleft,psychophysics,279,1788605,0.0-3.0-0.136,,key,arrowleft,16.66538571,616.5,300.5,137,5,1,27,35,25,35,FALSE
null,null,psychophysics,280,1789606,0.0-3.0-1.136,,key,null,16.66673333,616.5,300.5,,,,,,,,
968.8,arrowleft,psychophysics,281,1790576,0.0-3.0-0.137,,key,arrowleft,16.66592982,616.5,300.5,138,5,-1,25,15,25,35,TRUE
null,null,psychophysics,282,1791588,0.0-3.0-1.137,,key,null,16.66615254,616.5,300.5,,,,,,,,
775.5,arrowright,psychophysics,283,1792367,0.0-3.0-0.138,,key,arrowright,16.66791304,616.5,300.5,139,5,1,30,15,25,35,TRUE
null,null,psychophysics,284,1793371,0.0-3.0-1.138,,key,null,16.67008475,616.5,300.5,,,,,,,,
1799,arrowleft,psychophysics,285,1795173,0.0-3.0-0.139,,key,arrowleft,16.66842593,616.5,300.5,140,6,-1,25,35,25,35,TRUE
null,null,psychophysics,286,1796187,0.0-3.0-1.139,,key,null,16.66623729,616.5,300.5,,,,,,,,
247134.5, ,html-keyboard-response,287,2043324,0.0-3.0-2.139-0.139,"<div style=""color: white; text-align: center; vertical-align: top; display: inline-block; width: 800px; margin: auto""><p>You have completed 50% of the trials. You are on block 6 of 10. <br>Good job! Take a break if you need to.</p><p>Press any key to continue the experiment.</p></div>",,,,,,,,,,,,,
3186.4,arrowright,psychophysics,288,2047525,0.0-3.0-0.140,,key,arrowright,16.66681152,616.5,300.5,141,6,-1,24,35,25,35,FALSE
null,null,psychophysics,289,2048534,0.0-3.0-1.140,,key,null,16.66633898,616.5,300.5,,,,,,,,
643.2,arrowright,psychophysics,290,2049180,0.0-3.0-0.141,,key,arrowright,16.66676316,616.5,300.5,142,6,1,27,15,25,35,TRUE
null,null,psychophysics,291,2050182,0.0-3.0-1.141,,key,null,16.66735593,616.5,300.5,,,,,,,,
617.1,arrowleft,psychophysics,292,2050803,0.0-3.0-0.142,,key,arrowleft,16.66524324,616.5,300.5,143,6,-1,30,35,25,35,TRUE
null,null,psychophysics,293,2051806,0.0-3.0-1.142,,key,null,16.66727119,616.5,300.5,,,,,,,,
1218.3,arrowright,psychophysics,294,2053026,0.0-3.0-0.143,,key,arrowright,16.66630556,616.5,300.5,144,6,1,26,35,25,35,TRUE
null,null,psychophysics,295,2054030,0.0-3.0-1.143,,key,null,16.66711864,616.5,300.5,,,,,,,,
622.5,arrowright,psychophysics,296,2054655,0.0-3.0-0.144,,key,arrowright,16.66445946,616.5,300.5,145,6,-1,20,35,25,35,FALSE
null,null,psychophysics,297,2055662,0.0-3.0-1.144,,key,null,16.66435593,616.5,300.5,,,,,,,,
523.4,arrowleft,psychophysics,298,2056186,0.0-3.0-0.145,,key,arrowleft,16.67422581,616.5,300.5,146,6,1,20,15,25,35,FALSE
null,null,psychophysics,299,2057190,0.0-3.0-1.145,,key,null,16.66611864,616.5,300.5,,,,,,,,
645.6,arrowleft,psychophysics,300,2057838,0.0-3.0-0.146,,key,arrowleft,16.66744737,616.5,300.5,147,6,-1,30,15,25,35,TRUE
null,null,psychophysics,301,2058847,0.0-3.0-1.146,,key,null,16.66659322,616.5,300.5,,,,,,,,
492.2,arrowright,psychophysics,302,2059341,0.0-3.0-0.147,,key,arrowright,16.66506897,616.5,300.5,148,6,-1,20,15,25,35,FALSE
null,null,psychophysics,303,2060350,0.0-3.0-1.147,,key,null,16.66664407,616.5,300.5,,,,,,,,
804.9,arrowright,psychophysics,304,2061158,0.0-3.0-0.148,,key,arrowright,16.67114583,616.5,300.5,149,6,1,25,15,25,35,TRUE
null,null,psychophysics,305,2062166,0.0-3.0-1.148,,key,null,16.66725424,616.5,300.5,,,,,,,,
646.3,arrowright,psychophysics,306,2062816,0.0-3.0-0.149,,key,arrowright,16.66765789,616.5,300.5,150,6,-1,20,35,25,35,FALSE
null,null,psychophysics,307,2063818,0.0-3.0-1.149,,key,null,16.66731667,616.5,300.5,,,,,,,,
559.6,arrowleft,psychophysics,308,2064379,0.0-3.0-0.150,,key,arrowleft,16.66503125,616.5,300.5,151,6,-1,26,35,25,35,TRUE
null,null,psychophysics,309,2065382,0.0-3.0-1.150,,key,null,16.66544068,616.5,300.5,,,,,,,,
580.9,arrowright,psychophysics,310,2065965,0.0-3.0-0.151,,key,arrowright,16.67176471,616.5,300.5,152,6,1,27,35,25,35,TRUE
null,null,psychophysics,311,2066967,0.0-3.0-1.151,,key,null,16.66677966,616.5,300.5,,,,,,,,
937.4,arrowleft,psychophysics,312,2067907,0.0-3.0-0.152,,key,arrowleft,16.66591071,616.5,300.5,153,6,1,25,15,25,35,FALSE
null,null,psychophysics,313,2068910,0.0-3.0-1.152,,key,null,16.6629322,616.5,300.5,,,,,,,,
703,arrowleft,psychophysics,314,2069615,0.0-3.0-0.153,,key,arrowleft,16.66521951,616.5,300.5,154,6,1,24,15,25,35,FALSE
null,null,psychophysics,315,2070617,0.0-3.0-1.153,,key,null,16.66649153,616.5,300.5,,,,,,,,
659.3,arrowleft,psychophysics,316,2071278,0.0-3.0-0.154,,key,arrowleft,16.66792308,616.5,300.5,155,6,1,24,15,25,35,FALSE
null,null,psychophysics,317,2072283,0.0-3.0-1.154,,key,null,16.66708475,616.5,300.5,,,,,,,,
706.2,arrowleft,psychophysics,318,2072992,0.0-3.0-0.155,,key,arrowleft,16.66471429,616.5,300.5,156,6,-1,26,35,25,35,TRUE
null,null,psychophysics,319,2073999,0.0-3.0-1.155,,key,null,16.66515254,616.5,300.5,,,,,,,,
1246.9,arrowright,psychophysics,320,2075248,0.0-3.0-0.156,,key,arrowright,16.66740541,616.5,300.5,157,6,1,24,35,25,35,TRUE
null,null,psychophysics,321,2076250,0.0-3.0-1.156,,key,null,16.66840678,616.5,300.5,,,,,,,,
682,arrowleft,psychophysics,322,2076935,0.0-3.0-0.157,,key,arrowleft,16.66519512,616.5,300.5,158,6,-1,25,15,25,35,TRUE
null,null,psychophysics,323,2077942,0.0-3.0-1.157,,key,null,16.66432203,616.5,300.5,,,,,,,,
671.4,arrowleft,psychophysics,324,2078615,0.0-3.0-0.158,,key,arrowleft,16.65928205,616.5,300.5,159,6,1,25,35,25,35,FALSE
null,null,psychophysics,325,2079617,0.0-3.0-1.158,,key,null,16.66666667,616.5,300.5,,,,,,,,
502.3,arrowright,psychophysics,326,2080121,0.0-3.0-0.159,,key,arrowright,16.667,616.5,300.5,160,6,1,30,15,25,35,TRUE
null,null,psychophysics,327,2081127,0.0-3.0-1.159,,key,null,16.66583051,616.5,300.5,,,,,,,,
834.7,arrowleft,psychophysics,328,2081963,0.0-3.0-0.160,,key,arrowleft,16.66540816,616.5,300.5,161,6,1,25,15,25,35,FALSE
null,null,psychophysics,329,2082966,0.0-3.0-1.160,,key,null,16.66694915,616.5,300.5,,,,,,,,
571.2,arrowleft,psychophysics,330,2083541,0.0-3.0-0.161,,key,arrowleft,16.65982353,616.5,300.5,162,6,-1,27,15,25,35,TRUE
null,null,psychophysics,331,2084549,0.0-3.0-1.161,,key,null,16.66776271,616.5,300.5,,,,,,,,
578.1,arrowright,psychophysics,332,2085130,0.0-3.0-0.162,,key,arrowright,16.66785294,616.5,300.5,163,6,1,30,35,25,35,TRUE
null,null,psychophysics,333,2086133,0.0-3.0-1.162,,key,null,16.66777966,616.5,300.5,,,,,,,,
654.9,arrowleft,psychophysics,334,2086793,0.0-3.0-0.163,,key,arrowleft,16.67066667,616.5,300.5,164,6,-1,27,15,25,35,TRUE
null,null,psychophysics,335,2087798,0.0-3.0-1.163,,key,null,16.67110169,616.5,300.5,,,,,,,,
894.5,arrowright,psychophysics,336,2088696,0.0-3.0-0.164,,key,arrowright,16.66632075,616.5,300.5,165,6,-1,20,35,25,35,FALSE
null,null,psychophysics,337,2089699,0.0-3.0-1.164,,key,null,16.66577966,616.5,300.5,,,,,,,,
2211,arrowleft,psychophysics,338,2091913,0.0-3.0-0.165,,key,arrowleft,16.66596212,616.5,300.5,166,6,1,27,15,25,35,FALSE
null,null,psychophysics,339,2092916,0.0-3.0-1.165,,key,null,16.66522034,616.5,300.5,,,,,,,,
1305.6,arrowright,psychophysics,340,2094225,0.0-3.0-0.166,,key,arrowright,16.66660256,616.5,300.5,167,6,1,25,15,25,35,TRUE
null,null,psychophysics,341,2095230,0.0-3.0-1.166,,key,null,16.66569492,616.5,300.5,,,,,,,,
1017.9,arrowleft,psychophysics,342,2096250,0.0-3.0-0.167,,key,arrowleft,16.66591803,616.5,300.5,168,7,-1,25,15,25,35,TRUE
null,null,psychophysics,343,2097254,0.0-3.0-1.167,,key,null,16.66535593,616.5,300.5,,,,,,,,
145922, ,html-keyboard-response,344,2243177,0.0-3.0-2.167-0.167,"<div style=""color: white; text-align: center; vertical-align: top; display: inline-block; width: 800px; margin: auto""><p>You have completed 60% of the trials. You are on block 7 of 10. <br>Good job! Take a break if you need to.</p><p>Press any key to continue the experiment.</p></div>",,,,,,,,,,,,,
7017.7,arrowright,psychophysics,345,2251210,0.0-3.0-0.168,,key,arrowright,16.6669905,616.5,300.5,169,7,-1,30,15,25,35,FALSE
null,null,psychophysics,346,2252213,0.0-3.0-1.168,,key,null,16.66988136,616.5,300.5,,,,,,,,
1213.2,arrowright,psychophysics,347,2253431,0.0-3.0-0.169,,key,arrowright,16.66741096,616.5,300.5,170,7,-1,24,15,25,35,FALSE
null,null,psychophysics,348,2254438,0.0-3.0-1.169,,key,null,16.66376271,616.5,300.5,,,,,,,,
922.8,arrowright,psychophysics,349,2255362,0.0-3.0-0.170,,key,arrowright,16.66605556,616.5,300.5,171,7,-1,20,15,25,35,FALSE
null,null,psychophysics,350,2256363,0.0-3.0-1.170,,key,null,16.66726667,616.5,300.5,,,,,,,,
843.2,arrowleft,psychophysics,351,2257208,0.0-3.0-0.171,,key,arrowleft,16.668,616.5,300.5,172,7,1,23,35,25,35,FALSE
null,null,psychophysics,352,2258213,0.0-3.0-1.171,,key,null,16.66786441,616.5,300.5,,,,,,,,
653.8,arrowleft,psychophysics,353,2258870,0.0-3.0-0.172,,key,arrowleft,16.66697436,616.5,300.5,173,7,-1,30,35,25,35,TRUE
null,null,psychophysics,354,2259877,0.0-3.0-1.172,,key,null,16.6650678,616.5,300.5,,,,,,,,
664.1,arrowleft,psychophysics,355,2260544,0.0-3.0-0.173,,key,arrowleft,16.66628205,616.5,300.5,174,7,-1,30,15,25,35,TRUE
null,null,psychophysics,356,2261546,0.0-3.0-1.173,,key,null,16.66847458,616.5,300.5,,,,,,,,
700.3,arrowright,psychophysics,357,2262250,0.0-3.0-0.174,,key,arrowright,16.66652381,616.5,300.5,175,7,1,23,15,25,35,TRUE
null,null,psychophysics,358,2263254,0.0-3.0-1.174,,key,null,16.66684746,616.5,300.5,,,,,,,,
1505.2,arrowleft,psychophysics,359,2264761,0.0-3.0-0.175,,key,arrowleft,16.66569663,616.5,300.5,176,7,-1,25,15,25,35,TRUE
null,null,psychophysics,360,2265762,0.0-3.0-1.175,,key,null,16.67333898,616.5,300.5,,,,,,,,
671.4,arrowleft,psychophysics,361,2266437,0.0-3.0-0.176,,key,arrowleft,16.668,616.5,300.5,177,7,-1,30,35,25,35,TRUE
null,null,psychophysics,362,2267445,0.0-3.0-1.176,,key,null,16.66615254,616.5,300.5,,,,,,,,
549.5,arrowright,psychophysics,363,2267998,0.0-3.0-0.177,,key,arrowright,16.66821212,616.5,300.5,178,7,-1,20,15,25,35,FALSE
null,null,psychophysics,364,2269006,0.0-3.0-1.177,,key,null,16.66676271,616.5,300.5,,,,,,,,
764.6,arrowright,psychophysics,365,2269773,0.0-3.0-0.178,,key,arrowright,16.66557778,616.5,300.5,179,7,1,26,15,25,35,TRUE
null,null,psychophysics,366,2270780,0.0-3.0-1.178,,key,null,16.66525424,616.5,300.5,,,,,,,,
622.5,arrowleft,psychophysics,367,2271405,0.0-3.0-0.179,,key,arrowleft,16.66472973,616.5,300.5,180,7,-1,27,15,25,35,TRUE
null,null,psychophysics,368,2272412,0.0-3.0-1.179,,key,null,16.67211864,616.5,300.5,,,,,,,,
644.5,arrowleft,psychophysics,369,2273060,0.0-3.0-0.180,,key,arrowleft,16.66692105,616.5,300.5,181,7,-1,30,35,25,35,TRUE
null,null,psychophysics,370,2274061,0.0-3.0-1.180,,key,null,16.66694915,616.5,300.5,,,,,,,,
971.7,arrowright,psychophysics,371,2275036,0.0-3.0-0.181,,key,arrowright,16.66851724,616.5,300.5,182,7,1,25,35,25,35,TRUE
null,null,psychophysics,372,2276046,0.0-3.0-1.181,,key,null,16.66533898,616.5,300.5,,,,,,,,
593.5,arrowright,psychophysics,373,2276642,0.0-3.0-0.182,,key,arrowright,16.66702857,616.5,300.5,183,7,-1,20,15,25,35,FALSE
null,null,psychophysics,374,2277646,0.0-3.0-1.182,,key,null,16.66750847,616.5,300.5,,,,,,,,
780.3,arrowleft,psychophysics,375,2278431,0.0-3.0-0.183,,key,arrowleft,16.66593617,616.5,300.5,184,7,1,23,15,25,35,FALSE
null,null,psychophysics,376,2279437,0.0-3.0-1.183,,key,null,16.66986441,616.5,300.5,,,,,,,,
611.1,arrowleft,psychophysics,377,2280050,0.0-3.0-0.184,,key,arrowleft,16.66458333,616.5,300.5,185,7,-1,27,15,25,35,TRUE
null,null,psychophysics,378,2281054,0.0-3.0-1.184,,key,null,16.66738983,616.5,300.5,,,,,,,,
739,arrowright,psychophysics,379,2281795,0.0-3.0-0.185,,key,arrowright,16.66602326,616.5,300.5,186,7,1,27,15,25,35,TRUE
null,null,psychophysics,380,2282797,0.0-3.0-1.185,,key,null,16.66701667,616.5,300.5,,,,,,,,
639.5,arrowright,psychophysics,381,2283439,0.0-3.0-0.186,,key,arrowright,16.66667568,616.5,300.5,187,7,-1,20,35,25,35,FALSE
null,null,psychophysics,382,2284445,0.0-3.0-1.186,,key,null,16.66944068,616.5,300.5,,,,,,,,
773.1,arrowright,psychophysics,383,2285222,0.0-3.0-0.187,,key,arrowright,16.66454348,616.5,300.5,188,7,1,30,15,25,35,TRUE
null,null,psychophysics,384,2286229,0.0-3.0-1.187,,key,null,16.6649322,616.5,300.5,,,,,,,,
2575.3,arrowright,psychophysics,385,2288809,0.0-3.0-0.188,,key,arrowright,16.66648701,616.5,300.5,189,7,1,26,35,25,35,TRUE
null,null,psychophysics,386,2289812,0.0-3.0-1.188,,key,null,16.66840678,616.5,300.5,,,,,,,,
716,arrowleft,psychophysics,387,2290531,0.0-3.0-0.189,,key,arrowleft,16.66727907,616.5,300.5,190,7,-1,25,15,25,35,TRUE
null,null,psychophysics,388,2291534,0.0-3.0-1.189,,key,null,16.663,616.5,300.5,,,,,,,,
696.4,arrowright,psychophysics,389,2292232,0.0-3.0-0.190,,key,arrowright,16.6665122,616.5,300.5,191,7,1,25,35,25,35,TRUE
null,null,psychophysics,390,2293237,0.0-3.0-1.190,,key,null,16.66637288,616.5,300.5,,,,,,,,
625.2,arrowleft,psychophysics,391,2293865,0.0-3.0-0.191,,key,arrowleft,16.66478378,616.5,300.5,192,7,1,20,15,25,35,FALSE
null,null,psychophysics,392,2294870,0.0-3.0-1.191,,key,null,16.67162712,616.5,300.5,,,,,,,,
1034.5,arrowright,psychophysics,393,2295907,0.0-3.0-0.192,,key,arrowright,16.66565574,616.5,300.5,193,7,-1,23,35,25,35,FALSE
null,null,psychophysics,394,2296910,0.0-3.0-1.192,,key,null,16.66438983,616.5,300.5,,,,,,,,
639,arrowright,psychophysics,395,2297550,0.0-3.0-0.193,,key,arrowright,16.66747368,616.5,300.5,194,7,1,27,35,25,35,TRUE
null,null,psychophysics,396,2298557,0.0-3.0-1.193,,key,null,16.66577966,616.5,300.5,,,,,,,,
823.2,arrowleft,psychophysics,397,2299382,0.0-3.0-0.194,,key,arrowleft,16.66718367,616.5,300.5,195,7,1,20,15,25,35,FALSE
null,null,psychophysics,398,2300390,0.0-3.0-1.194,,key,null,16.66559322,616.5,300.5,,,,,,,,
545,arrowright,psychophysics,399,2300937,0.0-3.0-0.195,,key,arrowright,16.66778125,616.5,300.5,196,8,-1,20,15,25,35,FALSE
null,null,psychophysics,400,2301941,0.0-3.0-1.195,,key,null,16.66433898,616.5,300.5,,,,,,,,
554782.8, ,html-keyboard-response,401,2856726,0.0-3.0-2.195-0.195,"<div style=""color: white; text-align: center; vertical-align: top; display: inline-block; width: 800px; margin: auto""><p>You have completed 70% of the trials. You are on block 8 of 10. <br>Good job! Take a break if you need to.</p><p>Press any key to continue the experiment.</p></div>",,,,,,,,,,,,,
1107.8,arrowleft,psychophysics,402,2858859,0.0-3.0-0.196,,key,arrowleft,16.66850746,616.5,300.5,197,8,-1,24,15,25,35,TRUE
null,null,psychophysics,403,2859861,0.0-3.0-1.196,,key,null,16.66562712,616.5,300.5,,,,,,,,
557.1,arrowright,psychophysics,404,2860421,0.0-3.0-0.197,,key,arrowright,16.66766667,616.5,300.5,198,8,-1,26,15,25,35,FALSE
null,null,psychophysics,405,2861430,0.0-3.0-1.197,,key,null,16.6669322,616.5,300.5,,,,,,,,
1451,arrowright,psychophysics,406,2862884,0.0-3.0-0.198,,key,arrowright,16.66674419,616.5,300.5,199,8,1,27,35,25,35,TRUE
null,null,psychophysics,407,2863886,0.0-3.0-1.198,,key,null,16.66910169,616.5,300.5,,,,,,,,
740.9,arrowright,psychophysics,408,2864630,0.0-3.0-0.199,,key,arrowright,16.66640909,616.5,300.5,200,8,-1,20,35,25,35,FALSE
null,null,psychophysics,409,2865636,0.0-3.0-1.199,,key,null,16.6659322,616.5,300.5,,,,,,,,
1217,arrowleft,psychophysics,410,2866855,0.0-3.0-0.200,,key,arrowleft,16.6670411,616.5,300.5,201,8,1,24,15,25,35,FALSE
null,null,psychophysics,411,2867862,0.0-3.0-1.200,,key,null,16.66262712,616.5,300.5,,,,,,,,
799.8,arrowleft,psychophysics,412,2868665,0.0-3.0-0.201,,key,arrowleft,16.66555319,616.5,300.5,202,8,-1,26,35,25,35,TRUE
null,null,psychophysics,413,2869669,0.0-3.0-1.201,,key,null,16.66588136,616.5,300.5,,,,,,,,
1002.2,arrowleft,psychophysics,414,2870675,0.0-3.0-0.202,,key,arrowleft,16.66553333,616.5,300.5,203,8,-1,26,15,25,35,TRUE
null,null,psychophysics,415,2871679,0.0-3.0-1.202,,key,null,16.66930508,616.5,300.5,,,,,,,,
902.6,arrowright,psychophysics,416,2872583,0.0-3.0-0.203,,key,arrowright,16.66758491,616.5,300.5,204,8,-1,23,15,25,35,FALSE
null,null,psychophysics,417,2873585,0.0-3.0-1.203,,key,null,16.66725424,616.5,300.5,,,,,,,,
1011.7,arrowright,psychophysics,418,2874600,0.0-3.0-0.204,,key,arrowright,16.66695,616.5,300.5,205,8,-1,25,35,25,35,FALSE
null,null,psychophysics,419,2875603,0.0-3.0-1.204,,key,null,16.66610169,616.5,300.5,,,,,,,,
692.9,arrowright,psychophysics,420,2876299,0.0-3.0-0.205,,key,arrowright,16.66680488,616.5,300.5,206,8,1,27,35,25,35,TRUE
null,null,psychophysics,421,2877302,0.0-3.0-1.205,,key,null,16.66662712,616.5,300.5,,,,,,,,
1722.3,arrowright,psychophysics,422,2879028,0.0-3.0-0.206,,key,arrowright,16.66776699,616.5,300.5,207,8,-1,25,15,25,35,FALSE
null,null,psychophysics,423,2880029,0.0-3.0-1.206,,key,null,16.65979661,616.5,300.5,,,,,,,,
969,arrowright,psychophysics,424,2881000,0.0-3.0-0.207,,key,arrowright,16.66775439,616.5,300.5,208,8,1,25,15,25,35,TRUE
null,null,psychophysics,425,2882003,0.0-3.0-1.207,,key,null,16.66667797,616.5,300.5,,,,,,,,
1518.9,arrowright,psychophysics,426,2883525,0.0-3.0-0.208,,key,arrowright,16.66562637,616.5,300.5,209,8,1,26,15,25,35,TRUE
null,null,psychophysics,427,2884535,0.0-3.0-1.208,,key,null,16.66586441,616.5,300.5,,,,,,,,
2326.6,arrowleft,psychophysics,428,2886864,0.0-3.0-0.209,,key,arrowleft,16.66684173,616.5,300.5,210,8,-1,27,35,25,35,TRUE
null,null,psychophysics,429,2887869,0.0-3.0-1.209,,key,null,16.66977966,616.5,300.5,,,,,,,,
1205.9,arrowright,psychophysics,430,2889078,0.0-3.0-0.210,,key,arrowright,16.66655556,616.5,300.5,211,8,-1,23,35,25,35,FALSE
null,null,psychophysics,431,2890085,0.0-3.0-1.210,,key,null,16.66847458,616.5,300.5,,,,,,,,
867.5,arrowright,psychophysics,432,2890955,0.0-3.0-0.211,,key,arrowright,16.66688462,616.5,300.5,212,8,1,23,15,25,35,TRUE
null,null,psychophysics,433,2891958,0.0-3.0-1.211,,key,null,16.66786441,616.5,300.5,,,,,,,,
670.4,arrowleft,psychophysics,434,2892630,0.0-3.0-0.212,,key,arrowleft,16.66684615,616.5,300.5,213,8,-1,30,35,25,35,TRUE
null,null,psychophysics,435,2893636,0.0-3.0-1.212,,key,null,16.66661667,616.5,300.5,,,,,,,,
747.8,arrowright,psychophysics,436,2894387,0.0-3.0-0.213,,key,arrowright,16.66440909,616.5,300.5,214,8,1,24,15,25,35,TRUE
null,null,psychophysics,437,2895390,0.0-3.0-1.213,,key,null,16.66554237,616.5,300.5,,,,,,,,
1127.8,arrowright,psychophysics,438,2896520,0.0-3.0-0.214,,key,arrowright,16.66641791,616.5,300.5,215,8,-1,20,35,25,35,FALSE
null,null,psychophysics,439,2897525,0.0-3.0-1.214,,key,null,16.66489831,616.5,300.5,,,,,,,,
838.3,arrowright,psychophysics,440,2898365,0.0-3.0-0.215,,key,arrowright,16.66720408,616.5,300.5,216,8,1,27,35,25,35,TRUE
null,null,psychophysics,441,2899369,0.0-3.0-1.215,,key,null,16.66732203,616.5,300.5,,,,,,,,
828.8,arrowleft,psychophysics,442,2900201,0.0-3.0-0.216,,key,arrowleft,16.66612245,616.5,300.5,217,8,1,24,35,25,35,FALSE
null,null,psychophysics,443,2901202,0.0-3.0-1.216,,key,null,16.66666102,616.5,300.5,,,,,,,,
722.6,arrowleft,psychophysics,444,2901928,0.0-3.0-0.217,,key,arrowleft,16.65823256,616.5,300.5,218,8,-1,30,15,25,35,TRUE
null,null,psychophysics,445,2902934,0.0-3.0-1.217,,key,null,16.66859322,616.5,300.5,,,,,,,,
1890.1,arrowright,psychophysics,446,2904830,0.0-3.0-0.218,,key,arrowright,16.66707965,616.5,300.5,219,8,-1,26,35,25,35,FALSE
null,null,psychophysics,447,2905835,0.0-3.0-1.218,,key,null,16.66983051,616.5,300.5,,,,,,,,
1658.5,arrowright,psychophysics,448,2907496,0.0-3.0-0.219,,key,arrowright,16.66643434,616.5,300.5,220,8,1,23,15,25,35,TRUE
null,null,psychophysics,449,2908502,0.0-3.0-1.219,,key,null,16.66545763,616.5,300.5,,,,,,,,
748.8,arrowright,psychophysics,450,2909254,0.0-3.0-0.220,,key,arrowright,16.66693333,616.5,300.5,221,8,1,27,15,25,35,TRUE
null,null,psychophysics,451,2910262,0.0-3.0-1.220,,key,null,16.66554237,616.5,300.5,,,,,,,,
2694.2,arrowright,psychophysics,452,2912957,0.0-3.0-0.221,,key,arrowright,16.66629193,616.5,300.5,222,8,1,26,35,25,35,TRUE
null,null,psychophysics,453,2913966,0.0-3.0-1.221,,key,null,16.66666102,616.5,300.5,,,,,,,,
1082.4,arrowright,psychophysics,454,2915051,0.0-3.0-0.222,,key,arrowright,16.663875,616.5,300.5,223,8,1,27,35,25,35,TRUE
null,null,psychophysics,455,2916052,0.0-3.0-1.222,,key,null,16.66646667,616.5,300.5,,,,,,,,
742.1,arrowright,psychophysics,456,2916796,0.0-3.0-0.223,,key,arrowright,16.66623256,616.5,300.5,224,9,1,26,15,25,35,TRUE
null,null,psychophysics,457,2917797,0.0-3.0-1.223,,key,null,16.66523729,616.5,300.5,,,,,,,,
25996,arrowright,html-keyboard-response,458,2943798,0.0-3.0-2.223-0.223,"<div style=""color: white; text-align: center; vertical-align: top; display: inline-block; width: 800px; margin: auto""><p>You have completed 80% of the trials. You are on block 9 of 10. <br>Good job! Take a break if you need to.</p><p>Press any key to continue the experiment.</p></div>",,,,,,,,,,,,,
5515.1,arrowright,psychophysics,459,2950328,0.0-3.0-0.224,,key,arrowright,16.66664955,616.5,300.5,225,9,1,27,35,25,35,TRUE
null,null,psychophysics,460,2951334,0.0-3.0-1.224,,key,null,16.66623729,616.5,300.5,,,,,,,,
1870.5,arrowleft,psychophysics,461,2953209,0.0-3.0-0.225,,key,arrowleft,16.6626875,616.5,300.5,226,9,-1,24,35,25,35,TRUE
null,null,psychophysics,462,2954215,0.0-3.0-1.225,,key,null,16.66605085,616.5,300.5,,,,,,,,
1196.7,arrowright,psychophysics,463,2955413,0.0-3.0-0.226,,key,arrowright,16.66557746,616.5,300.5,227,9,-1,23,35,25,35,FALSE
null,null,psychophysics,464,2956418,0.0-3.0-1.226,,key,null,16.67386441,616.5,300.5,,,,,,,,
5215.2,arrowleft,psychophysics,465,2961636,0.0-3.0-0.227,,key,arrowleft,16.66690735,616.5,300.5,228,9,1,24,35,25,35,FALSE
null,null,psychophysics,466,2962638,0.0-3.0-1.227,,key,null,16.66401695,616.5,300.5,,,,,,,,
1159.8,arrowright,psychophysics,467,2963800,0.0-3.0-0.228,,key,arrowright,16.66591176,616.5,300.5,229,9,1,26,35,25,35,TRUE
null,null,psychophysics,468,2964801,0.0-3.0-1.228,,key,null,16.66708475,616.5,300.5,,,,,,,,
859.9,arrowleft,psychophysics,469,2965664,0.0-3.0-0.229,,key,arrowleft,16.66680392,616.5,300.5,230,9,1,24,35,25,35,FALSE
null,null,psychophysics,470,2966667,0.0-3.0-1.229,,key,null,16.6669661,616.5,300.5,,,,,,,,
804.3,arrowleft,psychophysics,471,2967475,0.0-3.0-0.230,,key,arrowleft,16.666125,616.5,300.5,231,9,-1,30,15,25,35,TRUE
null,null,psychophysics,472,2968479,0.0-3.0-1.230,,key,null,16.66564407,616.5,300.5,,,,,,,,
2710,arrowright,psychophysics,473,2971191,0.0-3.0-0.231,,key,arrowright,16.66653086,616.5,300.5,232,9,-1,20,35,25,35,FALSE
null,null,psychophysics,474,2972198,0.0-3.0-1.231,,key,null,16.66505085,616.5,300.5,,,,,,,,
4241.5,arrowleft,psychophysics,475,2976443,0.0-3.0-0.232,,key,arrowleft,16.66667717,616.5,300.5,233,9,1,24,15,25,35,FALSE
null,null,psychophysics,476,2977446,0.0-3.0-1.232,,key,null,16.66572881,616.5,300.5,,,,,,,,
2044,arrowright,psychophysics,477,2979493,0.0-3.0-0.233,,key,arrowright,16.66611475,616.5,300.5,234,9,-1,25,35,25,35,FALSE
null,null,psychophysics,478,2980495,0.0-3.0-1.233,,key,null,16.66672881,616.5,300.5,,,,,,,,
3957.4,arrowright,psychophysics,479,2984455,0.0-3.0-0.234,,key,arrowright,16.66600422,616.5,300.5,235,9,1,30,15,25,35,TRUE
null,null,psychophysics,480,2985468,0.0-3.0-1.234,,key,null,16.66586441,616.5,300.5,,,,,,,,
2624.6,arrowleft,psychophysics,481,2988096,0.0-3.0-0.235,,key,arrowleft,16.66657962,616.5,300.5,236,9,1,23,15,25,35,FALSE
null,null,psychophysics,482,2989101,0.0-3.0-1.235,,key,null,16.66625424,616.5,300.5,,,,,,,,
3545.9,arrowright,psychophysics,483,2992649,0.0-3.0-0.236,,key,arrowright,16.66611321,616.5,300.5,237,9,-1,25,35,25,35,FALSE
null,null,psychophysics,484,2993651,0.0-3.0-1.236,,key,null,16.66640678,616.5,300.5,,,,,,,,
1257.4,arrowright,psychophysics,485,2994911,0.0-3.0-0.237,,key,arrowright,16.66929333,616.5,300.5,238,9,1,26,35,25,35,TRUE
null,null,psychophysics,486,2995917,0.0-3.0-1.237,,key,null,16.66694915,616.5,300.5,,,,,,,,
872.1,arrowright,psychophysics,487,2996792,0.0-3.0-0.238,,key,arrowright,16.66438462,616.5,300.5,239,9,-1,24,15,25,35,FALSE
null,null,psychophysics,488,2997798,0.0-3.0-1.238,,key,null,16.66550847,616.5,300.5,,,,,,,,
657.4,arrowright,psychophysics,489,2998457,0.0-3.0-0.239,,key,arrowright,16.66553846,616.5,300.5,240,9,1,30,15,25,35,TRUE
null,null,psychophysics,490,2999462,0.0-3.0-1.239,,key,null,16.66662712,616.5,300.5,,,,,,,,
817,arrowleft,psychophysics,491,3000282,0.0-3.0-0.240,,key,arrowleft,16.66654167,616.5,300.5,241,9,1,23,15,25,35,FALSE
null,null,psychophysics,492,3001284,0.0-3.0-1.240,,key,null,16.66649153,616.5,300.5,,,,,,,,
710.8,arrowleft,psychophysics,493,3001998,0.0-3.0-0.241,,key,arrowleft,16.66588095,616.5,300.5,242,9,1,23,15,25,35,FALSE
null,null,psychophysics,494,3003000,0.0-3.0-1.241,,key,null,16.66750847,616.5,300.5,,,,,,,,
892,arrowleft,psychophysics,495,3003895,0.0-3.0-0.242,,key,arrowleft,16.66573585,616.5,300.5,243,9,1,23,15,25,35,FALSE
null,null,psychophysics,496,3004900,0.0-3.0-1.242,,key,null,16.66444068,616.5,300.5,,,,,,,,
877.2,arrowleft,psychophysics,497,3005780,0.0-3.0-0.243,,key,arrowleft,16.66692308,616.5,300.5,244,9,-1,24,15,25,35,TRUE
null,null,psychophysics,498,3006782,0.0-3.0-1.243,,key,null,16.66638983,616.5,300.5,,,,,,,,
632.9,arrowleft,psychophysics,499,3007418,0.0-3.0-0.244,,key,arrowleft,16.66673684,616.5,300.5,245,9,-1,26,15,25,35,TRUE
null,null,psychophysics,500,3008421,0.0-3.0-1.244,,key,null,16.66705085,616.5,300.5,,,,,,,,
1016.2,arrowleft,psychophysics,501,3009440,0.0-3.0-0.245,,key,arrowleft,16.6659,616.5,300.5,246,9,-1,24,35,25,35,TRUE
null,null,psychophysics,502,3010445,0.0-3.0-1.245,,key,null,16.66742373,616.5,300.5,,,,,,,,
752.6,arrowleft,psychophysics,503,3011200,0.0-3.0-0.246,,key,arrowleft,16.66224444,616.5,300.5,247,9,1,25,35,25,35,FALSE
null,null,psychophysics,504,3012201,0.0-3.0-1.246,,key,null,16.66844068,616.5,300.5,,,,,,,,
669.9,arrowleft,psychophysics,505,3012873,0.0-3.0-0.247,,key,arrowleft,16.66766667,616.5,300.5,248,9,-1,26,35,25,35,TRUE
null,null,psychophysics,506,3013878,0.0-3.0-1.247,,key,null,16.66157627,616.5,300.5,,,,,,,,
574.3,arrowleft,psychophysics,507,3014454,0.0-3.0-0.248,,key,arrowleft,16.66702941,616.5,300.5,249,9,-1,30,35,25,35,TRUE
null,null,psychophysics,508,3015461,0.0-3.0-1.248,,key,null,16.66650847,616.5,300.5,,,,,,,,
787.1,arrowright,psychophysics,509,3016251,0.0-3.0-0.249,,key,arrowright,16.67102128,616.5,300.5,250,9,-1,24,15,25,35,FALSE
null,null,psychophysics,510,3017253,0.0-3.0-1.249,,key,null,16.66471186,616.5,300.5,,,,,,,,
594.3,arrowright,psychophysics,511,3017849,0.0-3.0-0.250,,key,arrowright,16.66717647,616.5,300.5,251,9,-1,24,35,25,35,FALSE
null,null,psychophysics,512,3018853,0.0-3.0-1.250,,key,null,16.66761667,616.5,300.5,,,,,,,,
584.3,arrowright,psychophysics,513,3019439,0.0-3.0-0.251,,key,arrowright,16.66870588,616.5,300.5,252,10,-1,20,15,25,35,FALSE
null,null,psychophysics,514,3020445,0.0-3.0-1.251,,key,null,16.66605085,616.5,300.5,,,,,,,,
31039.2,audiovolumedown,html-keyboard-response,515,3051486,0.0-3.0-2.251-0.251,"<div style=""color: white; text-align: center; vertical-align: top; display: inline-block; width: 800px; margin: auto""><p>You have completed 90% of the trials. You are on block 10 of 10. <br>Good job! Take a break if you need to.</p><p>Press any key to continue the experiment.</p></div>",,,,,,,,,,,,,
6463.6,arrowright,psychophysics,516,3058963,0.0-3.0-0.252,,key,arrowright,16.70526357,616.5,300.5,253,10,-1,25,35,25,35,FALSE
null,null,psychophysics,517,3059965,0.0-3.0-1.252,,key,null,16.66686441,616.5,300.5,,,,,,,,
584.7,arrowright,psychophysics,518,3060552,0.0-3.0-0.253,,key,arrowright,16.66805714,616.5,300.5,254,10,1,27,15,25,35,TRUE
null,null,psychophysics,519,3061559,0.0-3.0-1.253,,key,null,16.66637288,616.5,300.5,,,,,,,,
788.5,arrowleft,psychophysics,520,3062350,0.0-3.0-0.254,,key,arrowleft,16.67182979,616.5,300.5,255,10,1,23,15,25,35,FALSE
null,null,psychophysics,521,3063360,0.0-3.0-1.254,,key,null,16.66676271,616.5,300.5,,,,,,,,
515,arrowright,psychophysics,522,3063878,0.0-3.0-0.255,,key,arrowright,16.6666,616.5,300.5,256,10,1,30,35,25,35,TRUE
null,null,psychophysics,523,3064882,0.0-3.0-1.255,,key,null,16.66683051,616.5,300.5,,,,,,,,
806.9,arrowleft,psychophysics,524,3065694,0.0-3.0-0.256,,key,arrowleft,16.66760417,616.5,300.5,257,10,-1,26,15,25,35,TRUE
null,null,psychophysics,525,3066699,0.0-3.0-1.256,,key,null,16.668,616.5,300.5,,,,,,,,
1017.7,arrowleft,psychophysics,526,3067720,0.0-3.0-0.257,,key,arrowleft,16.66606557,616.5,300.5,258,10,1,20,15,25,35,FALSE
null,null,psychophysics,527,3068732,0.0-3.0-1.257,,key,null,16.66438983,616.5,300.5,,,,,,,,
746.3,arrowleft,psychophysics,528,3069482,0.0-3.0-0.258,,key,arrowleft,16.66695455,616.5,300.5,259,10,1,20,15,25,35,FALSE
null,null,psychophysics,529,3070483,0.0-3.0-1.258,,key,null,16.66671667,616.5,300.5,,,,,,,,
950.7,arrowleft,psychophysics,530,3071436,0.0-3.0-0.259,,key,arrowleft,16.67217857,616.5,300.5,260,10,-1,27,35,25,35,TRUE
null,null,psychophysics,531,3072440,0.0-3.0-1.259,,key,null,16.66667797,616.5,300.5,,,,,,,,
795.6,arrowleft,psychophysics,532,3073237,0.0-3.0-0.260,,key,arrowleft,16.66840426,616.5,300.5,261,10,1,24,35,25,35,FALSE
null,null,psychophysics,533,3074249,0.0-3.0-1.260,,key,null,16.66584746,616.5,300.5,,,,,,,,
803.2,arrowright,psychophysics,534,3075056,0.0-3.0-0.261,,key,arrowright,16.66647917,616.5,300.5,262,10,-1,20,15,25,35,FALSE
null,null,psychophysics,535,3076066,0.0-3.0-1.261,,key,null,16.66657627,616.5,300.5,,,,,,,,
975.2,arrowleft,psychophysics,536,3077044,0.0-3.0-0.262,,key,arrowleft,16.66712069,616.5,300.5,263,10,1,25,15,25,35,FALSE
null,null,psychophysics,537,3078049,0.0-3.0-1.262,,key,null,16.66032203,616.5,300.5,,,,,,,,
898,arrowleft,psychophysics,538,3078950,0.0-3.0-0.263,,key,arrowleft,16.66561111,616.5,300.5,264,10,-1,24,15,25,35,TRUE
null,null,psychophysics,539,3079965,0.0-3.0-1.263,,key,null,16.66727119,616.5,300.5,,,,,,,,
1199.9,arrowleft,psychophysics,540,3081171,0.0-3.0-0.264,,key,arrowleft,16.66651389,616.5,300.5,265,10,-1,27,15,25,35,TRUE
null,null,psychophysics,541,3082182,0.0-3.0-1.264,,key,null,16.66386441,616.5,300.5,,,,,,,,
947.3,arrowright,psychophysics,542,3083133,0.0-3.0-0.265,,key,arrowright,16.66642105,616.5,300.5,266,10,-1,24,35,25,35,FALSE
null,null,psychophysics,543,3084145,0.0-3.0-1.265,,key,null,16.66552542,616.5,300.5,,,,,,,,
1612.2,arrowright,psychophysics,544,3085760,0.0-3.0-0.266,,key,arrowright,16.66582292,616.5,300.5,267,10,-1,24,35,25,35,FALSE
null,null,psychophysics,545,3086765,0.0-3.0-1.266,,key,null,16.66684746,616.5,300.5,,,,,,,,
1063.7,arrowright,psychophysics,546,3087832,0.0-3.0-0.267,,key,arrowright,16.66612698,616.5,300.5,268,10,1,27,15,25,35,TRUE
null,null,psychophysics,547,3088833,0.0-3.0-1.267,,key,null,16.6661,616.5,300.5,,,,,,,,
924.5,arrowright,psychophysics,548,3089760,0.0-3.0-0.268,,key,arrowright,16.66657407,616.5,300.5,269,10,1,30,35,25,35,TRUE
null,null,psychophysics,549,3090765,0.0-3.0-1.268,,key,null,16.66781356,616.5,300.5,,,,,,,,
674.4,arrowright,psychophysics,550,3091443,0.0-3.0-0.269,,key,arrowright,16.66675,616.5,300.5,270,10,1,30,35,25,35,TRUE
null,null,psychophysics,551,3092449,0.0-3.0-1.269,,key,null,16.66774576,616.5,300.5,,,,,,,,
712.2,arrowleft,psychophysics,552,3093165,0.0-3.0-0.270,,key,arrowleft,16.66609524,616.5,300.5,271,10,-1,27,15,25,35,TRUE
null,null,psychophysics,553,3094166,0.0-3.0-1.270,,key,null,16.66625,616.5,300.5,,,,,,,,
1061.1,arrowleft,psychophysics,554,3095229,0.0-3.0-0.271,,key,arrowleft,16.66417742,616.5,300.5,272,10,-1,27,35,25,35,TRUE
null,null,psychophysics,555,3096232,0.0-3.0-1.271,,key,null,16.66627119,616.5,300.5,,,,,,,,
1259.6,arrowleft,psychophysics,556,3097495,0.0-3.0-0.272,,key,arrowleft,16.66473333,616.5,300.5,273,10,1,25,35,25,35,FALSE
null,null,psychophysics,557,3098499,0.0-3.0-1.272,,key,null,16.66725424,616.5,300.5,,,,,,,,
6851.9,arrowleft,psychophysics,558,3105355,0.0-3.0-0.273,,key,arrowleft,16.66650122,616.5,300.5,274,10,1,24,35,25,35,FALSE
null,null,psychophysics,559,3106365,0.0-3.0-1.273,,key,null,16.66757627,616.5,300.5,,,,,,,,
2446.4,arrowright,psychophysics,560,3108815,0.0-3.0-0.274,,key,arrowright,16.66632877,616.5,300.5,275,10,-1,26,15,25,35,FALSE
null,null,psychophysics,561,3109832,0.0-3.0-1.274,,key,null,16.66575,616.5,300.5,,,,,,,,
4802.7,arrowright,psychophysics,562,3114638,0.0-3.0-0.275,,key,arrowright,16.66602431,616.5,300.5,276,10,-1,23,15,25,35,FALSE
null,null,psychophysics,563,3115648,0.0-3.0-1.275,,key,null,16.66422034,616.5,300.5,,,,,,,,
1125.5,arrowright,psychophysics,564,3116777,0.0-3.0-0.276,,key,arrowright,16.66355224,616.5,300.5,277,10,-1,23,15,25,35,FALSE
null,null,psychophysics,565,3117781,0.0-3.0-1.276,,key,null,16.66637288,616.5,300.5,,,,,,,,
1017,arrowleft,psychophysics,566,3118802,0.0-3.0-0.277,,key,arrowleft,16.66345902,616.5,300.5,278,10,-1,25,15,25,35,TRUE
null,null,psychophysics,567,3119811,0.0-3.0-1.277,,key,null,16.66489831,616.5,300.5,,,,,,,,
1629.4,arrowright,psychophysics,568,3121447,0.0-3.0-0.278,,key,arrowright,16.66738144,616.5,300.5,279,10,-1,23,15,25,35,FALSE
null,null,psychophysics,569,3122448,0.0-3.0-1.278,,key,null,16.66757627,616.5,300.5,,,,,,,,
1315.9,arrowright,psychophysics,570,3123768,0.0-3.0-0.279,,key,arrowright,16.66503797,616.5,300.5,280,11,1,25,35,25,35,TRUE
null,null,psychophysics,571,3124781,0.0-3.0-1.279,,key,null,16.66552542,616.5,300.5,,,,,,,,
