rt,response,trial_type,trial_index,time_elapsed,internal_node_id,stimulus,response_type,key_press,avg_frame_time,center_x,center_y,trial,block,test_pos,test_inner_radius,test_outer_radius,ref_inner_radius,ref_outer_radius,test_bigger
252129.9,"{""p_id"":""7572"",""age"":""19"",""handedness"":""right"",""sex"":""female"",""other_sex"":""""}",survey-html-form,0,252141,0.0-0.0,,,,,,,,,,,,,,
8871.5, ,html-keyboard-response,1,261014,0.0-1.0,"<p style=""color: white"">Welcome to the Size Judgment Experiment. <br>There will be 10 blocks in this experiment. <br>There will be 28 trials in each block. <br>You will be given a chance to take a break between blocks. <br>Press any key to start the experiment.</p>",,,,,,,,,,,,,
26908.9, ,psychophysics,2,287944,0.0-2.0,,key, ,16.67653498,430,349,,,,,,,,
22576.5,arrowright,psychophysics,3,310525,0.0-3.0-0.0,,key,arrowright,16.67450924,430,349,1,1,-1,26,35,25,35,FALSE
null,null,psychophysics,4,311527,0.0-3.0-1.0,,key,null,16.674,430,349,,,,,,,,
9110.2,arrowright,psychophysics,5,320640,0.0-3.0-0.1,,key,arrowright,16.674,430,349,2,1,-1,20,15,25,35,FALSE
null,null,psychophysics,6,321642,0.0-3.0-1.1,,key,null,16.674,430,349,,,,,,,,
1837.8,arrowright,psychophysics,7,323487,0.0-3.0-0.2,,key,arrowright,16.674,430,349,3,1,1,26,15,25,35,TRUE
null,null,psychophysics,8,324489,0.0-3.0-1.2,,key,null,16.674,430,349,,,,,,,,
1901.7,arrowleft,psychophysics,9,326393,0.0-3.0-0.3,,key,arrowleft,16.674,430,349,4,1,-1,27,15,25,35,TRUE
null,null,psychophysics,10,327395,0.0-3.0-1.3,,key,null,16.68547458,430,349,,,,,,,,
9606,arrowright,psychophysics,11,337003,0.0-3.0-0.4,,key,arrowright,16.674,430,349,5,1,-1,25,35,25,35,FALSE
null,null,psychophysics,12,338005,0.0-3.0-1.4,,key,null,16.674,430,349,,,,,,,,
1783.2,arrowleft,psychophysics,13,339791,0.0-3.0-0.5,,key,arrowleft,16.674,430,349,6,1,-1,27,35,25,35,TRUE
null,null,psychophysics,14,340793,0.0-3.0-1.5,,key,null,16.674,430,349,,,,,,,,
711.4,arrowright,psychophysics,15,341507,0.0-3.0-0.6,,key,arrowright,16.674,430,349,7,1,1,30,15,25,35,TRUE
null,null,psychophysics,16,342509,0.0-3.0-1.6,,key,null,16.674,430,349,,,,,,,,
1807.9,arrowright,psychophysics,17,344319,0.0-3.0-0.7,,key,arrowright,16.674,430,349,8,1,1,25,15,25,35,TRUE
null,null,psychophysics,18,345320,0.0-3.0-1.7,,key,null,16.674,430,349,,,,,,,,
1566.8,arrowright,psychophysics,19,346888,0.0-3.0-0.8,,key,arrowright,16.68095699,430,349,9,1,-1,20,35,25,35,FALSE
null,null,psychophysics,20,347890,0.0-3.0-1.8,,key,null,16.674,430,349,,,,,,,,
2032.3,arrowleft,psychophysics,21,349924,0.0-3.0-0.9,,key,arrowleft,16.674,430,349,10,1,1,24,35,25,35,FALSE
null,null,psychophysics,22,350925,0.0-3.0-1.9,,key,null,16.674,430,349,,,,,,,,
1395.6,arrowleft,psychophysics,23,352323,0.0-3.0-0.10,,key,arrowleft,16.674,430,349,11,1,1,20,35,25,35,FALSE
null,null,psychophysics,24,353324,0.0-3.0-1.10,,key,null,16.674,430,349,,,,,,,,
936.8,arrowright,psychophysics,25,354263,0.0-3.0-0.11,,key,arrowright,16.674,430,349,12,1,-1,20,35,25,35,FALSE
null,null,psychophysics,26,355265,0.0-3.0-1.11,,key,null,16.674,430,349,,,,,,,,
1852,arrowleft,psychophysics,27,357119,0.0-3.0-0.12,,key,arrowleft,16.674,430,349,13,1,1,20,15,25,35,FALSE
null,null,psychophysics,28,358121,0.0-3.0-1.12,,key,null,16.674,430,349,,,,,,,,
2157.6,arrowleft,psychophysics,29,360284,0.0-3.0-0.13,,key,arrowleft,16.674,430,349,14,1,1,20,15,25,35,FALSE
null,null,psychophysics,30,361286,0.0-3.0-1.13,,key,null,16.674,430,349,,,,,,,,
1398,arrowleft,psychophysics,31,362686,0.0-3.0-0.14,,key,arrowleft,16.674,430,349,15,1,1,20,35,25,35,FALSE
null,null,psychophysics,32,363689,0.0-3.0-1.14,,key,null,16.674,430,349,,,,,,,,
730.4,arrowright,psychophysics,33,364423,0.0-3.0-0.15,,key,arrowright,16.674,430,349,16,1,1,24,35,25,35,TRUE
null,null,psychophysics,34,365424,0.0-3.0-1.15,,key,null,16.674,430,349,,,,,,,,
5136.4,arrowleft,psychophysics,35,370563,0.0-3.0-0.16,,key,arrowleft,16.67601299,430,349,17,1,1,20,15,25,35,FALSE
null,null,psychophysics,36,371565,0.0-3.0-1.16,,key,null,16.674,430,349,,,,,,,,
619.1,arrowright,psychophysics,37,372186,0.0-3.0-0.17,,key,arrowright,16.674,430,349,18,1,1,25,15,25,35,TRUE
null,null,psychophysics,38,373187,0.0-3.0-1.17,,key,null,16.674,430,349,,,,,,,,
1616,arrowright,psychophysics,39,374806,0.0-3.0-0.18,,key,arrowright,16.674,430,349,19,1,1,26,35,25,35,TRUE
null,null,psychophysics,40,375807,0.0-3.0-1.18,,key,null,16.674,430,349,,,,,,,,
1501.5,arrowright,psychophysics,41,377311,0.0-3.0-0.19,,key,arrowright,16.674,430,349,20,1,-1,23,35,25,35,FALSE
null,null,psychophysics,42,378314,0.0-3.0-1.19,,key,null,16.674,430,349,,,,,,,,
5555.4,arrowleft,psychophysics,43,383873,0.0-3.0-0.20,,key,arrowleft,16.674,430,349,21,1,-1,27,35,25,35,TRUE
null,null,psychophysics,44,384875,0.0-3.0-1.20,,key,null,16.674,430,349,,,,,,,,
16973.4,arrowleft,psychophysics,45,401851,0.0-3.0-0.21,,key,arrowleft,16.67477974,430,349,22,1,1,23,15,25,35,FALSE
null,null,psychophysics,46,402853,0.0-3.0-1.21,,key,null,16.674,430,349,,,,,,,,
5847,arrowright,psychophysics,47,408703,0.0-3.0-0.22,,key,arrowright,16.67596286,430,349,23,1,1,25,35,25,35,TRUE
null,null,psychophysics,48,409704,0.0-3.0-1.22,,key,null,16.674,430,349,,,,,,,,
7167.9,arrowright,psychophysics,49,416874,0.0-3.0-0.23,,key,arrowright,16.674,430,349,24,1,1,25,35,25,35,TRUE
null,null,psychophysics,50,417878,0.0-3.0-1.23,,key,null,16.674,430,349,,,,,,,,
2411.9,arrowright,psychophysics,51,420292,0.0-3.0-0.24,,key,arrowright,16.674,430,349,25,1,1,26,35,25,35,TRUE
null,null,psychophysics,52,421294,0.0-3.0-1.24,,key,null,16.674,430,349,,,,,,,,
1129.1,arrowright,psychophysics,53,422425,0.0-3.0-0.25,,key,arrowright,16.674,430,349,26,1,1,27,15,25,35,TRUE
null,null,psychophysics,54,423426,0.0-3.0-1.25,,key,null,16.674,430,349,,,,,,,,
1399.5,arrowright,psychophysics,55,424827,0.0-3.0-0.26,,key,arrowright,16.674,430,349,27,1,-1,20,15,25,35,FALSE
null,null,psychophysics,56,425829,0.0-3.0-1.26,,key,null,16.674,430,349,,,,,,,,
1038,arrowleft,psychophysics,57,426870,0.0-3.0-0.27,,key,arrowleft,16.68332787,430,349,28,2,1,23,15,25,35,FALSE
null,null,psychophysics,58,427873,0.0-3.0-1.27,,key,null,16.674,430,349,,,,,,,,
714363.1, ,html-keyboard-response,59,1142269,0.0-3.0-2.27-0.27,"<div style=""color: white; text-align: center; vertical-align: top; display: inline-block; width: 800px; margin: auto""><p>You have completed 10% of the trials. You are on block 2 of 10. <br>Good job! Take a break if you need to.</p><p>Press any key to continue the experiment.</p></div>",,,,,,,,,,,,,
9596.1,arrowleft,psychophysics,60,1152874,0.0-3.0-0.28,,key,arrowleft,16.674,430,349,29,2,-1,30,35,25,35,TRUE
null,null,psychophysics,61,1153878,0.0-3.0-1.28,,key,null,16.674,430,349,,,,,,,,
928,arrowright,psychophysics,62,1154810,0.0-3.0-0.29,,key,arrowright,16.674,430,349,30,2,-1,25,35,25,35,FALSE
null,null,psychophysics,63,1155812,0.0-3.0-1.29,,key,null,16.674,430,349,,,,,,,,
1222.1,arrowright,psychophysics,64,1157038,0.0-3.0-0.30,,key,arrowright,16.674,430,349,31,2,1,24,35,25,35,TRUE
null,null,psychophysics,65,1158040,0.0-3.0-1.30,,key,null,16.674,430,349,,,,,,,,
1493.4,arrowright,psychophysics,66,1159535,0.0-3.0-0.31,,key,arrowright,16.62948315,430,349,32,2,-1,24,35,25,35,FALSE
null,null,psychophysics,67,1160536,0.0-3.0-1.31,,key,null,16.674,430,349,,,,,,,,
1610.5,arrowright,psychophysics,68,1162150,0.0-3.0-0.32,,key,arrowright,16.674,430,349,33,2,-1,25,35,25,35,FALSE
null,null,psychophysics,69,1163152,0.0-3.0-1.32,,key,null,16.674,430,349,,,,,,,,
2034.1,arrowleft,psychophysics,70,1165188,0.0-3.0-0.33,,key,arrowleft,16.674,430,349,34,2,1,23,35,25,35,FALSE
null,null,psychophysics,71,1166190,0.0-3.0-1.33,,key,null,16.674,430,349,,,,,,,,
1879.7,arrowright,psychophysics,72,1168072,0.0-3.0-0.34,,key,arrowright,16.674,430,349,35,2,1,23,15,25,35,TRUE
null,null,psychophysics,73,1169074,0.0-3.0-1.34,,key,null,16.674,430,349,,,,,,,,
18720.3,arrowright,psychophysics,74,1187798,0.0-3.0-0.35,,key,arrowright,16.67461586,430,349,36,2,-1,23,15,25,35,FALSE
null,null,psychophysics,75,1188800,0.0-3.0-1.35,,key,null,16.674,430,349,,,,,,,,
1109.1,arrowright,psychophysics,76,1189912,0.0-3.0-0.36,,key,arrowright,16.674,430,349,37,2,-1,24,15,25,35,FALSE
null,null,psychophysics,77,1190912,0.0-3.0-1.36,,key,null,16.674,430,349,,,,,,,,
3394.5,arrowleft,psychophysics,78,1194309,0.0-3.0-0.37,,key,arrowleft,16.674,430,349,38,2,1,20,15,25,35,FALSE
null,null,psychophysics,79,1195310,0.0-3.0-1.37,,key,null,16.674,430,349,,,,,,,,
2099.1,arrowleft,psychophysics,80,1197415,0.0-3.0-0.38,,key,arrowleft,16.674,430,349,39,2,-1,26,15,25,35,TRUE
null,null,psychophysics,81,1198416,0.0-3.0-1.38,,key,null,16.68559322,430,349,,,,,,,,
2667.5,arrowright,psychophysics,82,1201086,0.0-3.0-0.39,,key,arrowright,16.674,430,349,40,2,-1,23,15,25,35,FALSE
null,null,psychophysics,83,1202087,0.0-3.0-1.39,,key,null,16.674,430,349,,,,,,,,
914.3,arrowright,psychophysics,84,1203004,0.0-3.0-0.40,,key,arrowright,16.674,430,349,41,2,1,25,15,25,35,TRUE
null,null,psychophysics,85,1204008,0.0-3.0-1.40,,key,null,16.674,430,349,,,,,,,,
1661.2,arrowleft,psychophysics,86,1205672,0.0-3.0-0.41,,key,arrowleft,16.674,430,349,42,2,-1,25,15,25,35,TRUE
null,null,psychophysics,87,1206674,0.0-3.0-1.41,,key,null,16.674,430,349,,,,,,,,
1180.1,arrowright,psychophysics,88,1207856,0.0-3.0-0.42,,key,arrowright,16.674,430,349,43,2,-1,25,35,25,35,FALSE
null,null,psychophysics,89,1208858,0.0-3.0-1.42,,key,null,16.674,430,349,,,,,,,,
947.5,arrowleft,psychophysics,90,1209808,0.0-3.0-0.43,,key,arrowleft,16.674,430,349,44,2,-1,23,15,25,35,TRUE
null,null,psychophysics,91,1210810,0.0-3.0-1.43,,key,null,16.674,430,349,,,,,,,,
1998.7,arrowleft,psychophysics,92,1212811,0.0-3.0-0.44,,key,arrowleft,16.674,430,349,45,2,-1,30,35,25,35,TRUE
null,null,psychophysics,93,1213812,0.0-3.0-1.44,,key,null,16.674,430,349,,,,,,,,
1986.8,arrowright,psychophysics,94,1215801,0.0-3.0-0.45,,key,arrowright,16.674,430,349,46,2,1,24,35,25,35,TRUE
null,null,psychophysics,95,1216803,0.0-3.0-1.45,,key,null,16.674,430,349,,,,,,,,
3236.1,arrowleft,psychophysics,96,1220046,0.0-3.0-0.46,,key,arrowleft,16.67752062,430,349,47,2,-1,27,35,25,35,TRUE
null,null,psychophysics,97,1221047,0.0-3.0-1.46,,key,null,16.674,430,349,,,,,,,,
2480.6,arrowright,psychophysics,98,1223531,0.0-3.0-0.47,,key,arrowright,16.674,430,349,48,2,1,24,15,25,35,TRUE
null,null,psychophysics,99,1224531,0.0-3.0-1.47,,key,null,16.674,430,349,,,,,,,,
2866.3,arrowright,psychophysics,100,1227400,0.0-3.0-0.48,,key,arrowright,16.674,430,349,49,2,1,24,15,25,35,TRUE
null,null,psychophysics,101,1228401,0.0-3.0-1.48,,key,null,16.674,430,349,,,,,,,,
857.8,arrowleft,psychophysics,102,1229262,0.0-3.0-0.49,,key,arrowleft,16.674,430,349,50,2,-1,30,35,25,35,TRUE
null,null,psychophysics,103,1230264,0.0-3.0-1.49,,key,null,16.674,430,349,,,,,,,,
666.8,arrowright,psychophysics,104,1230933,0.0-3.0-0.50,,key,arrowright,16.674,430,349,51,2,1,26,15,25,35,TRUE
null,null,psychophysics,105,1231934,0.0-3.0-1.50,,key,null,16.674,430,349,,,,,,,,
598.3,arrowleft,psychophysics,106,1232534,0.0-3.0-0.51,,key,arrowleft,16.674,430,349,52,2,-1,27,15,25,35,TRUE
null,null,psychophysics,107,1233535,0.0-3.0-1.51,,key,null,16.674,430,349,,,,,,,,
1065.1,arrowleft,psychophysics,108,1234602,0.0-3.0-0.52,,key,arrowleft,16.674,430,349,53,2,-1,30,35,25,35,TRUE
null,null,psychophysics,109,1235603,0.0-3.0-1.52,,key,null,16.674,430,349,,,,,,,,
12425.7,arrowright,psychophysics,110,1248031,0.0-3.0-0.53,,key,arrowright,16.67492608,430,349,54,2,-1,25,35,25,35,FALSE
null,null,psychophysics,111,1249034,0.0-3.0-1.53,,key,null,16.674,430,349,,,,,,,,
5693.3,arrowleft,psychophysics,112,1254730,0.0-3.0-0.54,,key,arrowleft,16.674,430,349,55,2,1,23,35,25,35,FALSE
null,null,psychophysics,113,1255731,0.0-3.0-1.54,,key,null,16.674,430,349,,,,,,,,
4182.9,arrowleft,psychophysics,114,1259917,0.0-3.0-0.55,,key,arrowleft,16.676732,430,349,56,3,-1,27,35,25,35,TRUE
null,null,psychophysics,115,1260919,0.0-3.0-1.55,,key,null,16.674,430,349,,,,,,,,
2069.5, ,html-keyboard-response,116,1262990,0.0-3.0-2.55-0.55,"<div style=""color: white; text-align: center; vertical-align: top; display: inline-block; width: 800px; margin: auto""><p>You have completed 20% of the trials. You are on block 3 of 10. <br>Good job! Take a break if you need to.</p><p>Press any key to continue the experiment.</p></div>",,,,,,,,,,,,,
782.9,arrowleft,psychophysics,117,1264780,0.0-3.0-0.56,,key,arrowleft,16.674,430,349,57,3,-1,27,15,25,35,TRUE
null,null,psychophysics,118,1265783,0.0-3.0-1.56,,key,null,16.674,430,349,,,,,,,,
1718.5,arrowright,psychophysics,119,1267503,0.0-3.0-0.57,,key,arrowright,16.674,430,349,58,3,-1,23,35,25,35,FALSE
null,null,psychophysics,120,1268505,0.0-3.0-1.57,,key,null,16.674,430,349,,,,,,,,
2229.8,arrowright,psychophysics,121,1270737,0.0-3.0-0.58,,key,arrowright,16.674,430,349,59,3,1,26,35,25,35,TRUE
null,null,psychophysics,122,1271738,0.0-3.0-1.58,,key,null,16.674,430,349,,,,,,,,
1332.8,arrowright,psychophysics,123,1273072,0.0-3.0-0.59,,key,arrowright,16.674,430,349,60,3,-1,23,35,25,35,FALSE
null,null,psychophysics,124,1274073,0.0-3.0-1.59,,key,null,16.674,430,349,,,,,,,,
2800.5,arrowright,psychophysics,125,1276876,0.0-3.0-0.60,,key,arrowright,16.674,430,349,61,3,-1,20,15,25,35,FALSE
null,null,psychophysics,126,1277878,0.0-3.0-1.60,,key,null,16.674,430,349,,,,,,,,
1283.3,arrowright,psychophysics,127,1279163,0.0-3.0-0.61,,key,arrowright,16.68156579,430,349,62,3,1,30,35,25,35,TRUE
null,null,psychophysics,128,1280164,0.0-3.0-1.61,,key,null,16.674,430,349,,,,,,,,
1993.3,arrowleft,psychophysics,129,1282161,0.0-3.0-0.62,,key,arrowleft,16.674,430,349,63,3,-1,25,15,25,35,TRUE
null,null,psychophysics,130,1283162,0.0-3.0-1.62,,key,null,16.674,430,349,,,,,,,,
1681,arrowleft,psychophysics,131,1284846,0.0-3.0-0.63,,key,arrowleft,16.674,430,349,64,3,1,20,35,25,35,FALSE
null,null,psychophysics,132,1285848,0.0-3.0-1.63,,key,null,16.674,430,349,,,,,,,,
2680.8,arrowleft,psychophysics,133,1288531,0.0-3.0-0.64,,key,arrowleft,16.674,430,349,65,3,-1,25,15,25,35,TRUE
null,null,psychophysics,134,1289533,0.0-3.0-1.64,,key,null,16.674,430,349,,,,,,,,
3139,arrowleft,psychophysics,135,1292673,0.0-3.0-0.65,,key,arrowleft,16.674,430,349,66,3,-1,26,35,25,35,TRUE
null,null,psychophysics,136,1293676,0.0-3.0-1.65,,key,null,16.674,430,349,,,,,,,,
3585.7,arrowleft,psychophysics,137,1297268,0.0-3.0-0.66,,key,arrowleft,16.674,430,349,67,3,-1,24,15,25,35,TRUE
null,null,psychophysics,138,1298269,0.0-3.0-1.66,,key,null,16.674,430,349,,,,,,,,
1636.1,arrowright,psychophysics,139,1299908,0.0-3.0-0.67,,key,arrowright,16.6822268,430,349,68,3,-1,20,15,25,35,FALSE
null,null,psychophysics,140,1300910,0.0-3.0-1.67,,key,null,16.674,430,349,,,,,,,,
1114.4,arrowright,psychophysics,141,1302026,0.0-3.0-0.68,,key,arrowright,16.674,430,349,69,3,-1,23,35,25,35,FALSE
null,null,psychophysics,142,1303028,0.0-3.0-1.68,,key,null,16.674,430,349,,,,,,,,
1498.8,arrowleft,psychophysics,143,1304529,0.0-3.0-0.69,,key,arrowleft,16.674,430,349,70,3,-1,27,15,25,35,TRUE
null,null,psychophysics,144,1305532,0.0-3.0-1.69,,key,null,16.674,430,349,,,,,,,,
1575.3,arrowleft,psychophysics,145,1307114,0.0-3.0-0.70,,key,arrowleft,16.674,430,349,71,3,-1,27,15,25,35,TRUE
null,null,psychophysics,146,1308117,0.0-3.0-1.70,,key,null,16.674,430,349,,,,,,,,
1608.6,arrowleft,psychophysics,147,1309732,0.0-3.0-0.71,,key,arrowleft,16.674,430,349,72,3,-1,30,35,25,35,TRUE
null,null,psychophysics,148,1310733,0.0-3.0-1.71,,key,null,16.674,430,349,,,,,,,,
2622.8,arrowleft,psychophysics,149,1313359,0.0-3.0-0.72,,key,arrowleft,16.674,430,349,73,3,-1,26,35,25,35,TRUE
null,null,psychophysics,150,1314361,0.0-3.0-1.72,,key,null,16.674,430,349,,,,,,,,
2119.4,arrowleft,psychophysics,151,1316483,0.0-3.0-0.73,,key,arrowleft,16.674,430,349,74,3,-1,27,35,25,35,TRUE
null,null,psychophysics,152,1317485,0.0-3.0-1.73,,key,null,16.674,430,349,,,,,,,,
6610.4,arrowright,psychophysics,153,1324097,0.0-3.0-0.74,,key,arrowright,16.6757399,430,349,75,3,1,25,35,25,35,TRUE
null,null,psychophysics,154,1325098,0.0-3.0-1.74,,key,null,16.674,430,349,,,,,,,,
1115.8,arrowright,psychophysics,155,1326216,0.0-3.0-0.75,,key,arrowright,16.674,430,349,76,3,1,30,35,25,35,TRUE
null,null,psychophysics,156,1327218,0.0-3.0-1.75,,key,null,16.674,430,349,,,,,,,,
3364.2,arrowright,psychophysics,157,1330585,0.0-3.0-0.76,,key,arrowright,16.674,430,349,77,3,-1,24,35,25,35,FALSE
null,null,psychophysics,158,1331587,0.0-3.0-1.76,,key,null,16.674,430,349,,,,,,,,
1436.2,arrowright,psychophysics,159,1333025,0.0-3.0-0.77,,key,arrowright,16.674,430,349,78,3,1,27,35,25,35,TRUE
null,null,psychophysics,160,1334028,0.0-3.0-1.77,,key,null,16.674,430,349,,,,,,,,
7893.2,arrowleft,psychophysics,161,1341924,0.0-3.0-0.78,,key,arrowleft,16.67520085,430,349,79,3,1,25,35,25,35,FALSE
null,null,psychophysics,162,1342926,0.0-3.0-1.78,,key,null,16.674,430,349,,,,,,,,
897,arrowright,psychophysics,163,1343826,0.0-3.0-0.79,,key,arrowright,16.674,430,349,80,3,1,27,35,25,35,TRUE
null,null,psychophysics,164,1344827,0.0-3.0-1.79,,key,null,16.674,430,349,,,,,,,,
782.3,arrowright,psychophysics,165,1345612,0.0-3.0-0.80,,key,arrowright,16.674,430,349,81,3,-1,23,35,25,35,FALSE
null,null,psychophysics,166,1346614,0.0-3.0-1.80,,key,null,16.674,430,349,,,,,,,,
627.7,arrowleft,psychophysics,167,1347244,0.0-3.0-0.81,,key,arrowleft,16.674,430,349,82,3,-1,30,15,25,35,TRUE
null,null,psychophysics,168,1348246,0.0-3.0-1.81,,key,null,16.674,430,349,,,,,,,,
1048.2,arrowright,psychophysics,169,1349297,0.0-3.0-0.82,,key,arrowright,16.674,430,349,83,3,1,24,15,25,35,TRUE
null,null,psychophysics,170,1350298,0.0-3.0-1.82,,key,null,16.674,430,349,,,,,,,,
993.9,arrowleft,psychophysics,171,1351295,0.0-3.0-0.83,,key,arrowleft,16.674,430,349,84,4,-1,25,15,25,35,TRUE
null,null,psychophysics,172,1352296,0.0-3.0-1.83,,key,null,16.674,430,349,,,,,,,,
674.1, ,html-keyboard-response,173,1352972,0.0-3.0-2.83-0.83,"<div style=""color: white; text-align: center; vertical-align: top; display: inline-block; width: 800px; margin: auto""><p>You have completed 30% of the trials. You are on block 4 of 10. <br>Good job! Take a break if you need to.</p><p>Press any key to continue the experiment.</p></div>",,,,,,,,,,,,,
1073,arrowleft,psychophysics,174,1355051,0.0-3.0-0.84,,key,arrowleft,16.674,430,349,85,4,1,23,35,25,35,FALSE
null,null,psychophysics,175,1356052,0.0-3.0-1.84,,key,null,16.674,430,349,,,,,,,,
1029.6,arrowleft,psychophysics,176,1357085,0.0-3.0-0.85,,key,arrowleft,16.674,430,349,86,4,1,20,35,25,35,FALSE
null,null,psychophysics,177,1358086,0.0-3.0-1.85,,key,null,16.674,430,349,,,,,,,,
1094.9,arrowleft,psychophysics,178,1359184,0.0-3.0-0.86,,key,arrowleft,16.68616923,430,349,87,4,-1,27,15,25,35,TRUE
null,null,psychophysics,179,1360185,0.0-3.0-1.86,,key,null,16.674,430,349,,,,,,,,
1579.9,arrowleft,psychophysics,180,1361767,0.0-3.0-0.87,,key,arrowleft,16.674,430,349,88,4,1,24,35,25,35,FALSE
null,null,psychophysics,181,1362769,0.0-3.0-1.87,,key,null,16.674,430,349,,,,,,,,
833.4,arrowleft,psychophysics,182,1363604,0.0-3.0-0.88,,key,arrowleft,16.674,430,349,89,4,1,20,35,25,35,FALSE
null,null,psychophysics,183,1364606,0.0-3.0-1.88,,key,null,16.674,430,349,,,,,,,,
926.8,arrowright,psychophysics,184,1365536,0.0-3.0-0.89,,key,arrowright,16.674,430,349,90,4,-1,20,15,25,35,FALSE
null,null,psychophysics,185,1366537,0.0-3.0-1.89,,key,null,16.674,430,349,,,,,,,,
1439.9,arrowleft,psychophysics,186,1367979,0.0-3.0-0.90,,key,arrowleft,16.674,430,349,91,4,1,23,35,25,35,FALSE
null,null,psychophysics,187,1368982,0.0-3.0-1.90,,key,null,16.674,430,349,,,,,,,,
599.9,arrowright,psychophysics,188,1369588,0.0-3.0-0.91,,key,arrowright,16.674,430,349,92,4,1,27,15,25,35,TRUE
null,null,psychophysics,189,1370589,0.0-3.0-1.91,,key,null,16.674,430,349,,,,,,,,
1448.2,arrowright,psychophysics,190,1372040,0.0-3.0-0.92,,key,arrowright,16.674,430,349,93,4,1,27,35,25,35,TRUE
null,null,psychophysics,191,1373042,0.0-3.0-1.92,,key,null,16.674,430,349,,,,,,,,
630.1,arrowleft,psychophysics,192,1373674,0.0-3.0-0.93,,key,arrowleft,16.674,430,349,94,4,-1,30,15,25,35,TRUE
null,null,psychophysics,193,1374675,0.0-3.0-1.93,,key,null,16.674,430,349,,,,,,,,
1397.4,arrowright,psychophysics,194,1376075,0.0-3.0-0.94,,key,arrowright,16.674,430,349,95,4,1,25,35,25,35,TRUE
null,null,psychophysics,195,1377078,0.0-3.0-1.94,,key,null,16.674,430,349,,,,,,,,
2069.8,arrowright,psychophysics,196,1379150,0.0-3.0-0.95,,key,arrowright,16.67964228,430,349,96,4,1,26,35,25,35,TRUE
null,null,psychophysics,197,1380153,0.0-3.0-1.95,,key,null,16.674,430,349,,,,,,,,
5658.1,arrowright,psychophysics,198,1385818,0.0-3.0-0.96,,key,arrowright,16.674,430,349,97,4,-1,23,15,25,35,FALSE
null,null,psychophysics,199,1386819,0.0-3.0-1.96,,key,null,16.674,430,349,,,,,,,,
1869.5,arrowright,psychophysics,200,1388692,0.0-3.0-0.97,,key,arrowright,16.674,430,349,98,4,1,26,35,25,35,TRUE
null,null,psychophysics,201,1389694,0.0-3.0-1.97,,key,null,16.674,430,349,,,,,,,,
5653.9,arrowleft,psychophysics,202,1395351,0.0-3.0-0.98,,key,arrowleft,16.674,430,349,99,4,1,25,35,25,35,FALSE
null,null,psychophysics,203,1396353,0.0-3.0-1.98,,key,null,16.674,430,349,,,,,,,,
1830.5,arrowleft,psychophysics,204,1398186,0.0-3.0-0.99,,key,arrowleft,16.674,430,349,100,4,-1,30,15,25,35,TRUE
null,null,psychophysics,205,1399187,0.0-3.0-1.99,,key,null,16.68552542,430,349,,,,,,,,
2251.2,arrowleft,psychophysics,206,1401441,0.0-3.0-0.100,,key,arrowleft,16.674,430,349,101,4,-1,27,35,25,35,TRUE
null,null,psychophysics,207,1402443,0.0-3.0-1.100,,key,null,16.674,430,349,,,,,,,,
1813.2,arrowleft,psychophysics,208,1404259,0.0-3.0-0.101,,key,arrowleft,16.674,430,349,102,4,-1,24,15,25,35,TRUE
null,null,psychophysics,209,1405260,0.0-3.0-1.101,,key,null,16.674,430,349,,,,,,,,
1992.8,arrowleft,psychophysics,210,1407256,0.0-3.0-0.102,,key,arrowleft,16.674,430,349,103,4,-1,30,35,25,35,TRUE
null,null,psychophysics,211,1408257,0.0-3.0-1.102,,key,null,16.674,430,349,,,,,,,,
697.2,arrowright,psychophysics,212,1408956,0.0-3.0-0.103,,key,arrowright,16.674,430,349,104,4,-1,24,35,25,35,FALSE
null,null,psychophysics,213,1409957,0.0-3.0-1.103,,key,null,16.674,430,349,,,,,,,,
785.2,arrowright,psychophysics,214,1410744,0.0-3.0-0.104,,key,arrowright,16.674,430,349,105,4,-1,20,15,25,35,FALSE
null,null,psychophysics,215,1411746,0.0-3.0-1.104,,key,null,16.674,430,349,,,,,,,,
587.5,arrowleft,psychophysics,216,1412336,0.0-3.0-0.105,,key,arrowleft,16.674,430,349,106,4,-1,24,15,25,35,TRUE
null,null,psychophysics,217,1413337,0.0-3.0-1.105,,key,null,16.674,430,349,,,,,,,,
507.8,arrowleft,psychophysics,218,1413850,0.0-3.0-0.106,,key,arrowleft,16.674,430,349,107,4,-1,30,15,25,35,TRUE
null,null,psychophysics,219,1414854,0.0-3.0-1.106,,key,null,16.674,430,349,,,,,,,,
727,arrowright,psychophysics,220,1415585,0.0-3.0-0.107,,key,arrowright,16.674,430,349,108,4,-1,23,15,25,35,FALSE
null,null,psychophysics,221,1416588,0.0-3.0-1.107,,key,null,16.674,430,349,,,,,,,,
687.6,arrowleft,psychophysics,222,1417280,0.0-3.0-0.108,,key,arrowleft,16.674,430,349,109,4,-1,27,15,25,35,TRUE
null,null,psychophysics,223,1418281,0.0-3.0-1.108,,key,null,16.674,430,349,,,,,,,,
1345.3,arrowright,psychophysics,224,1419629,0.0-3.0-0.109,,key,arrowright,16.68281013,430,349,110,4,1,25,35,25,35,TRUE
null,null,psychophysics,225,1420630,0.0-3.0-1.109,,key,null,16.674,430,349,,,,,,,,
1250.2,arrowright,psychophysics,226,1421882,0.0-3.0-0.110,,key,arrowright,16.674,430,349,111,4,-1,20,15,25,35,FALSE
null,null,psychophysics,227,1422884,0.0-3.0-1.110,,key,null,16.674,430,349,,,,,,,,
1183.3,arrowright,psychophysics,228,1424069,0.0-3.0-0.111,,key,arrowright,16.674,430,349,112,5,-1,23,35,25,35,FALSE
null,null,psychophysics,229,1425070,0.0-3.0-1.111,,key,null,16.674,430,349,,,,,,,,
1043.9,arrowright,html-keyboard-response,230,1426115,0.0-3.0-2.111-0.111,"<div style=""color: white; text-align: center; vertical-align: top; display: inline-block; width: 800px; margin: auto""><p>You have completed 40% of the trials. You are on block 5 of 10. <br>Good job! Take a break if you need to.</p><p>Press any key to continue the experiment.</p></div>",,,,,,,,,,,,,
1019.9,arrowright,psychophysics,231,1428141,0.0-3.0-0.112,,key,arrowright,16.674,430,349,113,5,-1,24,35,25,35,FALSE
null,null,psychophysics,232,1429144,0.0-3.0-1.112,,key,null,16.674,430,349,,,,,,,,
1461.4,arrowright,psychophysics,233,1430608,0.0-3.0-0.113,,key,arrowright,16.674,430,349,114,5,1,24,35,25,35,TRUE
null,null,psychophysics,234,1431609,0.0-3.0-1.113,,key,null,16.674,430,349,,,,,,,,
674.5,arrowright,psychophysics,235,1432285,0.0-3.0-0.114,,key,arrowright,16.674,430,349,115,5,1,30,35,25,35,TRUE
null,null,psychophysics,236,1433287,0.0-3.0-1.114,,key,null,16.674,430,349,,,,,,,,
712.8,arrowleft,psychophysics,237,1434003,0.0-3.0-0.115,,key,arrowleft,16.674,430,349,116,5,-1,30,35,25,35,TRUE
null,null,psychophysics,238,1435004,0.0-3.0-1.115,,key,null,16.674,430,349,,,,,,,,
983.5,arrowright,psychophysics,239,1435990,0.0-3.0-0.116,,key,arrowright,16.674,430,349,117,5,1,26,15,25,35,TRUE
null,null,psychophysics,240,1436994,0.0-3.0-1.116,,key,null,16.674,430,349,,,,,,,,
1850.5,arrowleft,psychophysics,241,1438847,0.0-3.0-0.117,,key,arrowleft,16.6050991,430,349,118,5,1,20,35,25,35,FALSE
null,null,psychophysics,242,1439848,0.0-3.0-1.117,,key,null,16.674,430,349,,,,,,,,
4289.7,arrowleft,psychophysics,243,1444140,0.0-3.0-0.118,,key,arrowleft,16.674,430,349,119,5,-1,24,15,25,35,TRUE
null,null,psychophysics,244,1445142,0.0-3.0-1.118,,key,null,16.674,430,349,,,,,,,,
708.3,arrowright,psychophysics,245,1445853,0.0-3.0-0.119,,key,arrowright,16.674,430,349,120,5,-1,20,15,25,35,FALSE
null,null,psychophysics,246,1446854,0.0-3.0-1.119,,key,null,16.674,430,349,,,,,,,,
614.4,arrowright,psychophysics,247,1447471,0.0-3.0-0.120,,key,arrowright,16.674,430,349,121,5,1,30,15,25,35,TRUE
null,null,psychophysics,248,1448472,0.0-3.0-1.120,,key,null,16.674,430,349,,,,,,,,
950.9,arrowleft,psychophysics,249,1449425,0.0-3.0-0.121,,key,arrowleft,16.674,430,349,122,5,-1,25,15,25,35,TRUE
null,null,psychophysics,250,1450427,0.0-3.0-1.121,,key,null,16.674,430,349,,,,,,,,
694.2,arrowright,psychophysics,251,1451124,0.0-3.0-0.122,,key,arrowright,16.674,430,349,123,5,1,30,35,25,35,TRUE
null,null,psychophysics,252,1452125,0.0-3.0-1.122,,key,null,16.674,430,349,,,,,,,,
1443.8,arrowleft,psychophysics,253,1453571,0.0-3.0-0.123,,key,arrowleft,16.674,430,349,124,5,-1,26,15,25,35,TRUE
null,null,psychophysics,254,1454573,0.0-3.0-1.123,,key,null,16.674,430,349,,,,,,,,
1313.6,arrowleft,psychophysics,255,1455889,0.0-3.0-0.124,,key,arrowleft,16.674,430,349,125,5,-1,26,15,25,35,TRUE
null,null,psychophysics,256,1456891,0.0-3.0-1.124,,key,null,16.674,430,349,,,,,,,,
4298.9,arrowleft,psychophysics,257,1461192,0.0-3.0-0.125,,key,arrowleft,16.6766537,430,349,126,5,-1,25,15,25,35,TRUE
null,null,psychophysics,258,1462194,0.0-3.0-1.125,,key,null,16.674,430,349,,,,,,,,
813.8,arrowright,psychophysics,259,1463010,0.0-3.0-0.126,,key,arrowright,16.674,430,349,127,5,1,27,35,25,35,TRUE
null,null,psychophysics,260,1464012,0.0-3.0-1.126,,key,null,16.674,430,349,,,,,,,,
848.4,arrowright,psychophysics,261,1464866,0.0-3.0-0.127,,key,arrowright,16.674,430,349,128,5,1,25,15,25,35,TRUE
null,null,psychophysics,262,1465868,0.0-3.0-1.127,,key,null,16.674,430,349,,,,,,,,
1224.9,arrowleft,psychophysics,263,1467095,0.0-3.0-0.128,,key,arrowleft,16.674,430,349,129,5,-1,27,35,25,35,TRUE
null,null,psychophysics,264,1468096,0.0-3.0-1.128,,key,null,16.674,430,349,,,,,,,,
1195.8,arrowleft,psychophysics,265,1469295,0.0-3.0-0.129,,key,arrowleft,16.674,430,349,130,5,-1,30,35,25,35,TRUE
null,null,psychophysics,266,1470296,0.0-3.0-1.129,,key,null,16.674,430,349,,,,,,,,
581.9,arrowright,psychophysics,267,1470880,0.0-3.0-0.130,,key,arrowright,16.674,430,349,131,5,1,27,15,25,35,TRUE
null,null,psychophysics,268,1471882,0.0-3.0-1.130,,key,null,16.674,430,349,,,,,,,,
964.4,arrowleft,psychophysics,269,1472849,0.0-3.0-0.131,,key,arrowleft,16.674,430,349,132,5,-1,26,15,25,35,TRUE
null,null,psychophysics,270,1473850,0.0-3.0-1.131,,key,null,16.674,430,349,,,,,,,,
3077.8,arrowleft,psychophysics,271,1476930,0.0-3.0-0.132,,key,arrowleft,16.674,430,349,133,5,-1,26,35,25,35,TRUE
null,null,psychophysics,272,1477932,0.0-3.0-1.132,,key,null,16.674,430,349,,,,,,,,
1734.6,arrowleft,psychophysics,273,1479668,0.0-3.0-0.133,,key,arrowleft,16.68067961,430,349,134,5,-1,26,35,25,35,TRUE
null,null,psychophysics,274,1480670,0.0-3.0-1.133,,key,null,16.674,430,349,,,,,,,,
3429.4,arrowleft,psychophysics,275,1484102,0.0-3.0-0.134,,key,arrowleft,16.674,430,349,135,5,1,20,15,25,35,FALSE
null,null,psychophysics,276,1485104,0.0-3.0-1.134,,key,null,16.674,430,349,,,,,,,,
880.5,arrowright,psychophysics,277,1485986,0.0-3.0-0.135,,key,arrowright,16.674,430,349,136,5,-1,20,35,25,35,FALSE
null,null,psychophysics,278,1486987,0.0-3.0-1.135,,key,null,16.674,430,349,,,,,,,,
615.1,arrowright,psychophysics,279,1487605,0.0-3.0-0.136,,key,arrowright,16.674,430,349,137,5,1,30,15,25,35,TRUE
null,null,psychophysics,280,1488606,0.0-3.0-1.136,,key,null,16.674,430,349,,,,,,,,
1285.2,arrowright,psychophysics,281,1489895,0.0-3.0-0.137,,key,arrowright,16.674,430,349,138,5,1,26,35,25,35,TRUE
null,null,psychophysics,282,1490896,0.0-3.0-1.137,,key,null,16.674,430,349,,,,,,,,
943.4,arrowleft,psychophysics,283,1491842,0.0-3.0-0.138,,key,arrowleft,16.674,430,349,139,5,1,23,15,25,35,FALSE
null,null,psychophysics,284,1492845,0.0-3.0-1.138,,key,null,16.674,430,349,,,,,,,,
538,arrowright,psychophysics,285,1493385,0.0-3.0-0.139,,key,arrowright,16.674,430,349,140,6,1,27,15,25,35,TRUE
null,null,psychophysics,286,1494386,0.0-3.0-1.139,,key,null,16.674,430,349,,,,,,,,
977.9, ,html-keyboard-response,287,1495365,0.0-3.0-2.139-0.139,"<div style=""color: white; text-align: center; vertical-align: top; display: inline-block; width: 800px; margin: auto""><p>You have completed 50% of the trials. You are on block 6 of 10. <br>Good job! Take a break if you need to.</p><p>Press any key to continue the experiment.</p></div>",,,,,,,,,,,,,
529.2,arrowright,psychophysics,288,1496902,0.0-3.0-0.140,,key,arrowright,16.674,430,349,141,6,1,25,15,25,35,TRUE
null,null,psychophysics,289,1497904,0.0-3.0-1.140,,key,null,16.674,430,349,,,,,,,,
900.4,arrowleft,psychophysics,290,1498811,0.0-3.0-0.141,,key,arrowleft,16.68657407,430,349,142,6,-1,24,15,25,35,TRUE
null,null,psychophysics,291,1499812,0.0-3.0-1.141,,key,null,16.674,430,349,,,,,,,,
539.5,arrowright,psychophysics,292,1500355,0.0-3.0-0.142,,key,arrowright,16.674,430,349,143,6,1,30,15,25,35,TRUE
null,null,psychophysics,293,1501356,0.0-3.0-1.142,,key,null,16.674,430,349,,,,,,,,
1201.1,arrowleft,psychophysics,294,1502563,0.0-3.0-0.143,,key,arrowleft,16.674,430,349,144,6,-1,26,35,25,35,TRUE
null,null,psychophysics,295,1503565,0.0-3.0-1.143,,key,null,16.674,430,349,,,,,,,,
683.5,arrowright,psychophysics,296,1504250,0.0-3.0-0.144,,key,arrowright,16.674,430,349,145,6,-1,20,35,25,35,FALSE
null,null,psychophysics,297,1505251,0.0-3.0-1.144,,key,null,16.674,430,349,,,,,,,,
1463.9,arrowright,psychophysics,298,1506718,0.0-3.0-0.145,,key,arrowright,16.674,430,349,146,6,1,26,35,25,35,TRUE
null,null,psychophysics,299,1507719,0.0-3.0-1.145,,key,null,16.674,430,349,,,,,,,,
2878.2,arrowright,psychophysics,300,1510600,0.0-3.0-0.146,,key,arrowright,16.674,430,349,147,6,1,23,15,25,35,TRUE
null,null,psychophysics,301,1511602,0.0-3.0-1.146,,key,null,16.674,430,349,,,,,,,,
7685,arrowright,psychophysics,302,1519289,0.0-3.0-0.147,,key,arrowright,16.67541739,430,349,148,6,-1,25,35,25,35,FALSE
null,null,psychophysics,303,1520291,0.0-3.0-1.147,,key,null,16.674,430,349,,,,,,,,
698.5,arrowright,psychophysics,304,1520992,0.0-3.0-0.148,,key,arrowright,16.674,430,349,149,6,1,27,35,25,35,TRUE
null,null,psychophysics,305,1521993,0.0-3.0-1.148,,key,null,16.674,430,349,,,,,,,,
811.4,arrowleft,psychophysics,306,1522807,0.0-3.0-0.149,,key,arrowleft,16.674,430,349,150,6,1,23,35,25,35,FALSE
null,null,psychophysics,307,1523809,0.0-3.0-1.149,,key,null,16.674,430,349,,,,,,,,
1302,arrowright,psychophysics,308,1525113,0.0-3.0-0.150,,key,arrowright,16.674,430,349,151,6,1,23,15,25,35,TRUE
null,null,psychophysics,309,1526114,0.0-3.0-1.150,,key,null,16.674,430,349,,,,,,,,
5050.7,arrowright,psychophysics,310,1531167,0.0-3.0-0.151,,key,arrowright,16.674,430,349,152,6,-1,23,15,25,35,FALSE
null,null,psychophysics,311,1532170,0.0-3.0-1.151,,key,null,16.674,430,349,,,,,,,,
1533.4,arrowleft,psychophysics,312,1533706,0.0-3.0-0.152,,key,arrowleft,16.674,430,349,153,6,-1,27,35,25,35,TRUE
null,null,psychophysics,313,1534708,0.0-3.0-1.152,,key,null,16.674,430,349,,,,,,,,
703.1,arrowleft,psychophysics,314,1535414,0.0-3.0-0.153,,key,arrowleft,16.674,430,349,154,6,-1,30,15,25,35,TRUE
null,null,psychophysics,315,1536416,0.0-3.0-1.153,,key,null,16.674,430,349,,,,,,,,
1421.3,arrowleft,psychophysics,316,1537840,0.0-3.0-0.154,,key,arrowleft,16.674,430,349,155,6,-1,25,15,25,35,TRUE
null,null,psychophysics,317,1538841,0.0-3.0-1.154,,key,null,16.68432203,430,349,,,,,,,,
1122.9,arrowleft,psychophysics,318,1539967,0.0-3.0-0.155,,key,arrowleft,16.674,430,349,156,6,1,23,35,25,35,FALSE
null,null,psychophysics,319,1540970,0.0-3.0-1.155,,key,null,16.674,430,349,,,,,,,,
463.7,arrowright,psychophysics,320,1541435,0.0-3.0-0.156,,key,arrowright,16.674,430,349,157,6,1,30,15,25,35,TRUE
null,null,psychophysics,321,1542436,0.0-3.0-1.156,,key,null,16.674,430,349,,,,,,,,
1030.8,arrowright,psychophysics,322,1543469,0.0-3.0-0.157,,key,arrowright,16.674,430,349,158,6,1,26,35,25,35,TRUE
null,null,psychophysics,323,1544470,0.0-3.0-1.157,,key,null,16.674,430,349,,,,,,,,
712.2,arrowright,psychophysics,324,1545184,0.0-3.0-0.158,,key,arrowright,16.674,430,349,159,6,1,26,15,25,35,TRUE
null,null,psychophysics,325,1546186,0.0-3.0-1.158,,key,null,16.674,430,349,,,,,,,,
630.2,arrowleft,psychophysics,326,1546818,0.0-3.0-0.159,,key,arrowleft,16.674,430,349,160,6,-1,26,15,25,35,TRUE
null,null,psychophysics,327,1547820,0.0-3.0-1.159,,key,null,16.674,430,349,,,,,,,,
730.2,arrowright,psychophysics,328,1548552,0.0-3.0-0.160,,key,arrowright,16.674,430,349,161,6,1,30,35,25,35,TRUE
null,null,psychophysics,329,1549554,0.0-3.0-1.160,,key,null,16.674,430,349,,,,,,,,
802.2,arrowright,psychophysics,330,1550357,0.0-3.0-0.161,,key,arrowright,16.674,430,349,162,6,1,25,15,25,35,TRUE
null,null,psychophysics,331,1551360,0.0-3.0-1.161,,key,null,16.674,430,349,,,,,,,,
1030.3,arrowright,psychophysics,332,1552393,0.0-3.0-0.162,,key,arrowright,16.674,430,349,163,6,1,26,15,25,35,TRUE
null,null,psychophysics,333,1553394,0.0-3.0-1.162,,key,null,16.674,430,349,,,,,,,,
1476.5,arrowright,psychophysics,334,1554873,0.0-3.0-0.163,,key,arrowright,16.674,430,349,164,6,1,27,35,25,35,TRUE
null,null,psychophysics,335,1555875,0.0-3.0-1.163,,key,null,16.674,430,349,,,,,,,,
980.2,arrowright,psychophysics,336,1556857,0.0-3.0-0.164,,key,arrowright,16.674,430,349,165,6,-1,20,35,25,35,FALSE
null,null,psychophysics,337,1557860,0.0-3.0-1.164,,key,null,16.674,430,349,,,,,,,,
648.1,arrowright,psychophysics,338,1558510,0.0-3.0-0.165,,key,arrowright,16.69507895,430,349,166,6,1,30,35,25,35,TRUE
null,null,psychophysics,339,1559513,0.0-3.0-1.165,,key,null,16.674,430,349,,,,,,,,
1395,arrowright,psychophysics,340,1560909,0.0-3.0-0.166,,key,arrowright,16.674,430,349,167,6,-1,20,35,25,35,FALSE
null,null,psychophysics,341,1561911,0.0-3.0-1.166,,key,null,16.674,430,349,,,,,,,,
1092.2,arrowright,psychophysics,342,1563006,0.0-3.0-0.167,,key,arrowright,16.674,430,349,168,7,1,26,15,25,35,TRUE
null,null,psychophysics,343,1564009,0.0-3.0-1.167,,key,null,16.674,430,349,,,,,,,,
1065.8, ,html-keyboard-response,344,1565075,0.0-3.0-2.167-0.167,"<div style=""color: white; text-align: center; vertical-align: top; display: inline-block; width: 800px; margin: auto""><p>You have completed 60% of the trials. You are on block 7 of 10. <br>Good job! Take a break if you need to.</p><p>Press any key to continue the experiment.</p></div>",,,,,,,,,,,,,
2476.9,arrowright,psychophysics,345,1568562,0.0-3.0-0.168,,key,arrowright,16.674,430,349,169,7,1,26,35,25,35,TRUE
null,null,psychophysics,346,1569564,0.0-3.0-1.168,,key,null,16.674,430,349,,,,,,,,
882,arrowleft,psychophysics,347,1570447,0.0-3.0-0.169,,key,arrowleft,16.674,430,349,170,7,1,24,35,25,35,FALSE
null,null,psychophysics,348,1571449,0.0-3.0-1.169,,key,null,16.674,430,349,,,,,,,,
1439.1,arrowright,psychophysics,349,1572890,0.0-3.0-0.170,,key,arrowright,16.674,430,349,171,7,1,26,35,25,35,TRUE
null,null,psychophysics,350,1573893,0.0-3.0-1.170,,key,null,16.674,430,349,,,,,,,,
1109.3,arrowleft,psychophysics,351,1575008,0.0-3.0-0.171,,key,arrowleft,16.674,430,349,172,7,-1,24,15,25,35,TRUE
null,null,psychophysics,352,1576010,0.0-3.0-1.171,,key,null,16.674,430,349,,,,,,,,
634.6,arrowright,psychophysics,353,1576651,0.0-3.0-0.172,,key,arrowright,16.674,430,349,173,7,1,27,15,25,35,TRUE
null,null,psychophysics,354,1577652,0.0-3.0-1.172,,key,null,16.674,430,349,,,,,,,,
1304.9,arrowright,psychophysics,355,1578959,0.0-3.0-0.173,,key,arrowright,16.68290909,430,349,174,7,1,27,35,25,35,TRUE
null,null,psychophysics,356,1579962,0.0-3.0-1.173,,key,null,16.674,430,349,,,,,,,,
593,arrowright,psychophysics,357,1580561,0.0-3.0-0.174,,key,arrowright,16.674,430,349,175,7,1,30,15,25,35,TRUE
null,null,psychophysics,358,1581563,0.0-3.0-1.174,,key,null,16.674,430,349,,,,,,,,
512.6,arrowleft,psychophysics,359,1582078,0.0-3.0-0.175,,key,arrowleft,16.674,430,349,176,7,-1,30,15,25,35,TRUE
null,null,psychophysics,360,1583081,0.0-3.0-1.175,,key,null,16.674,430,349,,,,,,,,
918.1,arrowleft,psychophysics,361,1584004,0.0-3.0-0.176,,key,arrowleft,16.674,430,349,177,7,1,23,35,25,35,FALSE
null,null,psychophysics,362,1585006,0.0-3.0-1.176,,key,null,16.674,430,349,,,,,,,,
647.5,arrowleft,psychophysics,363,1585656,0.0-3.0-0.177,,key,arrowleft,16.674,430,349,178,7,-1,30,15,25,35,TRUE
null,null,psychophysics,364,1586658,0.0-3.0-1.177,,key,null,16.674,430,349,,,,,,,,
502.2,arrowright,psychophysics,365,1587163,0.0-3.0-0.178,,key,arrowright,16.674,430,349,179,7,-1,20,35,25,35,FALSE
null,null,psychophysics,366,1588166,0.0-3.0-1.178,,key,null,16.674,430,349,,,,,,,,
825.3,arrowleft,psychophysics,367,1588997,0.0-3.0-0.179,,key,arrowleft,16.674,430,349,180,7,-1,25,15,25,35,TRUE
null,null,psychophysics,368,1590001,0.0-3.0-1.179,,key,null,16.674,430,349,,,,,,,,
667.7,arrowright,psychophysics,369,1590674,0.0-3.0-0.180,,key,arrowright,16.674,430,349,181,7,-1,23,35,25,35,FALSE
null,null,psychophysics,370,1591676,0.0-3.0-1.180,,key,null,16.674,430,349,,,,,,,,
821,arrowleft,psychophysics,371,1592499,0.0-3.0-0.181,,key,arrowleft,16.674,430,349,182,7,1,23,15,25,35,FALSE
null,null,psychophysics,372,1593502,0.0-3.0-1.181,,key,null,16.674,430,349,,,,,,,,
890,arrowleft,psychophysics,373,1594395,0.0-3.0-0.182,,key,arrowleft,16.674,430,349,183,7,1,20,35,25,35,FALSE
null,null,psychophysics,374,1595397,0.0-3.0-1.182,,key,null,16.674,430,349,,,,,,,,
983.2,arrowleft,psychophysics,375,1596382,0.0-3.0-0.183,,key,arrowleft,16.674,430,349,184,7,1,20,15,25,35,FALSE
null,null,psychophysics,376,1597384,0.0-3.0-1.183,,key,null,16.674,430,349,,,,,,,,
786.9,arrowleft,psychophysics,377,1598173,0.0-3.0-0.184,,key,arrowleft,16.674,430,349,185,7,1,20,35,25,35,FALSE
null,null,psychophysics,378,1599175,0.0-3.0-1.184,,key,null,16.68562712,430,349,,,,,,,,
726.9,arrowleft,psychophysics,379,1599904,0.0-3.0-0.185,,key,arrowleft,16.674,430,349,186,7,-1,26,15,25,35,TRUE
null,null,psychophysics,380,1600906,0.0-3.0-1.185,,key,null,16.674,430,349,,,,,,,,
984.8,arrowleft,psychophysics,381,1601897,0.0-3.0-0.186,,key,arrowleft,16.674,430,349,187,7,-1,26,35,25,35,TRUE
null,null,psychophysics,382,1602898,0.0-3.0-1.186,,key,null,16.674,430,349,,,,,,,,
1563.7,arrowright,psychophysics,383,1604464,0.0-3.0-0.187,,key,arrowright,16.674,430,349,188,7,1,24,15,25,35,TRUE
null,null,psychophysics,384,1605466,0.0-3.0-1.187,,key,null,16.674,430,349,,,,,,,,
2514.9,arrowleft,psychophysics,385,1607982,0.0-3.0-0.188,,key,arrowleft,16.674,430,349,189,7,-1,23,15,25,35,TRUE
null,null,psychophysics,386,1608984,0.0-3.0-1.188,,key,null,16.674,430,349,,,,,,,,
648.1,arrowleft,psychophysics,387,1609634,0.0-3.0-0.189,,key,arrowleft,16.674,430,349,190,7,-1,27,15,25,35,TRUE
null,null,psychophysics,388,1610636,0.0-3.0-1.189,,key,null,16.674,430,349,,,,,,,,
711.5,arrowleft,psychophysics,389,1611350,0.0-3.0-0.190,,key,arrowleft,16.674,430,349,191,7,-1,27,15,25,35,TRUE
null,null,psychophysics,390,1612351,0.0-3.0-1.190,,key,null,16.674,430,349,,,,,,,,
998.8,arrowleft,psychophysics,391,1613352,0.0-3.0-0.191,,key,arrowleft,16.674,430,349,192,7,-1,25,15,25,35,TRUE
null,null,psychophysics,392,1614353,0.0-3.0-1.191,,key,null,16.674,430,349,,,,,,,,
1912.4,arrowleft,psychophysics,393,1616268,0.0-3.0-0.192,,key,arrowleft,16.674,430,349,193,7,1,24,35,25,35,FALSE
null,null,psychophysics,394,1617269,0.0-3.0-1.192,,key,null,16.674,430,349,,,,,,,,
962.1,arrowright,psychophysics,395,1618234,0.0-3.0-0.193,,key,arrowright,16.674,430,349,194,7,-1,20,15,25,35,FALSE
null,null,psychophysics,396,1619235,0.0-3.0-1.193,,key,null,16.68566102,430,349,,,,,,,,
656.3,arrowright,psychophysics,397,1619894,0.0-3.0-0.194,,key,arrowright,16.674,430,349,195,7,1,30,15,25,35,TRUE
null,null,psychophysics,398,1620897,0.0-3.0-1.194,,key,null,16.674,430,349,,,,,,,,
623.9,arrowright,psychophysics,399,1621523,0.0-3.0-0.195,,key,arrowright,16.674,430,349,196,8,1,30,15,25,35,TRUE
null,null,psychophysics,400,1622525,0.0-3.0-1.195,,key,null,16.674,430,349,,,,,,,,
1331.8, ,html-keyboard-response,401,1623857,0.0-3.0-2.195-0.195,"<div style=""color: white; text-align: center; vertical-align: top; display: inline-block; width: 800px; margin: auto""><p>You have completed 70% of the trials. You are on block 8 of 10. <br>Good job! Take a break if you need to.</p><p>Press any key to continue the experiment.</p></div>",,,,,,,,,,,,,
564.7,arrowleft,psychophysics,402,1625429,0.0-3.0-0.196,,key,arrowleft,16.674,430,349,197,8,1,20,35,25,35,FALSE
null,null,psychophysics,403,1626431,0.0-3.0-1.196,,key,null,16.674,430,349,,,,,,,,
645.1,arrowright,psychophysics,404,1627079,0.0-3.0-0.197,,key,arrowright,16.674,430,349,198,8,-1,20,35,25,35,FALSE
null,null,psychophysics,405,1628080,0.0-3.0-1.197,,key,null,16.674,430,349,,,,,,,,
2587.3,arrowright,psychophysics,406,1630670,0.0-3.0-0.198,,key,arrowright,16.674,430,349,199,8,-1,25,35,25,35,FALSE
null,null,psychophysics,407,1631672,0.0-3.0-1.198,,key,null,16.674,430,349,,,,,,,,
1953.1,arrowleft,psychophysics,408,1633629,0.0-3.0-0.199,,key,arrowleft,16.674,430,349,200,8,-1,25,15,25,35,TRUE
null,null,psychophysics,409,1634630,0.0-3.0-1.199,,key,null,16.674,430,349,,,,,,,,
613.7,arrowleft,psychophysics,410,1635246,0.0-3.0-0.200,,key,arrowleft,16.674,430,349,201,8,-1,27,15,25,35,TRUE
null,null,psychophysics,411,1636248,0.0-3.0-1.200,,key,null,16.674,430,349,,,,,,,,
1285,arrowleft,psychophysics,412,1637535,0.0-3.0-0.201,,key,arrowleft,16.674,430,349,202,8,1,24,35,25,35,FALSE
null,null,psychophysics,413,1638538,0.0-3.0-1.201,,key,null,16.68574576,430,349,,,,,,,,
1092.3,arrowleft,psychophysics,414,1639632,0.0-3.0-0.202,,key,arrowleft,16.674,430,349,203,8,1,20,15,25,35,FALSE
null,null,psychophysics,415,1640634,0.0-3.0-1.202,,key,null,16.674,430,349,,,,,,,,
928.5,arrowright,psychophysics,416,1641565,0.0-3.0-0.203,,key,arrowright,16.674,430,349,204,8,1,25,15,25,35,TRUE
null,null,psychophysics,417,1642566,0.0-3.0-1.203,,key,null,16.674,430,349,,,,,,,,
2015.1,arrowright,psychophysics,418,1644583,0.0-3.0-0.204,,key,arrowright,16.674,430,349,205,8,-1,24,35,25,35,FALSE
null,null,psychophysics,419,1645584,0.0-3.0-1.204,,key,null,16.674,430,349,,,,,,,,
583.6,arrowleft,psychophysics,420,1646169,0.0-3.0-0.205,,key,arrowleft,16.674,430,349,206,8,-1,30,15,25,35,TRUE
null,null,psychophysics,421,1647171,0.0-3.0-1.205,,key,null,16.674,430,349,,,,,,,,
555,arrowright,psychophysics,422,1647728,0.0-3.0-0.206,,key,arrowright,16.674,430,349,207,8,1,30,15,25,35,TRUE
null,null,psychophysics,423,1648730,0.0-3.0-1.206,,key,null,16.674,430,349,,,,,,,,
1176.9,arrowright,psychophysics,424,1649913,0.0-3.0-0.207,,key,arrowright,16.674,430,349,208,8,1,27,15,25,35,TRUE
null,null,psychophysics,425,1650915,0.0-3.0-1.207,,key,null,16.674,430,349,,,,,,,,
1885.6,arrowleft,psychophysics,426,1652806,0.0-3.0-0.208,,key,arrowleft,16.674,430,349,209,8,-1,24,15,25,35,TRUE
null,null,psychophysics,427,1653807,0.0-3.0-1.208,,key,null,16.674,430,349,,,,,,,,
1295.3,arrowleft,psychophysics,428,1655105,0.0-3.0-0.209,,key,arrowleft,16.674,430,349,210,8,1,25,35,25,35,FALSE
null,null,psychophysics,429,1656106,0.0-3.0-1.209,,key,null,16.674,430,349,,,,,,,,
6451.9,arrowleft,psychophysics,430,1662560,0.0-3.0-0.210,,key,arrowleft,16.67565544,430,349,211,8,-1,23,15,25,35,TRUE
null,null,psychophysics,431,1663560,0.0-3.0-1.210,,key,null,16.674,430,349,,,,,,,,
2099.2,arrowright,psychophysics,432,1665662,0.0-3.0-0.211,,key,arrowright,16.674,430,349,212,8,-1,24,35,25,35,FALSE
null,null,psychophysics,433,1666663,0.0-3.0-1.211,,key,null,16.674,430,349,,,,,,,,
818.5,arrowleft,psychophysics,434,1667483,0.0-3.0-0.212,,key,arrowleft,16.674,430,349,213,8,-1,30,35,25,35,TRUE
null,null,psychophysics,435,1668486,0.0-3.0-1.212,,key,null,16.674,430,349,,,,,,,,
828.3,arrowright,psychophysics,436,1669316,0.0-3.0-0.213,,key,arrowright,16.674,430,349,214,8,-1,20,35,25,35,FALSE
null,null,psychophysics,437,1670318,0.0-3.0-1.213,,key,null,16.674,430,349,,,,,,,,
1026.9,arrowright,psychophysics,438,1671347,0.0-3.0-0.214,,key,arrowright,16.674,430,349,215,8,1,27,15,25,35,TRUE
null,null,psychophysics,439,1672349,0.0-3.0-1.214,,key,null,16.674,430,349,,,,,,,,
1614.7,arrowright,psychophysics,440,1673966,0.0-3.0-0.215,,key,arrowright,16.674,430,349,216,8,1,24,15,25,35,TRUE
null,null,psychophysics,441,1674967,0.0-3.0-1.215,,key,null,16.674,430,349,,,,,,,,
887.1,arrowleft,psychophysics,442,1675856,0.0-3.0-0.216,,key,arrowleft,16.674,430,349,217,8,1,23,35,25,35,FALSE
null,null,psychophysics,443,1676859,0.0-3.0-1.216,,key,null,16.674,430,349,,,,,,,,
2021.2,arrowright,psychophysics,444,1678888,0.0-3.0-0.217,,key,arrowright,16.68004132,430,349,218,8,-1,23,35,25,35,FALSE
null,null,psychophysics,445,1679890,0.0-3.0-1.217,,key,null,16.674,430,349,,,,,,,,
1175.9,arrowright,psychophysics,446,1681068,0.0-3.0-0.218,,key,arrowright,16.674,430,349,219,8,-1,23,35,25,35,FALSE
null,null,psychophysics,447,1682070,0.0-3.0-1.218,,key,null,16.674,430,349,,,,,,,,
599.4,arrowright,psychophysics,448,1682670,0.0-3.0-0.219,,key,arrowright,16.674,430,349,220,8,1,27,15,25,35,TRUE
null,null,psychophysics,449,1683672,0.0-3.0-1.219,,key,null,16.674,430,349,,,,,,,,
2164.8,arrowright,psychophysics,450,1685838,0.0-3.0-0.220,,key,arrowright,16.674,430,349,221,8,-1,24,35,25,35,FALSE
null,null,psychophysics,451,1686840,0.0-3.0-1.220,,key,null,16.674,430,349,,,,,,,,
536.4,arrowleft,psychophysics,452,1687379,0.0-3.0-0.221,,key,arrowleft,16.674,430,349,222,8,-1,30,15,25,35,TRUE
null,null,psychophysics,453,1688380,0.0-3.0-1.221,,key,null,16.674,430,349,,,,,,,,
1063.8,arrowright,psychophysics,454,1689447,0.0-3.0-0.222,,key,arrowright,16.674,430,349,223,8,1,26,15,25,35,TRUE
null,null,psychophysics,455,1690449,0.0-3.0-1.222,,key,null,16.674,430,349,,,,,,,,
835.7,arrowleft,psychophysics,456,1691287,0.0-3.0-0.223,,key,arrowleft,16.674,430,349,224,9,1,24,35,25,35,FALSE
null,null,psychophysics,457,1692290,0.0-3.0-1.223,,key,null,16.674,430,349,,,,,,,,
2163.7,arrowright,html-keyboard-response,458,1694455,0.0-3.0-2.223-0.223,"<div style=""color: white; text-align: center; vertical-align: top; display: inline-block; width: 800px; margin: auto""><p>You have completed 80% of the trials. You are on block 9 of 10. <br>Good job! Take a break if you need to.</p><p>Press any key to continue the experiment.</p></div>",,,,,,,,,,,,,
932.9,arrowleft,psychophysics,459,1696394,0.0-3.0-0.224,,key,arrowleft,16.674,430,349,225,9,1,23,35,25,35,FALSE
null,null,psychophysics,460,1697396,0.0-3.0-1.224,,key,null,16.674,430,349,,,,,,,,
747.5,arrowleft,psychophysics,461,1698146,0.0-3.0-0.225,,key,arrowleft,16.674,430,349,226,9,-1,26,35,25,35,TRUE
null,null,psychophysics,462,1699147,0.0-3.0-1.225,,key,null,16.75469492,430,349,,,,,,,,
746.8,arrowright,psychophysics,463,1699896,0.0-3.0-0.226,,key,arrowright,16.674,430,349,227,9,1,25,35,25,35,TRUE
null,null,psychophysics,464,1700898,0.0-3.0-1.226,,key,null,16.674,430,349,,,,,,,,
901.9,arrowright,psychophysics,465,1701802,0.0-3.0-0.227,,key,arrowright,16.674,430,349,228,9,1,27,35,25,35,TRUE
null,null,psychophysics,466,1702803,0.0-3.0-1.227,,key,null,16.674,430,349,,,,,,,,
1313.5,arrowright,psychophysics,467,1704119,0.0-3.0-0.228,,key,arrowright,16.674,430,349,229,9,-1,23,15,25,35,FALSE
null,null,psychophysics,468,1705121,0.0-3.0-1.228,,key,null,16.674,430,349,,,,,,,,
1030.6,arrowleft,psychophysics,469,1706154,0.0-3.0-0.229,,key,arrowleft,16.674,430,349,230,9,-1,25,35,25,35,TRUE
null,null,psychophysics,470,1707155,0.0-3.0-1.229,,key,null,16.674,430,349,,,,,,,,
638,arrowright,psychophysics,471,1707796,0.0-3.0-0.230,,key,arrowright,16.674,430,349,231,9,1,25,15,25,35,TRUE
null,null,psychophysics,472,1708798,0.0-3.0-1.230,,key,null,16.674,430,349,,,,,,,,
1102.6,arrowright,psychophysics,473,1709906,0.0-3.0-0.231,,key,arrowright,16.674,430,349,232,9,1,25,15,25,35,TRUE
null,null,psychophysics,474,1710908,0.0-3.0-1.231,,key,null,16.674,430,349,,,,,,,,
598.3,arrowleft,psychophysics,475,1711508,0.0-3.0-0.232,,key,arrowleft,16.674,430,349,233,9,-1,26,15,25,35,TRUE
null,null,psychophysics,476,1712510,0.0-3.0-1.232,,key,null,16.674,430,349,,,,,,,,
545,arrowright,psychophysics,477,1713057,0.0-3.0-0.233,,key,arrowright,16.674,430,349,234,9,1,30,35,25,35,TRUE
null,null,psychophysics,478,1714058,0.0-3.0-1.233,,key,null,16.674,430,349,,,,,,,,
703.2,arrowright,psychophysics,479,1714763,0.0-3.0-0.234,,key,arrowright,16.674,430,349,235,9,1,27,15,25,35,TRUE
null,null,psychophysics,480,1715765,0.0-3.0-1.234,,key,null,16.674,430,349,,,,,,,,
1007.6,arrowleft,psychophysics,481,1716775,0.0-3.0-0.235,,key,arrowleft,16.674,430,349,236,9,1,20,15,25,35,FALSE
null,null,psychophysics,482,1717777,0.0-3.0-1.235,,key,null,16.674,430,349,,,,,,,,
488.2,arrowright,psychophysics,483,1718267,0.0-3.0-0.236,,key,arrowright,16.674,430,349,237,9,1,27,35,25,35,TRUE
null,null,psychophysics,484,1719270,0.0-3.0-1.236,,key,null,16.68557627,430,349,,,,,,,,
635,arrowright,psychophysics,485,1719911,0.0-3.0-0.237,,key,arrowright,16.674,430,349,238,9,1,26,15,25,35,TRUE
null,null,psychophysics,486,1720913,0.0-3.0-1.237,,key,null,16.674,430,349,,,,,,,,
782.7,arrowleft,psychophysics,487,1721698,0.0-3.0-0.238,,key,arrowleft,16.674,430,349,239,9,-1,26,35,25,35,TRUE
null,null,psychophysics,488,1722700,0.0-3.0-1.238,,key,null,16.674,430,349,,,,,,,,
696.5,arrowright,psychophysics,489,1723399,0.0-3.0-0.239,,key,arrowright,16.674,430,349,240,9,-1,20,35,25,35,FALSE
null,null,psychophysics,490,1724401,0.0-3.0-1.239,,key,null,16.674,430,349,,,,,,,,
1185.2,arrowright,psychophysics,491,1725588,0.0-3.0-0.240,,key,arrowright,16.674,430,349,241,9,-1,24,35,25,35,FALSE
null,null,psychophysics,492,1726590,0.0-3.0-1.240,,key,null,16.674,430,349,,,,,,,,
886.6,arrowleft,psychophysics,493,1727483,0.0-3.0-0.241,,key,arrowleft,16.674,430,349,242,9,-1,27,35,25,35,TRUE
null,null,psychophysics,494,1728484,0.0-3.0-1.241,,key,null,16.674,430,349,,,,,,,,
669.6,arrowright,psychophysics,495,1729156,0.0-3.0-0.242,,key,arrowright,16.674,430,349,243,9,-1,23,35,25,35,FALSE
null,null,psychophysics,496,1730159,0.0-3.0-1.242,,key,null,16.674,430,349,,,,,,,,
1286.6,arrowright,psychophysics,497,1731451,0.0-3.0-0.243,,key,arrowright,16.674,430,349,244,9,1,24,15,25,35,TRUE
null,null,psychophysics,498,1732453,0.0-3.0-1.243,,key,null,16.674,430,349,,,,,,,,
1204.2,arrowright,psychophysics,499,1733660,0.0-3.0-0.244,,key,arrowright,16.674,430,349,245,9,1,24,15,25,35,TRUE
null,null,psychophysics,500,1734663,0.0-3.0-1.244,,key,null,16.674,430,349,,,,,,,,
635.2,arrowleft,psychophysics,501,1735302,0.0-3.0-0.245,,key,arrowleft,16.674,430,349,246,9,-1,24,15,25,35,TRUE
null,null,psychophysics,502,1736303,0.0-3.0-1.245,,key,null,16.674,430,349,,,,,,,,
908.7,arrowleft,psychophysics,503,1737215,0.0-3.0-0.246,,key,arrowleft,16.674,430,349,247,9,1,23,35,25,35,FALSE
null,null,psychophysics,504,1738217,0.0-3.0-1.246,,key,null,16.674,430,349,,,,,,,,
690.6,arrowright,psychophysics,505,1738909,0.0-3.0-0.247,,key,arrowright,16.694025,430,349,248,9,1,24,15,25,35,TRUE
null,null,psychophysics,506,1739911,0.0-3.0-1.247,,key,null,16.674,430,349,,,,,,,,
743,arrowright,psychophysics,507,1740657,0.0-3.0-0.248,,key,arrowright,16.674,430,349,249,9,-1,25,35,25,35,FALSE
null,null,psychophysics,508,1741659,0.0-3.0-1.248,,key,null,16.674,430,349,,,,,,,,
546,arrowleft,psychophysics,509,1742207,0.0-3.0-0.249,,key,arrowleft,16.674,430,349,250,9,-1,30,15,25,35,TRUE
null,null,psychophysics,510,1743209,0.0-3.0-1.249,,key,null,16.674,430,349,,,,,,,,
1782.2,arrowleft,psychophysics,511,1744994,0.0-3.0-0.250,,key,arrowleft,16.674,430,349,251,9,-1,24,35,25,35,TRUE
null,null,psychophysics,512,1745995,0.0-3.0-1.250,,key,null,16.674,430,349,,,,,,,,
526,arrowright,psychophysics,513,1746524,0.0-3.0-0.251,,key,arrowright,16.674,430,349,252,10,1,30,15,25,35,TRUE
null,null,psychophysics,514,1747525,0.0-3.0-1.251,,key,null,16.674,430,349,,,,,,,,
1271.8, ,html-keyboard-response,515,1748797,0.0-3.0-2.251-0.251,"<div style=""color: white; text-align: center; vertical-align: top; display: inline-block; width: 800px; margin: auto""><p>You have completed 90% of the trials. You are on block 10 of 10. <br>Good job! Take a break if you need to.</p><p>Press any key to continue the experiment.</p></div>",,,,,,,,,,,,,
722.4,arrowright,psychophysics,516,1750525,0.0-3.0-0.252,,key,arrowright,16.674,430,349,253,10,1,26,15,25,35,TRUE
null,null,psychophysics,517,1751527,0.0-3.0-1.252,,key,null,16.674,430,349,,,,,,,,
673.8,arrowright,psychophysics,518,1752203,0.0-3.0-0.253,,key,arrowright,16.674,430,349,254,10,1,30,35,25,35,TRUE
null,null,psychophysics,519,1753204,0.0-3.0-1.253,,key,null,16.674,430,349,,,,,,,,
664.1,arrowleft,psychophysics,520,1753874,0.0-3.0-0.254,,key,arrowleft,16.674,430,349,255,10,-1,26,35,25,35,TRUE
null,null,psychophysics,521,1754876,0.0-3.0-1.254,,key,null,16.674,430,349,,,,,,,,
2638.7,arrowright,psychophysics,522,1757516,0.0-3.0-0.255,,key,arrowright,16.674,430,349,256,10,1,24,15,25,35,TRUE
null,null,psychophysics,523,1758518,0.0-3.0-1.255,,key,null,16.674,430,349,,,,,,,,
803.5,arrowright,psychophysics,524,1759324,0.0-3.0-0.256,,key,arrowright,16.674,430,349,257,10,1,30,35,25,35,TRUE
null,null,psychophysics,525,1760327,0.0-3.0-1.256,,key,null,16.674,430,349,,,,,,,,
1085.1,arrowleft,psychophysics,526,1761415,0.0-3.0-0.257,,key,arrowleft,16.674,430,349,258,10,1,20,15,25,35,FALSE
null,null,psychophysics,527,1762416,0.0-3.0-1.257,,key,null,16.674,430,349,,,,,,,,
577.3,arrowright,psychophysics,528,1762996,0.0-3.0-0.258,,key,arrowright,16.674,430,349,259,10,1,27,15,25,35,TRUE
null,null,psychophysics,529,1763997,0.0-3.0-1.258,,key,null,16.674,430,349,,,,,,,,
841.5,arrowleft,psychophysics,530,1764840,0.0-3.0-0.259,,key,arrowleft,16.674,430,349,260,10,1,20,35,25,35,FALSE
null,null,psychophysics,531,1765844,0.0-3.0-1.259,,key,null,16.674,430,349,,,,,,,,
3251.5,arrowleft,psychophysics,532,1769100,0.0-3.0-0.260,,key,arrowleft,16.67770769,430,349,261,10,-1,24,15,25,35,TRUE
null,null,psychophysics,533,1770101,0.0-3.0-1.260,,key,null,16.674,430,349,,,,,,,,
1083.7,arrowleft,psychophysics,534,1771186,0.0-3.0-0.261,,key,arrowleft,16.674,430,349,262,10,-1,23,15,25,35,TRUE
null,null,psychophysics,535,1772188,0.0-3.0-1.261,,key,null,16.674,430,349,,,,,,,,
946.7,arrowright,psychophysics,536,1773137,0.0-3.0-0.262,,key,arrowright,16.674,430,349,263,10,1,23,15,25,35,TRUE
null,null,psychophysics,537,1774139,0.0-3.0-1.262,,key,null,16.674,430,349,,,,,,,,
745.9,arrowright,psychophysics,538,1774887,0.0-3.0-0.263,,key,arrowright,16.674,430,349,264,10,1,26,15,25,35,TRUE
null,null,psychophysics,539,1775889,0.0-3.0-1.263,,key,null,16.674,430,349,,,,,,,,
1982.5,arrowright,psychophysics,540,1777873,0.0-3.0-0.264,,key,arrowright,16.674,430,349,265,10,1,25,15,25,35,TRUE
null,null,psychophysics,541,1778875,0.0-3.0-1.264,,key,null,16.674,430,349,,,,,,,,
1112,arrowright,psychophysics,542,1779990,0.0-3.0-0.265,,key,arrowright,16.674,430,349,266,10,-1,20,15,25,35,FALSE
null,null,psychophysics,543,1780992,0.0-3.0-1.265,,key,null,16.674,430,349,,,,,,,,
911.9,arrowleft,psychophysics,544,1781906,0.0-3.0-0.266,,key,arrowleft,16.674,430,349,267,10,-1,25,35,25,35,TRUE
null,null,psychophysics,545,1782907,0.0-3.0-1.266,,key,null,16.674,430,349,,,,,,,,
654.5,arrowright,psychophysics,546,1783563,0.0-3.0-0.267,,key,arrowright,16.674,430,349,268,10,1,23,15,25,35,TRUE
null,null,psychophysics,547,1784565,0.0-3.0-1.267,,key,null,16.674,430,349,,,,,,,,
693.9,arrowleft,psychophysics,548,1785260,0.0-3.0-0.268,,key,arrowleft,16.674,430,349,269,10,1,20,15,25,35,FALSE
null,null,psychophysics,549,1786263,0.0-3.0-1.268,,key,null,16.674,430,349,,,,,,,,
783.6,arrowright,psychophysics,550,1787049,0.0-3.0-0.269,,key,arrowright,16.674,430,349,270,10,1,27,35,25,35,TRUE
null,null,psychophysics,551,1788051,0.0-3.0-1.269,,key,null,16.674,430,349,,,,,,,,
640.8,arrowleft,psychophysics,552,1788695,0.0-3.0-0.270,,key,arrowleft,16.674,430,349,271,10,1,25,35,25,35,FALSE
null,null,psychophysics,553,1789696,0.0-3.0-1.270,,key,null,16.68564407,430,349,,,,,,,,
570.7,arrowright,psychophysics,554,1790269,0.0-3.0-0.271,,key,arrowright,16.674,430,349,272,10,1,30,35,25,35,TRUE
null,null,psychophysics,555,1791271,0.0-3.0-1.271,,key,null,16.674,430,349,,,,,,,,
975.2,arrowright,psychophysics,556,1792249,0.0-3.0-0.272,,key,arrowright,16.674,430,349,273,10,1,24,15,25,35,TRUE
null,null,psychophysics,557,1793251,0.0-3.0-1.272,,key,null,16.674,430,349,,,,,,,,
1086.4,arrowright,psychophysics,558,1794340,0.0-3.0-0.273,,key,arrowright,16.674,430,349,274,10,1,23,15,25,35,TRUE
null,null,psychophysics,559,1795342,0.0-3.0-1.273,,key,null,16.674,430,349,,,,,,,,
619.7,arrowleft,psychophysics,560,1795968,0.0-3.0-0.274,,key,arrowleft,16.674,430,349,275,10,-1,26,15,25,35,TRUE
null,null,psychophysics,561,1796970,0.0-3.0-1.274,,key,null,16.674,430,349,,,,,,,,
1048.6,arrowleft,psychophysics,562,1798021,0.0-3.0-0.275,,key,arrowleft,16.674,430,349,276,10,-1,27,35,25,35,TRUE
null,null,psychophysics,563,1799024,0.0-3.0-1.275,,key,null,16.674,430,349,,,,,,,,
1175.3,arrowleft,psychophysics,564,1800201,0.0-3.0-0.276,,key,arrowleft,16.674,430,349,277,10,-1,26,15,25,35,TRUE
null,null,psychophysics,565,1801203,0.0-3.0-1.276,,key,null,16.674,430,349,,,,,,,,
679,arrowright,psychophysics,566,1801884,0.0-3.0-0.277,,key,arrowright,16.674,430,349,278,10,-1,24,35,25,35,FALSE
null,null,psychophysics,567,1802885,0.0-3.0-1.277,,key,null,16.674,430,349,,,,,,,,
546.2,arrowleft,psychophysics,568,1803433,0.0-3.0-0.278,,key,arrowleft,16.674,430,349,279,10,-1,26,15,25,35,TRUE
null,null,psychophysics,569,1804434,0.0-3.0-1.278,,key,null,16.674,430,349,,,,,,,,
765.9,arrowleft,psychophysics,570,1805202,0.0-3.0-0.279,,key,arrowleft,16.674,430,349,280,11,-1,30,35,25,35,TRUE
null,null,psychophysics,571,1806203,0.0-3.0-1.279,,key,null,16.674,430,349,,,,,,,,