"rt","response","trial_type","trial_index","time_elapsed","internal_node_id","stimulus","response_type","key_press","avg_frame_time","center_x","center_y","trial","block","test_pos","test_inner_radius","test_outer_radius","ref_inner_radius","ref_outer_radius","test_bigger"
"32294.399999976158","{""p_id"":""8308"",""age"":""20"",""handedness"":""ambi"",""sex"":""male"",""other_sex"":""""}","survey-html-form","0","32294","0.0-0.0","","","","","","","","","","","","","",""
"9829","enter","html-keyboard-response","1","42124","0.0-1.0","<p style=""color: white"">Welcome to the Size Judgment Experiment. <br>There will be 10 blocks in this experiment. <br>There will be 28 trials in each block. <br>You will be given a chance to take a break between blocks. <br>Press any key to start the experiment.</p>","","","","","","","","","","","","",""
"8766.300000011921"," ","psychophysics","2","50898","0.0-2.0","","key"," ","16.66727514231498","960","472","","","","","","","",""
"3058.300000011921","arrowright","psychophysics","3","53958","0.0-3.0-0.0","","key","arrowright","16.672120879120886","960","472","1","1","1","24","15","25","35","true"
"null","null","psychophysics","4","54963","0.0-3.0-1.0","","key","null","16.66600000000003","960","472","","","","","","","",""
"1308.9000000357628","arrowright","psychophysics","5","56273","0.0-3.0-0.1","","key","arrowright","16.66600000000005","960","472","2","1","1","23","15","25","35","true"
"null","null","psychophysics","6","57274","0.0-3.0-1.1","","key","null","16.66600000000003","960","472","","","","","","","",""
"1230.1000000238419","arrowright","psychophysics","7","58505","0.0-3.0-0.2","","key","arrowright","16.66600000000003","960","472","3","1","1","20","15","25","35","true"
"null","null","psychophysics","8","59511","0.0-3.0-1.2","","key","null","16.66600000000003","960","472","","","","","","","",""
"1690.6000000238419","arrowleft","psychophysics","9","61202","0.0-3.0-0.3","","key","arrowleft","16.666000000000032","960","472","4","1","-1","23","35","25","35","true"
"null","null","psychophysics","10","62205","0.0-3.0-1.3","","key","null","16.66600000000003","960","472","","","","","","","",""
"980.3000000119209","arrowleft","psychophysics","11","63187","0.0-3.0-0.4","","key","arrowleft","16.666000000000075","960","472","5","1","-1","27","15","25","35","true"
"null","null","psychophysics","12","64188","0.0-3.0-1.4","","key","null","16.66600000000003","960","472","","","","","","","",""
"998","arrowleft","psychophysics","13","65188","0.0-3.0-0.5","","key","arrowleft","16.665999999999904","960","472","6","1","-1","26","15","25","35","true"
"null","null","psychophysics","14","66188","0.0-3.0-1.5","","key","null","16.665999999999904","960","472","","","","","","","",""
"807.3000000119209","arrowleft","psychophysics","15","66997","0.0-3.0-0.6","","key","arrowleft","16.665999999999915","960","472","7","1","-1","24","15","25","35","true"
"null","null","psychophysics","16","67998","0.0-3.0-1.6","","key","null","16.665999999999865","960","472","","","","","","","",""
"1689.5","arrowright","psychophysics","17","69688","0.0-3.0-0.7","","key","arrowright","16.666000000000057","960","472","8","1","-1","20","35","25","35","false"
"null","null","psychophysics","18","70694","0.0-3.0-1.7","","key","null","16.666000000000153","960","472","","","","","","","",""
"745.6999999880791","arrowleft","psychophysics","19","71440","0.0-3.0-0.8","","key","arrowleft","16.665999999999755","960","472","9","1","-1","30","15","25","35","true"
"null","null","psychophysics","20","72442","0.0-3.0-1.8","","key","null","16.676220338983004","960","472","","","","","","","",""
"1133.800000011921","arrowleft","psychophysics","21","73577","0.0-3.0-0.9","","key","arrowleft","16.666000000000047","960","472","10","1","-1","27","35","25","35","true"
"null","null","psychophysics","22","74581","0.0-3.0-1.9","","key","null","16.665999999999904","960","472","","","","","","","",""
"681.3000000119209","arrowleft","psychophysics","23","75264","0.0-3.0-0.10","","key","arrowleft","16.666000000000277","960","472","11","1","-1","30","15","25","35","true"
"null","null","psychophysics","24","76268","0.0-3.0-1.10","","key","null","16.665999999999904","960","472","","","","","","","",""
"1968","arrowright","psychophysics","25","78238","0.0-3.0-0.11","","key","arrowright","16.66600000000005","960","472","12","1","-1","25","35","25","35","false"
"null","null","psychophysics","26","79243","0.0-3.0-1.11","","key","null","16.666000000000153","960","472","","","","","","","",""
"935.8000000119209","arrowleft","psychophysics","27","80180","0.0-3.0-0.12","","key","arrowleft","16.66599999999982","960","472","13","1","1","20","35","25","35","false"
"null","null","psychophysics","28","81180","0.0-3.0-1.12","","key","null","16.665999999999865","960","472","","","","","","","",""
"1624","arrowleft","psychophysics","29","82805","0.0-3.0-0.13","","key","arrowleft","16.67754166666676","960","472","14","1","1","25","35","25","35","false"
"null","null","psychophysics","30","83808","0.0-3.0-1.13","","key","null","16.665999999999904","960","472","","","","","","","",""
"729","arrowright","psychophysics","31","84538","0.0-3.0-0.14","","key","arrowright","16.666000000000146","960","472","15","1","-1","20","35","25","35","false"
"null","null","psychophysics","32","85543","0.0-3.0-1.14","","key","null","16.666000000000153","960","472","","","","","","","",""
"592.1000000238419","arrowleft","psychophysics","33","86136","0.0-3.0-0.15","","key","arrowleft","16.665999999999933","960","472","16","1","-1","30","15","25","35","true"
"null","null","psychophysics","34","87138","0.0-3.0-1.15","","key","null","16.666000000000153","960","472","","","","","","","",""
"1355.6000000238419","arrowleft","psychophysics","35","88495","0.0-3.0-0.16","","key","arrowleft","16.665999999999986","960","472","17","1","-1","30","35","25","35","true"
"null","null","psychophysics","36","89497","0.0-3.0-1.16","","key","null","16.665999999999904","960","472","","","","","","","",""
"715.0999999642372","arrowright","psychophysics","37","90214","0.0-3.0-0.17","","key","arrowright","16.665999999999865","960","472","18","1","-1","23","15","25","35","false"
"null","null","psychophysics","38","91218","0.0-3.0-1.17","","key","null","16.666000000000107","960","472","","","","","","","",""
"942.8000000119209","arrowright","psychophysics","39","92162","0.0-3.0-0.18","","key","arrowright","16.66599999999982","960","472","19","1","1","25","15","25","35","true"
"null","null","psychophysics","40","93164","0.0-3.0-1.18","","key","null","16.665999999999865","960","472","","","","","","","",""
"1090","arrowright","psychophysics","41","94255","0.0-3.0-0.19","","key","arrowright","16.666000000000167","960","472","20","1","1","30","35","25","35","true"
"null","null","psychophysics","42","95261","0.0-3.0-1.19","","key","null","16.665999999999904","960","472","","","","","","","",""
"723.8000000119209","arrowleft","psychophysics","43","95985","0.0-3.0-0.20","","key","arrowleft","16.666000000000146","960","472","21","1","-1","24","15","25","35","true"
"null","null","psychophysics","44","96988","0.0-3.0-1.20","","key","null","16.666000000000153","960","472","","","","","","","",""
"1099.800000011921","arrowright","psychophysics","45","98089","0.0-3.0-0.21","","key","arrowright","16.6659999999999","960","472","22","1","-1","23","35","25","35","false"
"null","null","psychophysics","46","99091","0.0-3.0-1.21","","key","null","16.666000000000153","960","472","","","","","","","",""
"944.7000000476837","arrowleft","psychophysics","47","100036","0.0-3.0-0.22","","key","arrowleft","16.666000000000036","960","472","23","1","1","25","35","25","35","false"
"null","null","psychophysics","48","101038","0.0-3.0-1.22","","key","null","16.665999999999904","960","472","","","","","","","",""
"1471.5999999642372","arrowright","psychophysics","49","102511","0.0-3.0-0.23","","key","arrowright","16.672931034482907","960","472","24","1","-1","20","15","25","35","false"
"null","null","psychophysics","50","103513","0.0-3.0-1.23","","key","null","16.665999999999904","960","472","","","","","","","",""
"822.1999999880791","arrowleft","psychophysics","51","104338","0.0-3.0-0.24","","key","arrowleft","16.66600000000011","960","472","25","1","-1","24","15","25","35","true"
"null","null","psychophysics","52","105340","0.0-3.0-1.24","","key","null","16.666000000000153","960","472","","","","","","","",""
"1312.199999988079","arrowright","psychophysics","53","106654","0.0-3.0-0.25","","key","arrowright","16.665999999999865","960","472","26","1","-1","25","35","25","35","false"
"null","null","psychophysics","54","107654","0.0-3.0-1.25","","key","null","16.665999999999904","960","472","","","","","","","",""
"1021.3000000119209","arrowright","psychophysics","55","108677","0.0-3.0-0.26","","key","arrowright","16.666000000000107","960","472","27","1","-1","23","35","25","35","false"
"null","null","psychophysics","56","109680","0.0-3.0-1.26","","key","null","16.665999999999904","960","472","","","","","","","",""
"6856.5","arrowleft","psychophysics","57","116538","0.0-3.0-0.27","","key","arrowleft","16.668686131386867","960","472","28","2","-1","26","35","25","35","true"
"null","null","psychophysics","58","117540","0.0-3.0-1.27","","key","null","16.665999999999904","960","472","","","","","","","",""
"5468.600000023842"," ","html-keyboard-response","59","123009","0.0-3.0-2.27-0.27","<div style=""color: white; text-align: center; vertical-align: top; display: inline-block; width: 800px; margin: auto""><p>You have completed 10% of the trials. You are on block 2 of 10. <br>Good job! Take a break if you need to.</p><p>Press any key to continue the experiment.</p></div>","","","","","","","","","","","","",""
"1141.9000000357628","arrowleft","psychophysics","60","125157","0.0-3.0-0.28","","key","arrowleft","16.666000000000007","960","472","29","2","1","20","35","25","35","false"
"null","null","psychophysics","61","126163","0.0-3.0-1.28","","key","null","16.665999999999904","960","472","","","","","","","",""
"806.5","arrowleft","psychophysics","62","126970","0.0-3.0-0.29","","key","arrowleft","16.665999999999865","960","472","30","2","-1","23","15","25","35","true"
"null","null","psychophysics","63","127972","0.0-3.0-1.29","","key","null","16.666000000000153","960","472","","","","","","","",""
"844.6999999880791","arrowright","psychophysics","64","128818","0.0-3.0-0.30","","key","arrowright","16.666000000000057","960","472","31","2","1","25","15","25","35","true"
"null","null","psychophysics","65","129821","0.0-3.0-1.30","","key","null","16.665999999999904","960","472","","","","","","","",""
"748.1000000238419","arrowright","psychophysics","66","130570","0.0-3.0-0.31","","key","arrowright","16.666000000000086","960","472","32","2","-1","24","35","25","35","false"
"null","null","psychophysics","67","131571","0.0-3.0-1.31","","key","null","16.665999999999904","960","472","","","","","","","",""
"852.5","arrowright","psychophysics","68","132424","0.0-3.0-0.32","","key","arrowright","16.66600000000035","960","472","33","2","1","26","15","25","35","true"
"null","null","psychophysics","69","133430","0.0-3.0-1.32","","key","null","16.67579661016954","960","472","","","","","","","",""
"671.6000000238419","arrowleft","psychophysics","70","134103","0.0-3.0-0.33","","key","arrowleft","16.66599999999962","960","472","34","2","-1","25","15","25","35","true"
"null","null","psychophysics","71","135104","0.0-3.0-1.33","","key","null","16.6660000000004","960","472","","","","","","","",""
"2847","arrowleft","psychophysics","72","137952","0.0-3.0-0.34","","key","arrowleft","16.666000000000007","960","472","35","2","1","26","35","25","35","false"
"null","null","psychophysics","73","138954","0.0-3.0-1.34","","key","null","16.665999999999904","960","472","","","","","","","",""
"1517.2000000476837","arrowright","psychophysics","74","140472","0.0-3.0-0.35","","key","arrowright","16.666000000000025","960","472","36","2","1","27","35","25","35","true"
"null","null","psychophysics","75","141478","0.0-3.0-1.35","","key","null","16.665999999999904","960","472","","","","","","","",""
"658.6999999880791","arrowright","psychophysics","76","142137","0.0-3.0-0.36","","key","arrowright","16.666000000000423","960","472","37","2","1","30","35","25","35","true"
"null","null","psychophysics","77","143143","0.0-3.0-1.36","","key","null","16.665999999999904","960","472","","","","","","","",""
"859.8999999761581","arrowright","psychophysics","78","144004","0.0-3.0-0.37","","key","arrowright","16.66600000000029","960","472","38","2","1","26","35","25","35","true"
"null","null","psychophysics","79","145007","0.0-3.0-1.37","","key","null","16.665999999999904","960","472","","","","","","","",""
"950.8999999761581","arrowleft","psychophysics","80","145958","0.0-3.0-0.38","","key","arrowleft","16.666000000000036","960","472","39","2","-1","26","35","25","35","true"
"null","null","psychophysics","81","146963","0.0-3.0-1.38","","key","null","16.665999999999904","960","472","","","","","","","",""
"523.8999999761581","arrowleft","psychophysics","82","147489","0.0-3.0-0.39","","key","arrowleft","16.666000000000256","960","472","40","2","-1","25","15","25","35","true"
"null","null","psychophysics","83","148492","0.0-3.0-1.39","","key","null","16.665999999999904","960","472","","","","","","","",""
"502.30000001192093","arrowright","psychophysics","84","148995","0.0-3.0-0.40","","key","arrowright","16.666000000000448","960","472","41","2","1","23","15","25","35","true"
"null","null","psychophysics","85","149996","0.0-3.0-1.40","","key","null","16.665999999999904","960","472","","","","","","","",""
"755.2999999523163","arrowleft","psychophysics","86","150754","0.0-3.0-0.41","","key","arrowleft","16.666000000000025","960","472","42","2","1","27","35","25","35","false"
"null","null","psychophysics","87","151756","0.0-3.0-1.41","","key","null","16.6660000000004","960","472","","","","","","","",""
"613.6999999880791","arrowleft","psychophysics","88","152371","0.0-3.0-0.42","","key","arrowleft","16.665999999999865","960","472","43","2","-1","27","15","25","35","true"
"null","null","psychophysics","89","153376","0.0-3.0-1.42","","key","null","16.68494915254256","960","472","","","","","","","",""
"659.3000000119209","arrowright","psychophysics","90","154036","0.0-3.0-0.43","","key","arrowright","16.665999999999677","960","472","44","2","-1","20","35","25","35","false"
"null","null","psychophysics","91","155037","0.0-3.0-1.43","","key","null","16.665999999999904","960","472","","","","","","","",""
"731.5","arrowright","psychophysics","92","155770","0.0-3.0-0.44","","key","arrowright","16.666000000000146","960","472","45","2","-1","27","35","25","35","false"
"null","null","psychophysics","93","156770","0.0-3.0-1.44","","key","null","16.665999999999904","960","472","","","","","","","",""
"596.1999999880791","arrowleft","psychophysics","94","157367","0.0-3.0-0.45","","key","arrowleft","16.665999999999933","960","472","46","2","-1","25","15","25","35","true"
"null","null","psychophysics","95","158370","0.0-3.0-1.45","","key","null","16.665999999999904","960","472","","","","","","","",""
"456.9000000357628","arrowleft","psychophysics","96","158828","0.0-3.0-0.46","","key","arrowleft","16.665999999999677","960","472","47","2","-1","23","15","25","35","true"
"null","null","psychophysics","97","159829","0.0-3.0-1.46","","key","null","16.6660000000004","960","472","","","","","","","",""
"930.7999999523163","arrowleft","psychophysics","98","160762","0.0-3.0-0.47","","key","arrowleft","16.666000000000086","960","472","48","2","1","20","35","25","35","false"
"null","null","psychophysics","99","161763","0.0-3.0-1.47","","key","null","16.665999999999865","960","472","","","","","","","",""
"822.0999999642372","arrowright","psychophysics","100","162587","0.0-3.0-0.48","","key","arrowright","16.665999999999865","960","472","49","2","1","24","15","25","35","true"
"null","null","psychophysics","101","163591","0.0-3.0-1.48","","key","null","16.67579661016954","960","472","","","","","","","",""
"613","arrowleft","psychophysics","102","164205","0.0-3.0-0.49","","key","arrowleft","16.665999999999865","960","472","50","2","-1","24","15","25","35","true"
"null","null","psychophysics","103","165209","0.0-3.0-1.49","","key","null","16.665999999999904","960","472","","","","","","","",""
"1405.5999999642372","arrowright","psychophysics","104","166615","0.0-3.0-0.50","","key","arrowright","16.665999999999865","960","472","51","2","-1","24","35","25","35","false"
"null","null","psychophysics","105","167620","0.0-3.0-1.50","","key","null","16.665999999999904","960","472","","","","","","","",""
"836","arrowleft","psychophysics","106","168457","0.0-3.0-0.51","","key","arrowleft","16.665999999999816","960","472","52","2","-1","30","35","25","35","true"
"null","null","psychophysics","107","169462","0.0-3.0-1.51","","key","null","16.665999999999904","960","472","","","","","","","",""
"572.1999999880791","arrowright","psychophysics","108","170037","0.0-3.0-0.52","","key","arrowright","16.666000000000007","960","472","53","2","1","24","15","25","35","true"
"null","null","psychophysics","109","171042","0.0-3.0-1.52","","key","null","16.6660000000004","960","472","","","","","","","",""
"524.0999999642372","arrowleft","psychophysics","110","171567","0.0-3.0-0.53","","key","arrowleft","16.66599999999932","960","472","54","2","-1","25","15","25","35","true"
"null","null","psychophysics","111","172570","0.0-3.0-1.53","","key","null","16.6660000000004","960","472","","","","","","","",""
"1420.8999999761581","arrowleft","psychophysics","112","173992","0.0-3.0-0.54","","key","arrowleft","16.665999999999865","960","472","55","2","-1","20","15","25","35","true"
"null","null","psychophysics","113","174996","0.0-3.0-1.54","","key","null","16.665999999999904","960","472","","","","","","","",""
"480.80000001192093","arrowleft","psychophysics","114","175478","0.0-3.0-0.55","","key","arrowleft","16.666000000000558","960","472","56","3","-1","30","35","25","35","true"
"null","null","psychophysics","115","176479","0.0-3.0-1.55","","key","null","16.665999999999865","960","472","","","","","","","",""
"9731.100000023842"," ","html-keyboard-response","116","186210","0.0-3.0-2.55-0.55","<div style=""color: white; text-align: center; vertical-align: top; display: inline-block; width: 800px; margin: auto""><p>You have completed 20% of the trials. You are on block 3 of 10. <br>Good job! Take a break if you need to.</p><p>Press any key to continue the experiment.</p></div>","","","","","","","","","","","","",""
"1088.5999999642372","arrowleft","psychophysics","117","188303","0.0-3.0-0.56","","key","arrowleft","16.666000000000125","960","472","57","3","-1","25","15","25","35","true"
"null","null","psychophysics","118","189305","0.0-3.0-1.56","","key","null","16.665999999999904","960","472","","","","","","","",""
"1066.4000000357628","arrowleft","psychophysics","119","190372","0.0-3.0-0.57","","key","arrowleft","16.66600000000021","960","472","58","3","-1","25","35","25","35","true"
"null","null","psychophysics","120","191378","0.0-3.0-1.57","","key","null","16.665999999999904","960","472","","","","","","","",""
"821.8000000119209","arrowright","psychophysics","121","192201","0.0-3.0-0.58","","key","arrowright","16.66600000000041","960","472","59","3","1","25","15","25","35","true"
"null","null","psychophysics","122","193203","0.0-3.0-1.58","","key","null","16.665999999999904","960","472","","","","","","","",""
"948.3000000119209","arrowright","psychophysics","123","194152","0.0-3.0-0.59","","key","arrowright","16.666000000000036","960","472","60","3","1","20","15","25","35","true"
"null","null","psychophysics","124","195156","0.0-3.0-1.59","","key","null","16.665999999999904","960","472","","","","","","","",""
"595.7000000476837","arrowright","psychophysics","125","195752","0.0-3.0-0.60","","key","arrowright","16.665999999999933","960","472","61","3","1","26","15","25","35","true"
"null","null","psychophysics","126","196753","0.0-3.0-1.60","","key","null","16.678796610169474","960","472","","","","","","","",""
"2865.5","arrowright","psychophysics","127","199619","0.0-3.0-0.61","","key","arrowright","16.665999999999993","960","472","62","3","1","27","35","25","35","true"
"null","null","psychophysics","128","200622","0.0-3.0-1.61","","key","null","16.665999999999904","960","472","","","","","","","",""
"718.0999999642372","arrowleft","psychophysics","129","201341","0.0-3.0-0.62","","key","arrowleft","16.66600000000021","960","472","63","3","1","25","35","25","35","false"
"null","null","psychophysics","130","202345","0.0-3.0-1.62","","key","null","16.665999999999904","960","472","","","","","","","",""
"646.1000000238419","arrowleft","psychophysics","131","202995","0.0-3.0-0.63","","key","arrowleft","16.665999999999737","960","472","64","3","-1","27","35","25","35","true"
"null","null","psychophysics","132","203996","0.0-3.0-1.63","","key","null","16.66600000000035","960","472","","","","","","","",""
"553.5","arrowleft","psychophysics","133","204550","0.0-3.0-0.64","","key","arrowleft","16.666000000000167","960","472","65","3","-1","27","15","25","35","true"
"null","null","psychophysics","134","205553","0.0-3.0-1.64","","key","null","16.665999999999904","960","472","","","","","","","",""
"837.5","arrowright","psychophysics","135","206391","0.0-3.0-0.65","","key","arrowright","16.665999999999816","960","472","66","3","1","23","15","25","35","true"
"null","null","psychophysics","136","207395","0.0-3.0-1.65","","key","null","16.6660000000004","960","472","","","","","","","",""
"1270.5","arrowright","psychophysics","137","208667","0.0-3.0-0.66","","key","arrowright","16.665999999999737","960","472","67","3","-1","23","35","25","35","false"
"null","null","psychophysics","138","209669","0.0-3.0-1.66","","key","null","16.6660000000004","960","472","","","","","","","",""
"501","arrowleft","psychophysics","139","210171","0.0-3.0-0.67","","key","arrowleft","16.665999999999446","960","472","68","3","-1","25","15","25","35","true"
"null","null","psychophysics","140","211176","0.0-3.0-1.67","","key","null","16.6660000000004","960","472","","","","","","","",""
"683.3999999761581","arrowleft","psychophysics","141","211860","0.0-3.0-0.68","","key","arrowleft","16.66599999999962","960","472","69","3","1","23","35","25","35","false"
"null","null","psychophysics","142","212861","0.0-3.0-1.68","","key","null","16.665999999999904","960","472","","","","","","","",""
"752.8999999761581","arrowleft","psychophysics","143","213616","0.0-3.0-0.69","","key","arrowleft","16.666000000000025","960","472","70","3","1","27","35","25","35","false"
"null","null","psychophysics","144","214619","0.0-3.0-1.69","","key","null","16.665999999999904","960","472","","","","","","","",""
"591.5","arrowleft","psychophysics","145","215212","0.0-3.0-0.70","","key","arrowleft","16.665999999999933","960","472","71","3","-1","24","15","25","35","true"
"null","null","psychophysics","146","216212","0.0-3.0-1.70","","key","null","16.665999999999904","960","472","","","","","","","",""
"1003.3000000119209","arrowright","psychophysics","147","217216","0.0-3.0-0.71","","key","arrowright","16.681830508474622","960","472","72","3","-1","24","35","25","35","false"
"null","null","psychophysics","148","218219","0.0-3.0-1.71","","key","null","16.6660000000004","960","472","","","","","","","",""
"662.6999999880791","arrowright","psychophysics","149","218883","0.0-3.0-0.72","","key","arrowright","16.665999999999677","960","472","73","3","1","27","35","25","35","true"
"null","null","psychophysics","150","219886","0.0-3.0-1.72","","key","null","16.665999999999904","960","472","","","","","","","",""
"615.8000000119209","arrowright","psychophysics","151","220503","0.0-3.0-0.73","","key","arrowright","16.666000000000672","960","472","74","3","1","24","15","25","35","true"
"null","null","psychophysics","152","221507","0.0-3.0-1.73","","key","null","16.665999999999904","960","472","","","","","","","",""
"1016.5","arrowleft","psychophysics","153","222524","0.0-3.0-0.74","","key","arrowleft","16.665999999999865","960","472","75","3","1","25","35","25","35","false"
"null","null","psychophysics","154","223528","0.0-3.0-1.74","","key","null","16.6660000000004","960","472","","","","","","","",""
"591.5999999642372","arrowleft","psychophysics","155","224122","0.0-3.0-0.75","","key","arrowleft","16.665999999999933","960","472","76","3","-1","24","35","25","35","true"
"null","null","psychophysics","156","225127","0.0-3.0-1.75","","key","null","16.665999999999904","960","472","","","","","","","",""
"882.7999999523163","arrowleft","psychophysics","157","226011","0.0-3.0-0.76","","key","arrowleft","16.66600000000024","960","472","77","3","-1","25","35","25","35","true"
"null","null","psychophysics","158","227012","0.0-3.0-1.76","","key","null","16.678549999999813","960","472","","","","","","","",""
"556","arrowright","psychophysics","159","227569","0.0-3.0-0.77","","key","arrowright","16.666000000000167","960","472","78","3","1","27","15","25","35","true"
"null","null","psychophysics","160","228570","0.0-3.0-1.77","","key","null","16.665999999999904","960","472","","","","","","","",""
"524.5","arrowright","psychophysics","161","229095","0.0-3.0-0.78","","key","arrowright","16.666000000000256","960","472","79","3","1","27","15","25","35","true"
"null","null","psychophysics","162","230100","0.0-3.0-1.78","","key","null","16.665999999999904","960","472","","","","","","","",""
"1356.199999988079","arrowright","psychophysics","163","231457","0.0-3.0-0.79","","key","arrowright","16.66600000000035","960","472","80","3","1","26","35","25","35","true"
"null","null","psychophysics","164","232461","0.0-3.0-1.79","","key","null","16.665999999999904","960","472","","","","","","","",""
"1580.7999999523163","arrowleft","psychophysics","165","234044","0.0-3.0-0.80","","key","arrowleft","16.665999999999915","960","472","81","3","1","20","35","25","35","false"
"null","null","psychophysics","166","235045","0.0-3.0-1.80","","key","null","16.66600000000035","960","472","","","","","","","",""
"822.3999999761581","arrowleft","psychophysics","167","235868","0.0-3.0-0.81","","key","arrowleft","16.665999999999865","960","472","82","3","1","23","35","25","35","false"
"null","null","psychophysics","168","236869","0.0-3.0-1.81","","key","null","16.665999999999904","960","472","","","","","","","",""
"549.2999999523163","arrowright","psychophysics","169","237419","0.0-3.0-0.82","","key","arrowright","16.666000000000167","960","472","83","3","-1","20","35","25","35","false"
"null","null","psychophysics","170","238420","0.0-3.0-1.82","","key","null","16.665999999999904","960","472","","","","","","","",""
"617.8999999761581","arrowleft","psychophysics","171","239039","0.0-3.0-0.83","","key","arrowleft","16.666000000000672","960","472","84","4","-1","23","15","25","35","true"
"null","null","psychophysics","172","240045","0.0-3.0-1.83","","key","null","16.665999999999904","960","472","","","","","","","",""
"2167.699999988079"," ","html-keyboard-response","173","242213","0.0-3.0-2.83-0.83","<div style=""color: white; text-align: center; vertical-align: top; display: inline-block; width: 800px; margin: auto""><p>You have completed 30% of the trials. You are on block 4 of 10. <br>Good job! Take a break if you need to.</p><p>Press any key to continue the experiment.</p></div>","","","","","","","","","","","","",""
"898.3000000119209","arrowright","psychophysics","174","244116","0.0-3.0-0.84","","key","arrowright","16.665999999999595","960","472","85","4","1","20","15","25","35","true"
"null","null","psychophysics","175","245119","0.0-3.0-1.84","","key","null","16.6660000000004","960","472","","","","","","","",""
"669.8000000119209","arrowleft","psychophysics","176","245789","0.0-3.0-0.85","","key","arrowleft","16.665999999999677","960","472","86","4","-1","27","35","25","35","true"
"null","null","psychophysics","177","246794","0.0-3.0-1.85","","key","null","16.681728813559474","960","472","","","","","","","",""
"746.5","arrowright","psychophysics","178","247544","0.0-3.0-0.86","","key","arrowright","16.666000000000086","960","472","87","4","1","25","15","25","35","true"
"null","null","psychophysics","179","248545","0.0-3.0-1.86","","key","null","16.665999999999865","960","472","","","","","","","",""
"1519.800000011921","arrowright","psychophysics","180","250066","0.0-3.0-0.87","","key","arrowright","16.666000000000025","960","472","88","4","1","26","35","25","35","true"
"null","null","psychophysics","181","251069","0.0-3.0-1.87","","key","null","16.6660000000004","960","472","","","","","","","",""
"548.5","arrowright","psychophysics","182","251618","0.0-3.0-0.88","","key","arrowright","16.665999999999258","960","472","89","4","1","30","15","25","35","true"
"null","null","psychophysics","183","252624","0.0-3.0-1.88","","key","null","16.665999999999904","960","472","","","","","","","",""
"476.5999999642372","arrowleft","psychophysics","184","253101","0.0-3.0-0.89","","key","arrowleft","16.665999999999517","960","472","90","4","-1","26","15","25","35","true"
"null","null","psychophysics","185","254106","0.0-3.0-1.89","","key","null","16.6660000000004","960","472","","","","","","","",""
"702.3000000119209","arrowright","psychophysics","186","254810","0.0-3.0-0.90","","key","arrowright","16.665999999999567","960","472","91","4","-1","23","35","25","35","false"
"null","null","psychophysics","187","255811","0.0-3.0-1.90","","key","null","16.66600000000035","960","472","","","","","","","",""
"731.8000000119209","arrowright","psychophysics","188","256544","0.0-3.0-0.91","","key","arrowright","16.68385714285666","960","472","92","4","1","24","15","25","35","true"
"null","null","psychophysics","189","257544","0.0-3.0-1.91","","key","null","16.665999999999865","960","472","","","","","","","",""
"528.4000000357628","arrowleft","psychophysics","190","258074","0.0-3.0-0.92","","key","arrowleft","16.66600000000035","960","472","93","4","-1","26","15","25","35","true"
"null","null","psychophysics","191","259077","0.0-3.0-1.92","","key","null","16.665999999999904","960","472","","","","","","","",""
"905.7999999523163","arrowright","psychophysics","192","259987","0.0-3.0-0.93","","key","arrowright","16.666000000000135","960","472","94","4","1","25","15","25","35","true"
"null","null","psychophysics","193","260992","0.0-3.0-1.93","","key","null","16.665999999999904","960","472","","","","","","","",""
"841.3999999761581","arrowleft","psychophysics","194","261835","0.0-3.0-0.94","","key","arrowleft","16.665999999999766","960","472","95","4","-1","26","35","25","35","true"
"null","null","psychophysics","195","262840","0.0-3.0-1.94","","key","null","16.665999999999904","960","472","","","","","","","",""
"766.5","arrowright","psychophysics","196","263608","0.0-3.0-0.95","","key","arrowright","16.666000000000672","960","472","96","4","1","24","35","25","35","true"
"null","null","psychophysics","197","264611","0.0-3.0-1.95","","key","null","16.666000000000892","960","472","","","","","","","",""
"727.4000000357628","arrowleft","psychophysics","198","265340","0.0-3.0-0.96","","key","arrowleft","16.66599999999947","960","472","97","4","-1","23","15","25","35","true"
"null","null","psychophysics","199","266344","0.0-3.0-1.96","","key","null","16.665999999999904","960","472","","","","","","","",""
"522.5","arrowright","psychophysics","200","266870","0.0-3.0-0.97","","key","arrowright","16.666000000000256","960","472","98","4","1","27","15","25","35","true"
"null","null","psychophysics","201","267875","0.0-3.0-1.97","","key","null","16.665999999999904","960","472","","","","","","","",""
"502.80000001192093","arrowleft","psychophysics","202","268379","0.0-3.0-0.98","","key","arrowleft","16.66599999999938","960","472","99","4","-1","23","15","25","35","true"
"null","null","psychophysics","203","269382","0.0-3.0-1.98","","key","null","16.665999999999904","960","472","","","","","","","",""
"389.80000001192093","arrowleft","psychophysics","204","269773","0.0-3.0-0.99","","key","arrowleft","16.666000000000086","960","472","100","4","-1","24","15","25","35","true"
"null","null","psychophysics","205","270777","0.0-3.0-1.99","","key","null","16.665999999999904","960","472","","","","","","","",""
"408.9000000357628","arrowright","psychophysics","206","271188","0.0-3.0-0.100","","key","arrowright","16.665999999999865","960","472","101","4","1","20","15","25","35","true"
"null","null","psychophysics","207","272193","0.0-3.0-1.100","","key","null","16.665999999999904","960","472","","","","","","","",""
"573.5","arrowleft","psychophysics","208","272768","0.0-3.0-0.101","","key","arrowleft","16.66599999999915","960","472","102","4","1","20","35","25","35","false"
"null","null","psychophysics","209","273773","0.0-3.0-1.101","","key","null","16.665999999999904","960","472","","","","","","","",""
"524.8000000119209","arrowright","psychophysics","210","274299","0.0-3.0-0.102","","key","arrowright","16.666000000000256","960","472","103","4","1","26","15","25","35","true"
"null","null","psychophysics","211","275301","0.0-3.0-1.102","","key","null","16.665999999999904","960","472","","","","","","","",""
"837.5","arrowleft","psychophysics","212","276140","0.0-3.0-0.103","","key","arrowleft","16.66600000000041","960","472","104","4","1","24","35","25","35","false"
"null","null","psychophysics","213","277144","0.0-3.0-1.103","","key","null","16.681711864406125","960","472","","","","","","","",""
"526.1999999880791","arrowright","psychophysics","214","277671","0.0-3.0-0.104","","key","arrowright","16.666000000000256","960","472","105","4","1","30","15","25","35","true"
"null","null","psychophysics","215","278674","0.0-3.0-1.104","","key","null","16.665999999999904","960","472","","","","","","","",""
"616.2000000476837","arrowleft","psychophysics","216","279291","0.0-3.0-0.105","","key","arrowleft","16.665999999999055","960","472","106","4","-1","20","15","25","35","true"
"null","null","psychophysics","217","280294","0.0-3.0-1.105","","key","null","16.665999999999904","960","472","","","","","","","",""
"1133.0999999642372","arrowright","psychophysics","218","281428","0.0-3.0-0.106","","key","arrowright","16.666000000000007","960","472","107","4","1","26","15","25","35","true"
"null","null","psychophysics","219","282432","0.0-3.0-1.106","","key","null","16.665999999999904","960","472","","","","","","","",""
"482.5","arrowleft","psychophysics","220","282915","0.0-3.0-0.107","","key","arrowleft","16.665999999999517","960","472","108","4","-1","30","15","25","35","true"
"null","null","psychophysics","221","283918","0.0-3.0-1.107","","key","null","16.666000000000892","960","472","","","","","","","",""
"1131.9000000357628","arrowright","psychophysics","222","285051","0.0-3.0-0.108","","key","arrowright","16.66600000000048","960","472","109","4","1","25","15","25","35","true"
"null","null","psychophysics","223","286051","0.0-3.0-1.108","","key","null","16.665999999999904","960","472","","","","","","","",""
"751.8000000119209","arrowright","psychophysics","224","286806","0.0-3.0-0.109","","key","arrowright","16.68295454545428","960","472","110","4","1","30","35","25","35","true"
"null","null","psychophysics","225","287810","0.0-3.0-1.109","","key","null","16.665999999999904","960","472","","","","","","","",""
"503.30000001192093","arrowleft","psychophysics","226","288316","0.0-3.0-0.110","","key","arrowleft","16.66599999999938","960","472","111","4","-1","27","15","25","35","true"
"null","null","psychophysics","227","289318","0.0-3.0-1.110","","key","null","16.665999999999904","960","472","","","","","","","",""
"975","arrowright","psychophysics","228","290294","0.0-3.0-0.111","","key","arrowright","16.665999999999446","960","472","112","5","-1","23","35","25","35","false"
"null","null","psychophysics","229","291299","0.0-3.0-1.111","","key","null","16.665999999999904","960","472","","","","","","","",""
"2526.5"," ","html-keyboard-response","230","293826","0.0-3.0-2.111-0.111","<div style=""color: white; text-align: center; vertical-align: top; display: inline-block; width: 800px; margin: auto""><p>You have completed 40% of the trials. You are on block 5 of 10. <br>Good job! Take a break if you need to.</p><p>Press any key to continue the experiment.</p></div>","","","","","","","","","","","","",""
"910.4000000357628","arrowright","psychophysics","231","295738","0.0-3.0-0.112","","key","arrowright","16.666000000000672","960","472","113","5","1","25","15","25","35","true"
"null","null","psychophysics","232","296743","0.0-3.0-1.112","","key","null","16.665999999999904","960","472","","","","","","","",""
"543.8000000119209","arrowleft","psychophysics","233","297289","0.0-3.0-0.113","","key","arrowleft","16.665999999999258","960","472","114","5","-1","25","15","25","35","true"
"null","null","psychophysics","234","298293","0.0-3.0-1.113","","key","null","16.665999999999904","960","472","","","","","","","",""
"686.1000000238419","arrowleft","psychophysics","235","298982","0.0-3.0-0.114","","key","arrowleft","16.666000000000988","960","472","115","5","1","25","35","25","35","false"
"null","null","psychophysics","236","299984","0.0-3.0-1.114","","key","null","16.665999999999904","960","472","","","","","","","",""
"567.3000000119209","arrowright","psychophysics","237","300553","0.0-3.0-0.115","","key","arrowright","16.666000000000086","960","472","116","5","1","30","15","25","35","true"
"null","null","psychophysics","238","301554","0.0-3.0-1.115","","key","null","16.665999999999904","960","472","","","","","","","",""
"505.30000001192093","arrowleft","psychophysics","239","302061","0.0-3.0-0.116","","key","arrowleft","16.66599999999938","960","472","117","5","1","20","35","25","35","false"
"null","null","psychophysics","240","303065","0.0-3.0-1.116","","key","null","16.665999999999904","960","472","","","","","","","",""
"590.8999999761581","arrowleft","psychophysics","241","303657","0.0-3.0-0.117","","key","arrowleft","16.666000000000864","960","472","118","5","-1","24","35","25","35","true"
"null","null","psychophysics","242","304660","0.0-3.0-1.117","","key","null","16.66600000000035","960","472","","","","","","","",""
"620.5","arrowright","psychophysics","243","305281","0.0-3.0-0.118","","key","arrowright","16.665999999999055","960","472","119","5","1","30","35","25","35","true"
"null","null","psychophysics","244","306285","0.0-3.0-1.118","","key","null","16.681694915253765","960","472","","","","","","","",""
"412.39999997615814","arrowleft","psychophysics","245","306699","0.0-3.0-0.119","","key","arrowleft","16.665999999999865","960","472","120","5","-1","30","35","25","35","true"
"null","null","psychophysics","246","307700","0.0-3.0-1.119","","key","null","16.666000000000892","960","472","","","","","","","",""
"557.6000000238419","arrowright","psychophysics","247","308259","0.0-3.0-0.120","","key","arrowright","16.665999999999258","960","472","121","5","1","30","15","25","35","true"
"null","null","psychophysics","248","309260","0.0-3.0-1.120","","key","null","16.665999999999904","960","472","","","","","","","",""
"492.80000001192093","arrowleft","psychophysics","249","309755","0.0-3.0-0.121","","key","arrowleft","16.66599999999844","960","472","122","5","1","20","35","25","35","false"
"null","null","psychophysics","250","310760","0.0-3.0-1.121","","key","null","16.665999999999904","960","472","","","","","","","",""
"478.10000002384186","arrowleft","psychophysics","251","311240","0.0-3.0-0.122","","key","arrowleft","16.665999999999517","960","472","123","5","-1","25","35","25","35","true"
"null","null","psychophysics","252","312243","0.0-3.0-1.122","","key","null","16.665999999999904","960","472","","","","","","","",""
"725","arrowright","psychophysics","253","312972","0.0-3.0-0.123","","key","arrowright","16.66599999999947","960","472","124","5","1","27","15","25","35","true"
"null","null","psychophysics","254","313976","0.0-3.0-1.123","","key","null","16.665999999999904","960","472","","","","","","","",""
"614.6000000238419","arrowright","psychophysics","255","314593","0.0-3.0-0.124","","key","arrowright","16.665999999999055","960","472","125","5","1","30","35","25","35","true"
"null","null","psychophysics","256","315594","0.0-3.0-1.124","","key","null","16.66599999999938","960","472","","","","","","","",""
"1539.9000000357628","arrowright","psychophysics","257","317135","0.0-3.0-0.125","","key","arrowright","16.67418681318708","960","472","126","5","-1","20","35","25","35","false"
"null","null","psychophysics","258","318140","0.0-3.0-1.125","","key","null","16.665999999999904","960","472","","","","","","","",""
"1492.5","arrowleft","psychophysics","259","319634","0.0-3.0-0.126","","key","arrowleft","16.665999999999727","960","472","127","5","-1","30","35","25","35","true"
"null","null","psychophysics","260","320639","0.0-3.0-1.126","","key","null","16.665999999999904","960","472","","","","","","","",""
"524.7000000476837","arrowleft","psychophysics","261","321165","0.0-3.0-0.127","","key","arrowleft","16.666000000000256","960","472","128","5","-1","26","35","25","35","true"
"null","null","psychophysics","262","322167","0.0-3.0-1.127","","key","null","16.665999999999904","960","472","","","","","","","",""
"545.1999999880791","arrowright","psychophysics","263","322714","0.0-3.0-0.128","","key","arrowright","16.666000000001077","960","472","129","5","1","30","15","25","35","true"
"null","null","psychophysics","264","323717","0.0-3.0-1.128","","key","null","16.665999999999904","960","472","","","","","","","",""
"774.1000000238419","arrowleft","psychophysics","265","324492","0.0-3.0-0.129","","key","arrowleft","16.66599999999938","960","472","130","5","-1","20","15","25","35","true"
"null","null","psychophysics","266","325494","0.0-3.0-1.129","","key","null","16.66600000000035","960","472","","","","","","","",""
"426.80000001192093","arrowleft","psychophysics","267","325921","0.0-3.0-0.130","","key","arrowleft","16.665999999999865","960","472","131","5","-1","24","15","25","35","true"
"null","null","psychophysics","268","326926","0.0-3.0-1.130","","key","null","16.665999999999904","960","472","","","","","","","",""
"1231.800000011921","arrowleft","psychophysics","269","328160","0.0-3.0-0.131","","key","arrowleft","16.666000000000587","960","472","132","5","-1","27","35","25","35","true"
"null","null","psychophysics","270","329165","0.0-3.0-1.131","","key","null","16.665999999999904","960","472","","","","","","","",""
"659.1000000238419","arrowright","psychophysics","271","329825","0.0-3.0-0.132","","key","arrowright","16.66599999999897","960","472","133","5","1","25","15","25","35","true"
"null","null","psychophysics","272","330826","0.0-3.0-1.132","","key","null","16.66600000000035","960","472","","","","","","","",""
"606.0999999642372","arrowleft","psychophysics","273","331433","0.0-3.0-0.133","","key","arrowleft","16.665999999999933","960","472","134","5","-1","26","35","25","35","true"
"null","null","psychophysics","274","332437","0.0-3.0-1.133","","key","null","16.665999999999904","960","472","","","","","","","",""
"604.1000000238419","arrowleft","psychophysics","275","333042","0.0-3.0-0.134","","key","arrowleft","16.665999999999933","960","472","135","5","-1","26","35","25","35","true"
"null","null","psychophysics","276","334043","0.0-3.0-1.134","","key","null","16.66600000000035","960","472","","","","","","","",""
"473","arrowleft","psychophysics","277","334517","0.0-3.0-0.135","","key","arrowleft","16.666000000000672","960","472","136","5","1","24","35","25","35","false"
"null","null","psychophysics","278","335518","0.0-3.0-1.135","","key","null","16.666000000000892","960","472","","","","","","","",""
"2901","arrowright","psychophysics","279","338420","0.0-3.0-0.136","","key","arrowright","16.67132947976887","960","472","137","5","1","26","35","25","35","true"
"null","null","psychophysics","280","339421","0.0-3.0-1.136","","key","null","16.665999999999904","960","472","","","","","","","",""
"719.1999999880791","arrowright","psychophysics","281","340141","0.0-3.0-0.137","","key","arrowright","16.66600000000021","960","472","138","5","1","26","15","25","35","true"
"null","null","psychophysics","282","341143","0.0-3.0-1.137","","key","null","16.666000000000892","960","472","","","","","","","",""
"1324.9000000357628","arrowright","psychophysics","283","342469","0.0-3.0-0.138","","key","arrowright","16.666000000000018","960","472","139","5","1","26","15","25","35","true"
"null","null","psychophysics","284","343470","0.0-3.0-1.138","","key","null","16.665999999999904","960","472","","","","","","","",""
"1336.8999999761581","arrowleft","psychophysics","285","344809","0.0-3.0-0.139","","key","arrowleft","16.666000000000018","960","472","140","6","-1","27","35","25","35","true"
"null","null","psychophysics","286","345810","0.0-3.0-1.139","","key","null","16.66599999999938","960","472","","","","","","","",""
"163856.10000002384","enter","html-keyboard-response","287","509663","0.0-3.0-2.139-0.139","<div style=""color: white; text-align: center; vertical-align: top; display: inline-block; width: 800px; margin: auto""><p>You have completed 50% of the trials. You are on block 6 of 10. <br>Good job! Take a break if you need to.</p><p>Press any key to continue the experiment.</p></div>","","","","","","","","","","","","",""
"1512","arrowleft","psychophysics","288","512182","0.0-3.0-0.140","","key","arrowleft","16.666000000000317","960","472","141","6","1","20","15","25","35","false"
"null","null","psychophysics","289","513183","0.0-3.0-1.140","","key","null","16.665999999999904","960","472","","","","","","","",""
"595.8000000119209","arrowright","psychophysics","290","513780","0.0-3.0-0.141","","key","arrowright","16.665999999999933","960","472","142","6","-1","20","35","25","35","false"
"null","null","psychophysics","291","514783","0.0-3.0-1.141","","key","null","16.665999999999904","960","472","","","","","","","",""
"696.7000000476837","arrowleft","psychophysics","292","515481","0.0-3.0-0.142","","key","arrowleft","16.666000000000988","960","472","143","6","-1","24","35","25","35","true"
"null","null","psychophysics","293","516485","0.0-3.0-1.142","","key","null","16.665999999999904","960","472","","","","","","","",""
"534.1000000238419","arrowright","psychophysics","294","517020","0.0-3.0-0.143","","key","arrowright","16.666000000000256","960","472","144","6","1","30","15","25","35","true"
"null","null","psychophysics","295","518023","0.0-3.0-1.143","","key","null","16.665999999999904","960","472","","","","","","","",""
"1088.5","arrowright","psychophysics","296","519112","0.0-3.0-0.144","","key","arrowright","16.665999999999677","960","472","145","6","1","30","35","25","35","true"
"null","null","psychophysics","297","520114","0.0-3.0-1.144","","key","null","16.665999999999904","960","472","","","","","","","",""
"1562.1000000238419","arrowleft","psychophysics","298","521677","0.0-3.0-0.145","","key","arrowleft","16.666000000000256","960","472","146","6","1","24","35","25","35","false"
"null","null","psychophysics","299","522680","0.0-3.0-1.145","","key","null","16.665999999999904","960","472","","","","","","","",""
"583.3000000119209","arrowleft","psychophysics","300","523265","0.0-3.0-0.146","","key","arrowleft","16.666000000000864","960","472","147","6","-1","20","15","25","35","true"
"null","null","psychophysics","301","524267","0.0-3.0-1.146","","key","null","16.666000000000892","960","472","","","","","","","",""
"582.6000000238419","arrowleft","psychophysics","302","524850","0.0-3.0-0.147","","key","arrowleft","16.66599999999915","960","472","148","6","1","23","35","25","35","false"
"null","null","psychophysics","303","525856","0.0-3.0-1.147","","key","null","16.66600000000188","960","472","","","","","","","",""
"1021.6999999880791","arrowright","psychophysics","304","526880","0.0-3.0-0.148","","key","arrowright","16.66599999999887","960","472","149","6","1","25","35","25","35","true"
"null","null","psychophysics","305","527884","0.0-3.0-1.148","","key","null","16.665999999999904","960","472","","","","","","","",""
"667.6000000238419","arrowleft","psychophysics","306","528552","0.0-3.0-0.149","","key","arrowleft","16.66600000000117","960","472","150","6","-1","30","15","25","35","true"
"null","null","psychophysics","307","529556","0.0-3.0-1.149","","key","null","16.66599999999938","960","472","","","","","","","",""
"581.1999999880791","arrowright","psychophysics","308","530138","0.0-3.0-0.150","","key","arrowright","16.68848484848753","960","472","151","6","1","26","35","25","35","true"
"null","null","psychophysics","309","531139","0.0-3.0-1.150","","key","null","16.665999999999904","960","472","","","","","","","",""
"671","arrowright","psychophysics","310","531814","0.0-3.0-0.151","","key","arrowright","16.66600000000035","960","472","152","6","1","27","15","25","35","true"
"null","null","psychophysics","311","532815","0.0-3.0-1.151","","key","null","16.665999999999904","960","472","","","","","","","",""
"564.5999999642372","arrowleft","psychophysics","312","533381","0.0-3.0-0.152","","key","arrowleft","16.666000000000086","960","472","153","6","-1","27","15","25","35","true"
"null","null","psychophysics","313","534382","0.0-3.0-1.152","","key","null","16.665999999999904","960","472","","","","","","","",""
"528.5","arrowleft","psychophysics","314","534911","0.0-3.0-0.153","","key","arrowleft","16.666000000002132","960","472","154","6","-1","26","15","25","35","true"
"null","null","psychophysics","315","535913","0.0-3.0-1.153","","key","null","16.665999999999904","960","472","","","","","","","",""
"522.6999999880791","arrowright","psychophysics","316","536437","0.0-3.0-0.154","","key","arrowright","16.666000000003258","960","472","155","6","-1","24","35","25","35","false"
"null","null","psychophysics","317","537439","0.0-3.0-1.154","","key","null","16.66599999999938","960","472","","","","","","","",""
"571.5","arrowright","psychophysics","318","538013","0.0-3.0-0.155","","key","arrowright","16.666000000000086","960","472","156","6","1","25","15","25","35","true"
"null","null","psychophysics","319","539014","0.0-3.0-1.155","","key","null","16.665999999999904","960","472","","","","","","","",""
"617.4000000357628","arrowleft","psychophysics","320","539633","0.0-3.0-0.156","","key","arrowleft","16.666000000000672","960","472","157","6","1","23","35","25","35","false"
"null","null","psychophysics","321","540638","0.0-3.0-1.156","","key","null","16.681610169490973","960","472","","","","","","","",""
"454.5999999642372","arrowleft","psychophysics","322","541095","0.0-3.0-0.157","","key","arrowleft","16.665999999998515","960","472","158","6","-1","23","15","25","35","true"
"null","null","psychophysics","323","542097","0.0-3.0-1.157","","key","null","16.665999999999904","960","472","","","","","","","",""
"640.2999999523163","arrowleft","psychophysics","324","542738","0.0-3.0-0.158","","key","arrowleft","16.666000000002946","960","472","159","6","-1","24","35","25","35","true"
"null","null","psychophysics","325","543739","0.0-3.0-1.158","","key","null","16.665999999999904","960","472","","","","","","","",""
"554.1000000238419","arrowleft","psychophysics","326","544294","0.0-3.0-0.159","","key","arrowleft","16.666000000000086","960","472","160","6","-1","20","15","25","35","true"
"null","null","psychophysics","327","545296","0.0-3.0-1.159","","key","null","16.665999999999904","960","472","","","","","","","",""
"548.8000000119209","arrowleft","psychophysics","328","545846","0.0-3.0-0.160","","key","arrowleft","16.66599999999744","960","472","161","6","-1","25","15","25","35","true"
"null","null","psychophysics","329","546852","0.0-3.0-1.160","","key","null","16.665999999999904","960","472","","","","","","","",""
"451.5","arrowright","psychophysics","330","547304","0.0-3.0-0.161","","key","arrowright","16.665999999999677","960","472","162","6","1","27","15","25","35","true"
"null","null","psychophysics","331","548305","0.0-3.0-1.161","","key","null","16.665999999999904","960","472","","","","","","","",""
"551.6000000238419","arrowright","psychophysics","332","548860","0.0-3.0-0.162","","key","arrowright","16.666000000000086","960","472","163","6","1","30","35","25","35","true"
"null","null","psychophysics","333","549863","0.0-3.0-1.162","","key","null","16.665999999999904","960","472","","","","","","","",""
"1113.6000000238419","arrowleft","psychophysics","334","550978","0.0-3.0-0.163","","key","arrowleft","16.666000000000086","960","472","164","6","1","23","15","25","35","false"
"null","null","psychophysics","335","551980","0.0-3.0-1.163","","key","null","16.66600000000188","960","472","","","","","","","",""
"657.0999999642372","arrowleft","psychophysics","336","552638","0.0-3.0-0.164","","key","arrowleft","16.66599999999897","960","472","165","6","1","26","35","25","35","false"
"null","null","psychophysics","337","553639","0.0-3.0-1.164","","key","null","16.665999999999904","960","472","","","","","","","",""
"486.10000002384186","arrowleft","psychophysics","338","554127","0.0-3.0-0.165","","key","arrowleft","16.666000000000448","960","472","166","6","1","23","15","25","35","false"
"null","null","psychophysics","339","555130","0.0-3.0-1.165","","key","null","16.665999999999904","960","472","","","","","","","",""
"547.5","arrowleft","psychophysics","340","555678","0.0-3.0-0.166","","key","arrowleft","16.666000000001077","960","472","167","6","-1","23","15","25","35","true"
"null","null","psychophysics","341","556680","0.0-3.0-1.166","","key","null","16.665999999999904","960","472","","","","","","","",""
"883.1999999880791","arrowleft","psychophysics","342","557564","0.0-3.0-0.167","","key","arrowleft","16.666000000001915","960","472","168","7","-1","23","15","25","35","true"
"null","null","psychophysics","343","558569","0.0-3.0-1.167","","key","null","16.665999999999904","960","472","","","","","","","",""
"1919"," ","html-keyboard-response","344","560488","0.0-3.0-2.167-0.167","<div style=""color: white; text-align: center; vertical-align: top; display: inline-block; width: 800px; margin: auto""><p>You have completed 60% of the trials. You are on block 7 of 10. <br>Good job! Take a break if you need to.</p><p>Press any key to continue the experiment.</p></div>","","","","","","","","","","","","",""
"1091.2999999523163","arrowright","psychophysics","345","562582","0.0-3.0-0.168","","key","arrowright","16.666000000000572","960","472","169","7","1","23","15","25","35","true"
"null","null","psychophysics","346","563585","0.0-3.0-1.168","","key","null","16.665999999999904","960","472","","","","","","","",""
"640.8999999761581","arrowleft","psychophysics","347","564227","0.0-3.0-0.169","","key","arrowleft","16.666000000002033","960","472","170","7","-1","30","15","25","35","true"
"null","null","psychophysics","348","565229","0.0-3.0-1.169","","key","null","16.665999999999904","960","472","","","","","","","",""
"1113.4000000357628","arrowright","psychophysics","349","566344","0.0-3.0-0.170","","key","arrowright","16.666000000000086","960","472","171","7","1","23","15","25","35","true"
"null","null","psychophysics","350","567346","0.0-3.0-1.170","","key","null","16.665999999999904","960","472","","","","","","","",""
"523.1000000238419","arrowleft","psychophysics","351","567870","0.0-3.0-0.171","","key","arrowleft","16.66599999999938","960","472","172","7","-1","26","15","25","35","true"
"null","null","psychophysics","352","568871","0.0-3.0-1.171","","key","null","16.665999999999904","960","472","","","","","","","",""
"909.9000000357628","arrowleft","psychophysics","353","569784","0.0-3.0-0.172","","key","arrowleft","16.665999999998515","960","472","173","7","-1","25","35","25","35","true"
"null","null","psychophysics","354","570788","0.0-3.0-1.172","","key","null","16.6822881355933","960","472","","","","","","","",""
"611.5999999642372","arrowleft","psychophysics","355","571402","0.0-3.0-0.173","","key","arrowleft","16.666000000000672","960","472","174","7","-1","25","35","25","35","true"
"null","null","psychophysics","356","572405","0.0-3.0-1.173","","key","null","16.665999999999904","960","472","","","","","","","",""
"505.9000000357628","arrowright","psychophysics","357","572913","0.0-3.0-0.174","","key","arrowright","16.66599999999938","960","472","175","7","1","26","15","25","35","true"
"null","null","psychophysics","358","573919","0.0-3.0-1.174","","key","null","16.665999999999904","960","472","","","","","","","",""
"586.4000000357628","arrowleft","psychophysics","359","574506","0.0-3.0-0.175","","key","arrowleft","16.66599999999827","960","472","176","7","1","26","35","25","35","false"
"null","null","psychophysics","360","575511","0.0-3.0-1.175","","key","null","16.665999999999904","960","472","","","","","","","",""
"503.60000002384186","arrowleft","psychophysics","361","576015","0.0-3.0-0.176","","key","arrowleft","16.666000000000448","960","472","177","7","-1","23","35","25","35","true"
"null","null","psychophysics","362","577016","0.0-3.0-1.176","","key","null","16.665999999999904","960","472","","","","","","","",""
"1112.199999988079","arrowright","psychophysics","363","578130","0.0-3.0-0.177","","key","arrowright","16.66599999999832","960","472","178","7","1","26","15","25","35","true"
"null","null","psychophysics","364","579132","0.0-3.0-1.177","","key","null","16.665999999999904","960","472","","","","","","","",""
"8130.599999964237","arrowleft","psychophysics","365","587264","0.0-3.0-0.178","","key","arrowleft","16.66600000000013","960","472","179","7","1","26","35","25","35","false"
"null","null","psychophysics","366","588269","0.0-3.0-1.178","","key","null","16.665999999999904","960","472","","","","","","","",""
"648","arrowright","psychophysics","367","588918","0.0-3.0-0.179","","key","arrowright","16.66599999999897","960","472","180","7","1","24","15","25","35","true"
"null","null","psychophysics","368","589921","0.0-3.0-1.179","","key","null","16.665999999999904","960","472","","","","","","","",""
"489.69999998807907","arrowleft","psychophysics","369","590413","0.0-3.0-0.180","","key","arrowleft","16.666000000000448","960","472","181","7","-1","25","15","25","35","true"
"null","null","psychophysics","370","591415","0.0-3.0-1.180","","key","null","16.67769491525517","960","472","","","","","","","",""
"618.8000000119209","arrowleft","psychophysics","371","592034","0.0-3.0-0.181","","key","arrowleft","16.666000000000672","960","472","182","7","-1","30","35","25","35","true"
"null","null","psychophysics","372","593038","0.0-3.0-1.181","","key","null","16.665999999999904","960","472","","","","","","","",""
"793.1000000238419","arrowright","psychophysics","373","593833","0.0-3.0-0.182","","key","arrowright","16.666000000000533","960","472","183","7","1","30","35","25","35","true"
"null","null","psychophysics","374","594838","0.0-3.0-1.182","","key","null","16.66600000000188","960","472","","","","","","","",""
"819.1000000238419","arrowright","psychophysics","375","595659","0.0-3.0-0.183","","key","arrowright","16.665999999999222","960","472","184","7","-1","20","35","25","35","false"
"null","null","psychophysics","376","596662","0.0-3.0-1.183","","key","null","16.665999999999904","960","472","","","","","","","",""
"1556.7999999523163","arrowright","psychophysics","377","598220","0.0-3.0-0.184","","key","arrowright","16.66599999999997","960","472","185","7","1","23","15","25","35","true"
"null","null","psychophysics","378","599221","0.0-3.0-1.184","","key","null","16.66599999999938","960","472","","","","","","","",""
"642.6000000238419","arrowleft","psychophysics","379","599865","0.0-3.0-0.185","","key","arrowleft","16.665999999999798","960","472","186","7","-1","26","35","25","35","true"
"null","null","psychophysics","380","600870","0.0-3.0-1.185","","key","null","16.68227118643995","960","472","","","","","","","",""
"504.7000000476837","arrowleft","psychophysics","381","601375","0.0-3.0-0.186","","key","arrowleft","16.66599999999938","960","472","187","7","-1","26","15","25","35","true"
"null","null","psychophysics","382","602379","0.0-3.0-1.186","","key","null","16.665999999999904","960","472","","","","","","","",""
"655.8999999761581","arrowleft","psychophysics","383","603036","0.0-3.0-0.187","","key","arrowleft","16.666000000002033","960","472","188","7","-1","30","15","25","35","true"
"null","null","psychophysics","384","604038","0.0-3.0-1.187","","key","null","16.665999999999904","960","472","","","","","","","",""
"553.6999999880791","arrowright","psychophysics","385","604592","0.0-3.0-0.188","","key","arrowright","16.666000000000086","960","472","189","7","1","27","15","25","35","true"
"null","null","psychophysics","386","605595","0.0-3.0-1.188","","key","null","16.665999999999904","960","472","","","","","","","",""
"683","arrowright","psychophysics","387","606279","0.0-3.0-0.189","","key","arrowright","16.66600000000035","960","472","190","7","1","30","15","25","35","true"
"null","null","psychophysics","388","607284","0.0-3.0-1.189","","key","null","16.665999999999904","960","472","","","","","","","",""
"1807.699999988079","arrowright","psychophysics","389","609093","0.0-3.0-0.190","","key","arrowright","16.666000000000672","960","472","191","7","-1","20","15","25","35","false"
"null","null","psychophysics","390","610095","0.0-3.0-1.190","","key","null","16.665999999999904","960","472","","","","","","","",""
"520.3000000119209","arrowleft","psychophysics","391","610617","0.0-3.0-0.191","","key","arrowleft","16.66599999999938","960","472","192","7","-1","26","15","25","35","true"
"null","null","psychophysics","392","611621","0.0-3.0-1.191","","key","null","16.66599999999938","960","472","","","","","","","",""
"620.5","arrowleft","psychophysics","393","612243","0.0-3.0-0.192","","key","arrowleft","16.666000000000672","960","472","193","7","1","20","35","25","35","false"
"null","null","psychophysics","394","613245","0.0-3.0-1.192","","key","null","16.665999999999904","960","472","","","","","","","",""
"590.3999999761581","arrowleft","psychophysics","395","613836","0.0-3.0-0.193","","key","arrowleft","16.66599999999915","960","472","194","7","-1","24","15","25","35","true"
"null","null","psychophysics","396","614838","0.0-3.0-1.193","","key","null","16.665999999999904","960","472","","","","","","","",""
"689.1999999880791","arrowleft","psychophysics","397","615529","0.0-3.0-0.194","","key","arrowleft","16.665999999999567","960","472","195","7","1","23","35","25","35","false"
"null","null","psychophysics","398","616532","0.0-3.0-1.194","","key","null","16.665999999999904","960","472","","","","","","","",""
"1262.8999999761581","arrowleft","psychophysics","399","617795","0.0-3.0-0.195","","key","arrowleft","16.66600000000093","960","472","196","8","1","24","35","25","35","false"
"null","null","psychophysics","400","618801","0.0-3.0-1.195","","key","null","16.665999999999904","960","472","","","","","","","",""
"2324.900000035763"," ","html-keyboard-response","401","621126","0.0-3.0-2.195-0.195","<div style=""color: white; text-align: center; vertical-align: top; display: inline-block; width: 800px; margin: auto""><p>You have completed 70% of the trials. You are on block 8 of 10. <br>Good job! Take a break if you need to.</p><p>Press any key to continue the experiment.</p></div>","","","","","","","","","","","","",""
"1289.800000011921","arrowleft","psychophysics","402","623420","0.0-3.0-0.196","","key","arrowleft","16.666000000000086","960","472","197","8","-1","26","35","25","35","true"
"null","null","psychophysics","403","624421","0.0-3.0-1.196","","key","null","16.66600000000132","960","472","","","","","","","",""
"574","arrowleft","psychophysics","404","624996","0.0-3.0-0.197","","key","arrowleft","16.666000000000086","960","472","198","8","-1","30","35","25","35","true"
"null","null","psychophysics","405","626001","0.0-3.0-1.197","","key","null","16.665999999999904","960","472","","","","","","","",""
"634.1999999880791","arrowright","psychophysics","406","626636","0.0-3.0-0.198","","key","arrowright","16.666000000002946","960","472","199","8","1","30","35","25","35","true"
"null","null","psychophysics","407","627638","0.0-3.0-1.198","","key","null","16.66599999999938","960","472","","","","","","","",""
"664.9000000357628","arrowleft","psychophysics","408","628304","0.0-3.0-0.199","","key","arrowleft","16.666000000002033","960","472","200","8","1","23","35","25","35","false"
"null","null","psychophysics","409","629304","0.0-3.0-1.199","","key","null","16.66599999999938","960","472","","","","","","","",""
"487.4000000357628","arrowleft","psychophysics","410","629792","0.0-3.0-0.200","","key","arrowleft","16.66599999999744","960","472","201","8","-1","27","15","25","35","true"
"null","null","psychophysics","411","630795","0.0-3.0-1.200","","key","null","16.66600000000188","960","472","","","","","","","",""
"745.8000000119209","arrowleft","psychophysics","412","631542","0.0-3.0-0.201","","key","arrowleft","16.688477272726065","960","472","202","8","1","20","15","25","35","false"
"null","null","psychophysics","413","632545","0.0-3.0-1.201","","key","null","16.665999999999904","960","472","","","","","","","",""
"483.19999998807907","arrowleft","psychophysics","414","633029","0.0-3.0-0.202","","key","arrowleft","16.66599999999744","960","472","203","8","-1","27","15","25","35","true"
"null","null","psychophysics","415","634035","0.0-3.0-1.202","","key","null","16.665999999999904","960","472","","","","","","","",""
"1176.199999988079","arrowleft","psychophysics","416","635212","0.0-3.0-0.203","","key","arrowleft","16.665999999999933","960","472","204","8","-1","23","15","25","35","true"
"null","null","psychophysics","417","636217","0.0-3.0-1.203","","key","null","16.665999999999904","960","472","","","","","","","",""
"660.1999999880791","arrowleft","psychophysics","418","636879","0.0-3.0-0.204","","key","arrowleft","16.665999999998185","960","472","205","8","-1","30","35","25","35","true"
"null","null","psychophysics","419","637881","0.0-3.0-1.204","","key","null","16.665999999999904","960","472","","","","","","","",""
"1086.699999988079","arrowleft","psychophysics","420","638969","0.0-3.0-0.205","","key","arrowleft","16.665999999999258","960","472","206","8","-1","26","35","25","35","true"
"null","null","psychophysics","421","639970","0.0-3.0-1.205","","key","null","16.665999999999904","960","472","","","","","","","",""
"2372.800000011921","arrowleft","psychophysics","422","642345","0.0-3.0-0.206","","key","arrowleft","16.66600000000031","960","472","207","8","-1","25","35","25","35","true"
"null","null","psychophysics","423","643348","0.0-3.0-1.206","","key","null","16.665999999999904","960","472","","","","","","","",""
"1175.8999999761581","arrowleft","psychophysics","424","644524","0.0-3.0-0.207","","key","arrowleft","16.665999999999933","960","472","208","8","1","24","35","25","35","false"
"null","null","psychophysics","425","645528","0.0-3.0-1.207","","key","null","16.665999999999904","960","472","","","","","","","",""
"530.6999999880791","arrowright","psychophysics","426","646060","0.0-3.0-0.208","","key","arrowright","16.665999999998377","960","472","209","8","1","26","15","25","35","true"
"null","null","psychophysics","427","647061","0.0-3.0-1.208","","key","null","16.665999999999904","960","472","","","","","","","",""
"590.1000000238419","arrowright","psychophysics","428","647652","0.0-3.0-0.209","","key","arrowright","16.66599999999915","960","472","210","8","1","30","15","25","35","true"
"null","null","psychophysics","429","648653","0.0-3.0-1.209","","key","null","16.665999999999904","960","472","","","","","","","",""
"1022.6000000238419","arrowleft","psychophysics","430","649678","0.0-3.0-0.210","","key","arrowleft","16.66599999999887","960","472","211","8","-1","23","35","25","35","true"
"null","null","psychophysics","431","650679","0.0-3.0-1.210","","key","null","16.66600000000188","960","472","","","","","","","",""
"564.8000000119209","arrowleft","psychophysics","432","651245","0.0-3.0-0.211","","key","arrowleft","16.68578787878593","960","472","212","8","-1","27","35","25","35","true"
"null","null","psychophysics","433","652250","0.0-3.0-1.211","","key","null","16.665999999999904","960","472","","","","","","","",""
"441.5","arrowright","psychophysics","434","652693","0.0-3.0-0.212","","key","arrowright","16.665999999999677","960","472","213","8","1","30","15","25","35","true"
"null","null","psychophysics","435","653694","0.0-3.0-1.212","","key","null","16.665999999999904","960","472","","","","","","","",""
"665.2999999523163","arrowright","psychophysics","436","654362","0.0-3.0-0.213","","key","arrowright","16.665999999998185","960","472","214","8","-1","20","35","25","35","false"
"null","null","psychophysics","437","655364","0.0-3.0-1.213","","key","null","16.66600000000188","960","472","","","","","","","",""
"592.7000000476837","arrowleft","psychophysics","438","655958","0.0-3.0-0.214","","key","arrowleft","16.66599999999827","960","472","215","8","1","23","15","25","35","false"
"null","null","psychophysics","439","656961","0.0-3.0-1.214","","key","null","16.665999999999904","960","472","","","","","","","",""
"816.1999999880791","arrowleft","psychophysics","440","657778","0.0-3.0-0.215","","key","arrowleft","16.665999999999865","960","472","216","8","1","24","35","25","35","false"
"null","null","psychophysics","441","658784","0.0-3.0-1.215","","key","null","16.665999999999904","960","472","","","","","","","",""
"526.5","arrowleft","psychophysics","442","659311","0.0-3.0-0.216","","key","arrowleft","16.665999999998377","960","472","217","8","-1","24","15","25","35","true"
"null","null","psychophysics","443","660314","0.0-3.0-1.216","","key","null","16.665999999999904","960","472","","","","","","","",""
"613.0999999642372","arrowright","psychophysics","444","660928","0.0-3.0-0.217","","key","arrowright","16.66599999999744","960","472","218","8","1","25","35","25","35","true"
"null","null","psychophysics","445","661934","0.0-3.0-1.217","","key","null","16.682694915253904","960","472","","","","","","","",""
"567.0999999642372","arrowleft","psychophysics","446","662502","0.0-3.0-0.218","","key","arrowleft","16.666000000000086","960","472","219","8","1","25","35","25","35","false"
"null","null","psychophysics","447","663503","0.0-3.0-1.218","","key","null","16.665999999999904","960","472","","","","","","","",""
"641.3000000119209","arrowleft","psychophysics","448","664145","0.0-3.0-0.219","","key","arrowleft","16.66599999999897","960","472","220","8","1","27","35","25","35","false"
"null","null","psychophysics","449","665151","0.0-3.0-1.219","","key","null","16.665999999999904","960","472","","","","","","","",""
"457.5999999642372","arrowright","psychophysics","450","665609","0.0-3.0-0.220","","key","arrowright","16.665999999998515","960","472","221","8","1","20","15","25","35","true"
"null","null","psychophysics","451","666611","0.0-3.0-1.220","","key","null","16.665999999999904","960","472","","","","","","","",""
"818.9000000357628","arrowleft","psychophysics","452","667431","0.0-3.0-0.221","","key","arrowleft","16.665999999999865","960","472","222","8","1","20","35","25","35","false"
"null","null","psychophysics","453","668436","0.0-3.0-1.221","","key","null","16.665999999999904","960","472","","","","","","","",""
"1491.0999999642372","arrowleft","psychophysics","454","669928","0.0-3.0-0.222","","key","arrowleft","16.665999999999727","960","472","223","8","-1","25","35","25","35","true"
"null","null","psychophysics","455","670931","0.0-3.0-1.222","","key","null","16.665999999999904","960","472","","","","","","","",""
"683.1999999880791","arrowleft","psychophysics","456","671615","0.0-3.0-0.223","","key","arrowleft","16.66600000000035","960","472","224","9","1","24","35","25","35","false"
"null","null","psychophysics","457","672620","0.0-3.0-1.223","","key","null","16.665999999999904","960","472","","","","","","","",""
"3449.899999976158"," ","html-keyboard-response","458","676070","0.0-3.0-2.223-0.223","<div style=""color: white; text-align: center; vertical-align: top; display: inline-block; width: 800px; margin: auto""><p>You have completed 80% of the trials. You are on block 9 of 10. <br>Good job! Take a break if you need to.</p><p>Press any key to continue the experiment.</p></div>","","","","","","","","","","","","",""
"2323.600000023842","arrowright","psychophysics","459","679401","0.0-3.0-0.224","","key","arrowright","16.66600000000016","960","472","225","9","-1","24","35","25","35","false"
"null","null","psychophysics","460","680403","0.0-3.0-1.224","","key","null","16.665999999999904","960","472","","","","","","","",""
"573.3999999761581","arrowleft","psychophysics","461","680978","0.0-3.0-0.225","","key","arrowleft","16.666000000002576","960","472","226","9","-1","27","15","25","35","true"
"null","null","psychophysics","462","681980","0.0-3.0-1.225","","key","null","16.677016949152843","960","472","","","","","","","",""
"747.1999999880791","arrowleft","psychophysics","463","682729","0.0-3.0-0.226","","key","arrowleft","16.666000000000086","960","472","227","9","-1","27","35","25","35","true"
"null","null","psychophysics","464","683733","0.0-3.0-1.226","","key","null","16.665999999999904","960","472","","","","","","","",""
"594.1000000238419","arrowright","psychophysics","465","684328","0.0-3.0-0.227","","key","arrowright","16.66599999999827","960","472","228","9","1","27","15","25","35","true"
"null","null","psychophysics","466","685331","0.0-3.0-1.227","","key","null","16.665999999999904","960","472","","","","","","","",""
"462.19999998807907","arrowright","psychophysics","467","685794","0.0-3.0-0.228","","key","arrowright","16.665999999998515","960","472","229","9","1","27","15","25","35","true"
"null","null","psychophysics","468","686797","0.0-3.0-1.228","","key","null","16.665999999999904","960","472","","","","","","","",""
"564.1999999880791","arrowleft","psychophysics","469","687362","0.0-3.0-0.229","","key","arrowleft","16.666000000000086","960","472","230","9","1","25","35","25","35","false"
"null","null","psychophysics","470","688367","0.0-3.0-1.229","","key","null","16.665999999999904","960","472","","","","","","","",""
"576.8999999761581","arrowleft","psychophysics","471","688944","0.0-3.0-0.230","","key","arrowleft","16.666000000002576","960","472","231","9","-1","25","35","25","35","true"
"null","null","psychophysics","472","689950","0.0-3.0-1.230","","key","null","16.665999999999904","960","472","","","","","","","",""
"791.6000000238419","arrowright","psychophysics","473","690742","0.0-3.0-0.231","","key","arrowright","16.666000000000533","960","472","232","9","1","23","15","25","35","true"
"null","null","psychophysics","474","691744","0.0-3.0-1.231","","key","null","16.68267796610253","960","472","","","","","","","",""
"596.3000000119209","arrowleft","psychophysics","475","692341","0.0-3.0-0.232","","key","arrowleft","16.666000000001596","960","472","233","9","1","27","35","25","35","false"
"null","null","psychophysics","476","693344","0.0-3.0-1.232","","key","null","16.665999999999904","960","472","","","","","","","",""
"702.2000000476837","arrowleft","psychophysics","477","694047","0.0-3.0-0.233","","key","arrowleft","16.665999999999567","960","472","234","9","1","26","35","25","35","false"
"null","null","psychophysics","478","695052","0.0-3.0-1.233","","key","null","16.665999999999904","960","472","","","","","","","",""
"545","arrowleft","psychophysics","479","695598","0.0-3.0-0.234","","key","arrowleft","16.666000000001077","960","472","235","9","-1","27","35","25","35","true"
"null","null","psychophysics","480","696603","0.0-3.0-1.234","","key","null","16.665999999999904","960","472","","","","","","","",""
"687.2000000476837","arrowleft","psychophysics","481","697291","0.0-3.0-0.235","","key","arrowleft","16.665999999999567","960","472","236","9","-1","26","35","25","35","true"
"null","null","psychophysics","482","698294","0.0-3.0-1.235","","key","null","16.665999999999904","960","472","","","","","","","",""
"999.3999999761581","arrowleft","psychophysics","483","699294","0.0-3.0-0.236","","key","arrowleft","16.665999999999904","960","472","237","9","1","23","35","25","35","false"
"null","null","psychophysics","484","700295","0.0-3.0-1.236","","key","null","16.665999999999904","960","472","","","","","","","",""
"546","arrowright","psychophysics","485","700842","0.0-3.0-0.237","","key","arrowright","16.66599999999744","960","472","238","9","1","20","15","25","35","true"
"null","null","psychophysics","486","701844","0.0-3.0-1.237","","key","null","16.665999999999904","960","472","","","","","","","",""
"529.3000000119209","arrowleft","psychophysics","487","702374","0.0-3.0-0.238","","key","arrowleft","16.665999999998377","960","472","239","9","-1","27","15","25","35","true"
"null","null","psychophysics","488","703377","0.0-3.0-1.238","","key","null","16.665999999999904","960","472","","","","","","","",""
"729.6000000238419","arrowleft","psychophysics","489","704107","0.0-3.0-0.239","","key","arrowleft","16.666000000000825","960","472","240","9","-1","26","15","25","35","true"
"null","null","psychophysics","490","705110","0.0-3.0-1.239","","key","null","16.665999999999904","960","472","","","","","","","",""
"1108.199999988079","arrowright","psychophysics","491","706219","0.0-3.0-0.240","","key","arrowright","16.666000000000086","960","472","241","9","1","25","35","25","35","true"
"null","null","psychophysics","492","707225","0.0-3.0-1.240","","key","null","16.665999999999904","960","472","","","","","","","",""
"860.3000000119209","arrowright","psychophysics","493","708086","0.0-3.0-0.241","","key","arrowright","16.66600000000029","960","472","242","9","1","27","35","25","35","true"
"null","null","psychophysics","494","709087","0.0-3.0-1.241","","key","null","16.665999999999904","960","472","","","","","","","",""
"863.5","arrowright","psychophysics","495","709953","0.0-3.0-0.242","","key","arrowright","16.66600000000029","960","472","243","9","-1","20","35","25","35","false"
"null","null","psychophysics","496","710957","0.0-3.0-1.242","","key","null","16.665999999999904","960","472","","","","","","","",""
"571.7999999523163","arrowleft","psychophysics","497","711530","0.0-3.0-0.243","","key","arrowleft","16.685666666666016","960","472","244","9","-1","25","15","25","35","true"
"null","null","psychophysics","498","712535","0.0-3.0-1.243","","key","null","16.665999999999904","960","472","","","","","","","",""
"612.2000000476837","arrowleft","psychophysics","499","713148","0.0-3.0-0.244","","key","arrowleft","16.666000000000672","960","472","245","9","-1","24","15","25","35","true"
"null","null","psychophysics","500","714152","0.0-3.0-1.244","","key","null","16.66600000000188","960","472","","","","","","","",""
"572.7000000476837","arrowleft","psychophysics","501","714727","0.0-3.0-0.245","","key","arrowleft","16.66599999999915","960","472","246","9","1","20","15","25","35","false"
"null","null","psychophysics","502","715732","0.0-3.0-1.245","","key","null","16.665999999999904","960","472","","","","","","","",""
"661.1999999880791","arrowleft","psychophysics","503","716394","0.0-3.0-0.246","","key","arrowleft","16.665999999998185","960","472","247","9","-1","26","15","25","35","true"
"null","null","psychophysics","504","717395","0.0-3.0-1.246","","key","null","16.665999999999904","960","472","","","","","","","",""
"478.9000000357628","arrowleft","psychophysics","505","717875","0.0-3.0-0.247","","key","arrowleft","16.66599999999744","960","472","248","9","-1","30","15","25","35","true"
"null","null","psychophysics","506","718877","0.0-3.0-1.247","","key","null","16.665999999999904","960","472","","","","","","","",""
"1201.9000000357628","arrowright","psychophysics","507","720079","0.0-3.0-0.248","","key","arrowright","16.66599999999949","960","472","249","9","1","23","35","25","35","true"
"null","null","psychophysics","508","721085","0.0-3.0-1.248","","key","null","16.665999999999904","960","472","","","","","","","",""
"591","arrowleft","psychophysics","509","721677","0.0-3.0-0.249","","key","arrowleft","16.693971428571135","960","472","250","9","-1","26","15","25","35","true"
"null","null","psychophysics","510","722678","0.0-3.0-1.249","","key","null","16.665999999999904","960","472","","","","","","","",""
"1247.7000000476837","arrowright","psychophysics","511","723926","0.0-3.0-0.250","","key","arrowright","16.665999999999798","960","472","251","9","1","24","35","25","35","true"
"null","null","psychophysics","512","724932","0.0-3.0-1.250","","key","null","16.665999999999904","960","472","","","","","","","",""
"500.10000002384186","arrowleft","psychophysics","513","725433","0.0-3.0-0.251","","key","arrowleft","16.666000000000448","960","472","252","10","1","20","35","25","35","false"
"null","null","psychophysics","514","726435","0.0-3.0-1.251","","key","null","16.66600000000188","960","472","","","","","","","",""
"2485.600000023842","e","html-keyboard-response","515","728921","0.0-3.0-2.251-0.251","<div style=""color: white; text-align: center; vertical-align: top; display: inline-block; width: 800px; margin: auto""><p>You have completed 90% of the trials. You are on block 10 of 10. <br>Good job! Take a break if you need to.</p><p>Press any key to continue the experiment.</p></div>","","","","","","","","","","","","",""
"730","arrowleft","psychophysics","516","730657","0.0-3.0-0.252","","key","arrowleft","16.666000000000086","960","472","253","10","-1","30","35","25","35","true"
"null","null","psychophysics","517","731660","0.0-3.0-1.252","","key","null","16.665999999999904","960","472","","","","","","","",""
"568.5999999642372","arrowright","psychophysics","518","732229","0.0-3.0-0.253","","key","arrowright","16.666000000000086","960","472","254","10","1","27","15","25","35","true"
"null","null","psychophysics","519","733235","0.0-3.0-1.253","","key","null","16.66600000000188","960","472","","","","","","","",""
"443.19999998807907","arrowleft","psychophysics","520","733680","0.0-3.0-0.254","","key","arrowleft","16.665999999999677","960","472","255","10","-1","30","35","25","35","true"
"null","null","psychophysics","521","734685","0.0-3.0-1.254","","key","null","16.665999999999904","960","472","","","","","","","",""
"555.6999999880791","arrowright","psychophysics","522","735244","0.0-3.0-0.255","","key","arrowright","16.666000000000086","960","472","256","10","1","30","35","25","35","true"
"null","null","psychophysics","523","736245","0.0-3.0-1.255","","key","null","16.665999999999904","960","472","","","","","","","",""
"844.6000000238419","arrowright","psychophysics","524","737090","0.0-3.0-0.256","","key","arrowright","16.66600000000093","960","472","257","10","1","24","15","25","35","true"
"null","null","psychophysics","525","738093","0.0-3.0-1.256","","key","null","16.665999999999904","960","472","","","","","","","",""
"547.5","arrowleft","psychophysics","526","738641","0.0-3.0-0.257","","key","arrowleft","16.666000000001077","960","472","258","10","1","24","15","25","35","false"
"null","null","psychophysics","527","739643","0.0-3.0-1.257","","key","null","16.665999999999904","960","472","","","","","","","",""
"913.8999999761581","arrowright","psychophysics","528","740558","0.0-3.0-0.258","","key","arrowright","16.665999999998515","960","472","259","10","-1","23","35","25","35","false"
"null","null","psychophysics","529","741559","0.0-3.0-1.258","","key","null","16.676983050848122","960","472","","","","","","","",""
"1500.800000011921","arrowleft","psychophysics","530","743061","0.0-3.0-0.259","","key","arrowleft","16.666000000001034","960","472","260","10","-1","20","15","25","35","true"
"null","null","psychophysics","531","744064","0.0-3.0-1.259","","key","null","16.665999999999904","960","472","","","","","","","",""
"717.9000000357628","arrowright","psychophysics","532","744783","0.0-3.0-0.260","","key","arrowright","16.666000000001596","960","472","261","10","-1","23","35","25","35","false"
"null","null","psychophysics","533","745785","0.0-3.0-1.260","","key","null","16.665999999999904","960","472","","","","","","","",""
"412.19999998807907","arrowright","psychophysics","534","746201","0.0-3.0-0.261","","key","arrowright","16.66600000000229","960","472","262","10","1","30","15","25","35","true"
"null","null","psychophysics","535","747202","0.0-3.0-1.261","","key","null","16.665999999999904","960","472","","","","","","","",""
"707.1999999880791","arrowleft","psychophysics","536","747911","0.0-3.0-0.262","","key","arrowleft","16.666000000001596","960","472","263","10","1","23","35","25","35","false"
"null","null","psychophysics","537","748912","0.0-3.0-1.262","","key","null","16.665999999999904","960","472","","","","","","","",""
"651.1000000238419","arrowleft","psychophysics","538","749564","0.0-3.0-0.263","","key","arrowleft","16.666000000002033","960","472","264","10","-1","30","15","25","35","true"
"null","null","psychophysics","539","750568","0.0-3.0-1.263","","key","null","16.665999999999904","960","472","","","","","","","",""
"625.0999999642372","arrowright","psychophysics","540","751196","0.0-3.0-0.264","","key","arrowright","16.665999999999798","960","472","265","10","-1","20","15","25","35","false"
"null","null","psychophysics","541","752201","0.0-3.0-1.264","","key","null","16.68257627118639","960","472","","","","","","","",""
"885.4000000357628","arrowleft","psychophysics","542","753090","0.0-3.0-0.265","","key","arrowleft","16.665999999999087","960","472","266","10","-1","20","15","25","35","true"
"null","null","psychophysics","543","754091","0.0-3.0-1.265","","key","null","16.665999999999904","960","472","","","","","","","",""
"997.8999999761581","arrowright","psychophysics","544","755090","0.0-3.0-0.266","","key","arrowright","16.665999999999904","960","472","267","10","-1","24","35","25","35","false"
"null","null","psychophysics","545","756091","0.0-3.0-1.266","","key","null","16.665999999999904","960","472","","","","","","","",""
"524.4000000357628","arrowleft","psychophysics","546","756618","0.0-3.0-0.267","","key","arrowleft","16.66599999999938","960","472","268","10","-1","30","15","25","35","true"
"null","null","psychophysics","547","757619","0.0-3.0-1.267","","key","null","16.66599999999938","960","472","","","","","","","",""
"639.9000000357628","arrowleft","psychophysics","548","758260","0.0-3.0-0.268","","key","arrowleft","16.665999999999798","960","472","269","10","1","23","35","25","35","false"
"null","null","psychophysics","549","759263","0.0-3.0-1.268","","key","null","16.665999999999904","960","472","","","","","","","",""
"549.1000000238419","arrowright","psychophysics","550","759813","0.0-3.0-0.269","","key","arrowright","16.666000000001077","960","472","270","10","1","24","15","25","35","true"
"null","null","psychophysics","551","760818","0.0-3.0-1.269","","key","null","16.665999999999904","960","472","","","","","","","",""
"612.8000000119209","arrowright","psychophysics","552","761433","0.0-3.0-0.270","","key","arrowright","16.66599999999744","960","472","271","10","1","27","35","25","35","true"
"null","null","psychophysics","553","762435","0.0-3.0-1.270","","key","null","16.66599999999938","960","472","","","","","","","",""
"1697","arrowleft","psychophysics","554","764133","0.0-3.0-0.271","","key","arrowleft","16.665999999999766","960","472","272","10","1","24","35","25","35","false"
"null","null","psychophysics","555","765135","0.0-3.0-1.271","","key","null","16.665999999999904","960","472","","","","","","","",""
"480.5","arrowright","psychophysics","556","765617","0.0-3.0-0.272","","key","arrowright","16.666000000001596","960","472","273","10","1","26","15","25","35","true"
"null","null","psychophysics","557","766618","0.0-3.0-1.272","","key","null","16.665999999999904","960","472","","","","","","","",""
"1090.199999988079","arrowright","psychophysics","558","767710","0.0-3.0-0.273","","key","arrowright","16.666000000000572","960","472","274","10","1","27","35","25","35","true"
"null","null","psychophysics","559","768711","0.0-3.0-1.273","","key","null","16.665999999999904","960","472","","","","","","","",""
"1451.0999999642372","arrowright","psychophysics","560","770163","0.0-3.0-0.274","","key","arrowright","16.666000000000825","960","472","275","10","-1","20","35","25","35","false"
"null","null","psychophysics","561","771168","0.0-3.0-1.274","","key","null","16.665999999999904","960","472","","","","","","","",""
"1268.8999999761581","arrowright","psychophysics","562","772439","0.0-3.0-0.275","","key","arrowright","16.674526315790565","960","472","276","10","1","24","15","25","35","true"
"null","null","psychophysics","563","773442","0.0-3.0-1.275","","key","null","16.665999999999904","960","472","","","","","","","",""
"2099.7999999523163","arrowleft","psychophysics","564","775543","0.0-3.0-0.276","","key","arrowleft","16.666","960","472","277","10","-1","27","35","25","35","true"
"null","null","psychophysics","565","776548","0.0-3.0-1.276","","key","null","16.665999999999904","960","472","","","","","","","",""
"836.2999999523163","arrowleft","psychophysics","566","777385","0.0-3.0-0.277","","key","arrowleft","16.66600000000093","960","472","278","10","1","20","15","25","35","false"
"null","null","psychophysics","567","778388","0.0-3.0-1.277","","key","null","16.665999999999904","960","472","","","","","","","",""
"728.6999999880791","arrowleft","psychophysics","568","779118","0.0-3.0-0.278","","key","arrowleft","16.666000000001596","960","472","279","10","-1","27","15","25","35","true"
"null","null","psychophysics","569","780118","0.0-3.0-1.278","","key","null","16.66599999999938","960","472","","","","","","","",""
"742.4000000357628","arrowright","psychophysics","570","780861","0.0-3.0-0.279","","key","arrowright","16.666000000000825","960","472","280","11","1","25","15","25","35","true"
"null","null","psychophysics","571","781867","0.0-3.0-1.279","","key","null","16.68254237288167","960","472","","","","","","","",""
