rt,response,trial_type,trial_index,time_elapsed,internal_node_id,stimulus,response_type,key_press,avg_frame_time,center_x,center_y,trial,block,test_pos,test_inner_radius,test_outer_radius,ref_inner_radius,ref_outer_radius,test_bigger
316103.1,"{""p_id"":""1493"",""age"":""19"",""handedness"":""right"",""sex"":""female"",""other_sex"":""""}",survey-html-form,0,316114,0.0-0.0,,,,,,,,,,,,,,
8703.9, ,html-keyboard-response,1,324820,0.0-1.0,"<p style=""color: white"">Welcome to the Size Judgment Experiment. <br>There will be 10 blocks in this experiment. <br>There will be 28 trials in each block. <br>You will be given a chance to take a break between blocks. <br>Press any key to start the experiment.</p>",,,,,,,,,,,,,
36607.4,arrowleft,psychophysics,2,361453,0.0-2.0,,key,arrowleft,16.67334957,720,373,,,,,,,,
802.7,arrowleft,psychophysics,3,362263,0.0-3.0-0.0,,key,arrowleft,16.666,720,373,1,1,-1,20,35,25,35,TRUE
null,null,psychophysics,4,363271,0.0-3.0-1.0,,key,null,16.666,720,373,,,,,,,,
14851.8,arrowright,psychophysics,5,378127,0.0-3.0-0.1,,key,arrowright,16.6665809,720,373,2,1,-1,20,35,25,35,FALSE
null,null,psychophysics,6,379136,0.0-3.0-1.1,,key,null,16.666,720,373,,,,,,,,
338,arrowright,psychophysics,7,379477,0.0-3.0-0.2,,key,arrowright,16.666,720,373,3,1,-1,23,15,25,35,FALSE
null,null,psychophysics,8,380487,0.0-3.0-1.2,,key,null,16.666,720,373,,,,,,,,
3217.9,arrowright,psychophysics,9,383710,0.0-3.0-0.3,,key,arrowright,16.666,720,373,4,1,-1,30,35,25,35,FALSE
null,null,psychophysics,10,384720,0.0-3.0-1.3,,key,null,16.666,720,373,,,,,,,,
136.8,arrowright,psychophysics,11,384862,0.0-3.0-0.4,,key,arrowright,16.666,720,373,5,1,1,30,35,25,35,TRUE
null,null,psychophysics,12,385870,0.0-3.0-1.4,,key,null,16.67516949,720,373,,,,,,,,
2218.1,arrowleft,psychophysics,13,388091,0.0-3.0-0.5,,key,arrowleft,16.666,720,373,6,1,1,30,15,25,35,FALSE
null,null,psychophysics,14,389095,0.0-3.0-1.5,,key,null,16.666,720,373,,,,,,,,
784,arrowleft,psychophysics,15,389881,0.0-3.0-0.6,,key,arrowleft,16.666,720,373,7,1,1,23,15,25,35,FALSE
null,null,psychophysics,16,390887,0.0-3.0-1.6,,key,null,16.666,720,373,,,,,,,,
939.6,arrowright,psychophysics,17,391829,0.0-3.0-0.7,,key,arrowright,16.666,720,373,8,1,-1,26,15,25,35,FALSE
null,null,psychophysics,18,392830,0.0-3.0-1.7,,key,null,16.666,720,373,,,,,,,,
601.9,arrowright,psychophysics,19,393435,0.0-3.0-0.8,,key,arrowright,16.666,720,373,9,1,-1,24,15,25,35,FALSE
null,null,psychophysics,20,394439,0.0-3.0-1.8,,key,null,16.666,720,373,,,,,,,,
1002.2,arrowleft,psychophysics,21,395444,0.0-3.0-0.9,,key,arrowleft,16.666,720,373,10,1,1,25,35,25,35,FALSE
null,null,psychophysics,22,396448,0.0-3.0-1.9,,key,null,16.666,720,373,,,,,,,,
1049.5,arrowright,psychophysics,23,397499,0.0-3.0-0.10,,key,arrowright,16.666,720,373,11,1,1,26,35,25,35,TRUE
null,null,psychophysics,24,398504,0.0-3.0-1.10,,key,null,16.666,720,373,,,,,,,,
2124.3,arrowleft,psychophysics,25,400631,0.0-3.0-0.11,,key,arrowleft,16.666,720,373,12,1,1,20,35,25,35,FALSE
null,null,psychophysics,26,401638,0.0-3.0-1.11,,key,null,16.666,720,373,,,,,,,,
637.4,arrowleft,psychophysics,27,402279,0.0-3.0-0.12,,key,arrowleft,16.666,720,373,13,1,1,23,15,25,35,FALSE
null,null,psychophysics,28,403287,0.0-3.0-1.12,,key,null,16.666,720,373,,,,,,,,
1929.1,arrowleft,psychophysics,29,405219,0.0-3.0-0.13,,key,arrowleft,16.67061739,720,373,14,1,1,27,15,25,35,FALSE
null,null,psychophysics,30,406223,0.0-3.0-1.13,,key,null,16.666,720,373,,,,,,,,
801.8,arrowright,psychophysics,31,407028,0.0-3.0-0.14,,key,arrowright,16.666,720,373,15,1,1,23,35,25,35,TRUE
null,null,psychophysics,32,408032,0.0-3.0-1.14,,key,null,16.666,720,373,,,,,,,,
1488,arrowleft,psychophysics,33,409522,0.0-3.0-0.15,,key,arrowleft,16.666,720,373,16,1,-1,30,35,25,35,TRUE
null,null,psychophysics,34,410524,0.0-3.0-1.15,,key,null,16.666,720,373,,,,,,,,
834,arrowright,psychophysics,35,411360,0.0-3.0-0.16,,key,arrowright,16.666,720,373,17,1,1,24,35,25,35,TRUE
null,null,psychophysics,36,412369,0.0-3.0-1.16,,key,null,16.666,720,373,,,,,,,,
536.6,arrowright,psychophysics,37,412910,0.0-3.0-0.17,,key,arrowright,16.666,720,373,18,1,-1,20,15,25,35,FALSE
null,null,psychophysics,38,413922,0.0-3.0-1.17,,key,null,16.666,720,373,,,,,,,,
435.5,arrowright,psychophysics,39,414360,0.0-3.0-0.18,,key,arrowright,16.666,720,373,19,1,-1,25,15,25,35,FALSE
null,null,psychophysics,40,415369,0.0-3.0-1.18,,key,null,16.666,720,373,,,,,,,,
572.9,arrowright,psychophysics,41,415944,0.0-3.0-0.19,,key,arrowright,16.666,720,373,20,1,-1,26,15,25,35,FALSE
null,null,psychophysics,42,416952,0.0-3.0-1.19,,key,null,16.666,720,373,,,,,,,,
1358.4,arrowright,psychophysics,43,418316,0.0-3.0-0.20,,key,arrowright,16.666,720,373,21,1,-1,26,35,25,35,FALSE
null,null,psychophysics,44,419321,0.0-3.0-1.20,,key,null,16.666,720,373,,,,,,,,
1504.8,arrowright,psychophysics,45,420828,0.0-3.0-0.21,,key,arrowright,16.666,720,373,22,1,-1,20,15,25,35,FALSE
null,null,psychophysics,46,421832,0.0-3.0-1.21,,key,null,16.666,720,373,,,,,,,,
2058.5,arrowleft,psychophysics,47,423894,0.0-3.0-0.22,,key,arrowleft,16.666,720,373,23,1,1,24,15,25,35,FALSE
null,null,psychophysics,48,424896,0.0-3.0-1.22,,key,null,16.666,720,373,,,,,,,,
778.5,arrowleft,psychophysics,49,425676,0.0-3.0-0.23,,key,arrowleft,16.67745652,720,373,24,1,1,24,15,25,35,FALSE
null,null,psychophysics,50,426688,0.0-3.0-1.23,,key,null,16.666,720,373,,,,,,,,
1734.7,arrowleft,psychophysics,51,428425,0.0-3.0-0.24,,key,arrowleft,16.666,720,373,25,1,-1,20,35,25,35,TRUE
null,null,psychophysics,52,429432,0.0-3.0-1.24,,key,null,16.666,720,373,,,,,,,,
740.9,arrowright,psychophysics,53,430175,0.0-3.0-0.25,,key,arrowright,16.666,720,373,26,1,-1,23,35,25,35,FALSE
null,null,psychophysics,54,431185,0.0-3.0-1.25,,key,null,16.666,720,373,,,,,,,,
1410,arrowleft,psychophysics,55,432597,0.0-3.0-0.26,,key,arrowleft,16.666,720,373,27,1,1,30,35,25,35,FALSE
null,null,psychophysics,56,433601,0.0-3.0-1.26,,key,null,16.666,720,373,,,,,,,,
532.9,arrowleft,psychophysics,57,434136,0.0-3.0-0.27,,key,arrowleft,16.666,720,373,28,2,1,20,15,25,35,FALSE
null,null,psychophysics,58,435139,0.0-3.0-1.27,,key,null,16.666,720,373,,,,,,,,
122864.9, ,html-keyboard-response,59,558008,0.0-3.0-2.27-0.27,"<div style=""color: white; text-align: center; vertical-align: top; display: inline-block; width: 800px; margin: auto""><p>You have completed 10% of the trials. You are on block 2 of 10. <br>Good job! Take a break if you need to.</p><p>Press any key to continue the experiment.</p></div>",,,,,,,,,,,,,
5082.7,arrowleft,psychophysics,60,564103,0.0-3.0-0.28,,key,arrowleft,16.666,720,373,29,2,1,23,15,25,35,FALSE
null,null,psychophysics,61,565107,0.0-3.0-1.28,,key,null,16.666,720,373,,,,,,,,
579.2,arrowright,psychophysics,62,565688,0.0-3.0-0.29,,key,arrowright,16.666,720,373,30,2,-1,30,15,25,35,FALSE
null,null,psychophysics,63,566689,0.0-3.0-1.29,,key,null,16.666,720,373,,,,,,,,
463.5,arrowleft,psychophysics,64,567155,0.0-3.0-0.30,,key,arrowleft,16.666,720,373,31,2,1,25,15,25,35,FALSE
null,null,psychophysics,65,568155,0.0-3.0-1.30,,key,null,16.666,720,373,,,,,,,,
503.3,arrowleft,psychophysics,66,568661,0.0-3.0-0.31,,key,arrowleft,16.666,720,373,32,2,1,25,15,25,35,FALSE
null,null,psychophysics,67,569669,0.0-3.0-1.31,,key,null,16.666,720,373,,,,,,,,
523.7,arrowright,psychophysics,68,570194,0.0-3.0-0.32,,key,arrowright,16.666,720,373,33,2,-1,30,35,25,35,FALSE
null,null,psychophysics,69,571204,0.0-3.0-1.32,,key,null,16.666,720,373,,,,,,,,
621.6,arrowright,psychophysics,70,571828,0.0-3.0-0.33,,key,arrowright,16.666,720,373,34,2,1,30,35,25,35,TRUE
null,null,psychophysics,71,572835,0.0-3.0-1.33,,key,null,16.666,720,373,,,,,,,,
723.1,arrowright,psychophysics,72,573561,0.0-3.0-0.34,,key,arrowright,16.666,720,373,35,2,1,30,35,25,35,TRUE
null,null,psychophysics,73,574564,0.0-3.0-1.34,,key,null,16.666,720,373,,,,,,,,
501.6,arrowleft,psychophysics,74,575068,0.0-3.0-0.35,,key,arrowleft,16.666,720,373,36,2,1,27,15,25,35,FALSE
null,null,psychophysics,75,576071,0.0-3.0-1.35,,key,null,16.666,720,373,,,,,,,,
500.2,arrowright,psychophysics,76,576575,0.0-3.0-0.36,,key,arrowright,16.666,720,373,37,2,-1,25,15,25,35,FALSE
null,null,psychophysics,77,577580,0.0-3.0-1.36,,key,null,16.666,720,373,,,,,,,,
431,arrowright,psychophysics,78,578013,0.0-3.0-0.37,,key,arrowright,16.666,720,373,38,2,-1,26,15,25,35,FALSE
null,null,psychophysics,79,579016,0.0-3.0-1.37,,key,null,16.56583333,720,373,,,,,,,,
12483,arrowright,psychophysics,80,591507,0.0-3.0-0.38,,key,arrowright,16.666,720,373,39,2,1,24,35,25,35,TRUE
null,null,psychophysics,81,592516,0.0-3.0-1.38,,key,null,16.666,720,373,,,,,,,,
777.1,arrowleft,psychophysics,82,593296,0.0-3.0-0.39,,key,arrowleft,16.666,720,373,40,2,1,20,15,25,35,FALSE
null,null,psychophysics,83,594300,0.0-3.0-1.39,,key,null,16.666,720,373,,,,,,,,
1652.4,arrowright,psychophysics,84,595955,0.0-3.0-0.40,,key,arrowright,16.666,720,373,41,2,1,23,35,25,35,TRUE
null,null,psychophysics,85,596966,0.0-3.0-1.40,,key,null,16.666,720,373,,,,,,,,
503.5,arrowleft,psychophysics,86,597472,0.0-3.0-0.41,,key,arrowleft,16.666,720,373,42,2,1,20,15,25,35,FALSE
null,null,psychophysics,87,598477,0.0-3.0-1.41,,key,null,16.67567797,720,373,,,,,,,,
462.3,arrowright,psychophysics,88,598942,0.0-3.0-0.42,,key,arrowright,16.666,720,373,43,2,-1,30,15,25,35,FALSE
null,null,psychophysics,89,599949,0.0-3.0-1.42,,key,null,16.666,720,373,,,,,,,,
854.1,arrowright,psychophysics,90,600806,0.0-3.0-0.43,,key,arrowright,16.666,720,373,44,2,-1,26,35,25,35,FALSE
null,null,psychophysics,91,601814,0.0-3.0-1.43,,key,null,16.666,720,373,,,,,,,,
884,arrowright,psychophysics,92,602700,0.0-3.0-0.44,,key,arrowright,16.666,720,373,45,2,1,27,35,25,35,TRUE
null,null,psychophysics,93,603703,0.0-3.0-1.44,,key,null,16.666,720,373,,,,,,,,
458.1,arrowright,psychophysics,94,604163,0.0-3.0-0.45,,key,arrowright,16.666,720,373,46,2,-1,27,15,25,35,FALSE
null,null,psychophysics,95,605166,0.0-3.0-1.45,,key,null,16.666,720,373,,,,,,,,
444,arrowleft,psychophysics,96,605613,0.0-3.0-0.46,,key,arrowleft,16.666,720,373,47,2,1,30,15,25,35,FALSE
null,null,psychophysics,97,606617,0.0-3.0-1.46,,key,null,16.666,720,373,,,,,,,,
2445.1,arrowright,psychophysics,98,609065,0.0-3.0-0.47,,key,arrowright,16.666,720,373,48,2,-1,25,35,25,35,FALSE
null,null,psychophysics,99,610067,0.0-3.0-1.47,,key,null,16.666,720,373,,,,,,,,
506.2,arrowright,psychophysics,100,610576,0.0-3.0-0.48,,key,arrowright,16.666,720,373,49,2,-1,27,15,25,35,FALSE
null,null,psychophysics,101,611582,0.0-3.0-1.48,,key,null,16.666,720,373,,,,,,,,
756.2,arrowleft,psychophysics,102,612342,0.0-3.0-0.49,,key,arrowleft,16.666,720,373,50,2,1,26,35,25,35,FALSE
null,null,psychophysics,103,613349,0.0-3.0-1.49,,key,null,16.666,720,373,,,,,,,,
991.9,arrowright,psychophysics,104,614344,0.0-3.0-0.50,,key,arrowright,16.666,720,373,51,2,-1,27,35,25,35,FALSE
null,null,psychophysics,105,615349,0.0-3.0-1.50,,key,null,16.666,720,373,,,,,,,,
6014.4,arrowright,psychophysics,106,621366,0.0-3.0-0.51,,key,arrowright,16.66748333,720,373,52,2,1,20,35,25,35,TRUE
null,null,psychophysics,107,622367,0.0-3.0-1.51,,key,null,16.666,720,373,,,,,,,,
1143.1,arrowright,psychophysics,108,623513,0.0-3.0-0.52,,key,arrowright,16.666,720,373,53,2,-1,27,35,25,35,FALSE
null,null,psychophysics,109,624517,0.0-3.0-1.52,,key,null,16.666,720,373,,,,,,,,
2420,arrowleft,psychophysics,110,626940,0.0-3.0-0.53,,key,arrowleft,16.666,720,373,54,2,-1,26,35,25,35,TRUE
null,null,psychophysics,111,627949,0.0-3.0-1.53,,key,null,16.666,720,373,,,,,,,,
2120.6,arrowright,psychophysics,112,630072,0.0-3.0-0.54,,key,arrowright,16.666,720,373,55,2,1,25,35,25,35,TRUE
null,null,psychophysics,113,631077,0.0-3.0-1.54,,key,null,16.666,720,373,,,,,,,,
499.3,arrowright,psychophysics,114,631579,0.0-3.0-0.55,,key,arrowright,16.666,720,373,56,3,-1,23,15,25,35,FALSE
null,null,psychophysics,115,632583,0.0-3.0-1.55,,key,null,16.666,720,373,,,,,,,,
146688, ,html-keyboard-response,116,779276,0.0-3.0-2.55-0.55,"<div style=""color: white; text-align: center; vertical-align: top; display: inline-block; width: 800px; margin: auto""><p>You have completed 20% of the trials. You are on block 3 of 10. <br>Good job! Take a break if you need to.</p><p>Press any key to continue the experiment.</p></div>",,,,,,,,,,,,,
5195,arrowright,psychophysics,117,785480,0.0-3.0-0.56,,key,arrowright,16.666,720,373,57,3,1,25,35,25,35,TRUE
null,null,psychophysics,118,786486,0.0-3.0-1.56,,key,null,16.666,720,373,,,,,,,,
572.6,arrowright,psychophysics,119,787063,0.0-3.0-0.57,,key,arrowright,16.666,720,373,58,3,-1,24,15,25,35,FALSE
null,null,psychophysics,120,788067,0.0-3.0-1.57,,key,null,16.666,720,373,,,,,,,,
415.1,arrowleft,psychophysics,121,788484,0.0-3.0-0.58,,key,arrowleft,16.666,720,373,59,3,1,24,15,25,35,FALSE
null,null,psychophysics,122,789486,0.0-3.0-1.58,,key,null,16.666,720,373,,,,,,,,
517.8,arrowleft,psychophysics,123,790007,0.0-3.0-0.59,,key,arrowleft,16.666,720,373,60,3,1,26,15,25,35,FALSE
null,null,psychophysics,124,791010,0.0-3.0-1.59,,key,null,16.666,720,373,,,,,,,,
623.5,arrowleft,psychophysics,125,791640,0.0-3.0-0.60,,key,arrowleft,16.666,720,373,61,3,1,27,15,25,35,FALSE
null,null,psychophysics,126,792641,0.0-3.0-1.60,,key,null,16.666,720,373,,,,,,,,
466.2,arrowright,psychophysics,127,793109,0.0-3.0-0.61,,key,arrowright,16.666,720,373,62,3,-1,20,15,25,35,FALSE
null,null,psychophysics,128,794113,0.0-3.0-1.61,,key,null,16.666,720,373,,,,,,,,
522.6,arrowleft,psychophysics,129,794639,0.0-3.0-0.62,,key,arrowleft,16.666,720,373,63,3,-1,25,35,25,35,TRUE
null,null,psychophysics,130,795642,0.0-3.0-1.62,,key,null,16.666,720,373,,,,,,,,
497.1,arrowright,psychophysics,131,796141,0.0-3.0-0.63,,key,arrowright,16.666,720,373,64,3,-1,24,15,25,35,FALSE
null,null,psychophysics,132,797147,0.0-3.0-1.63,,key,null,16.666,720,373,,,,,,,,
461.8,arrowleft,psychophysics,133,797611,0.0-3.0-0.64,,key,arrowleft,16.666,720,373,65,3,-1,26,35,25,35,TRUE
null,null,psychophysics,134,798619,0.0-3.0-1.64,,key,null,16.666,720,373,,,,,,,,
441.8,arrowleft,psychophysics,135,799063,0.0-3.0-0.65,,key,arrowleft,16.666,720,373,66,3,1,30,15,25,35,FALSE
null,null,psychophysics,136,800065,0.0-3.0-1.65,,key,null,16.57818333,720,373,,,,,,,,
534.9,arrowright,psychophysics,137,800604,0.0-3.0-0.66,,key,arrowright,16.666,720,373,67,3,-1,30,35,25,35,FALSE
null,null,psychophysics,138,801611,0.0-3.0-1.66,,key,null,16.666,720,373,,,,,,,,
488.3,arrowleft,psychophysics,139,802102,0.0-3.0-0.67,,key,arrowleft,16.666,720,373,68,3,1,27,15,25,35,FALSE
null,null,psychophysics,140,803106,0.0-3.0-1.67,,key,null,16.666,720,373,,,,,,,,
517.3,arrowright,psychophysics,141,803626,0.0-3.0-0.68,,key,arrowright,16.666,720,373,69,3,-1,25,15,25,35,FALSE
null,null,psychophysics,142,804632,0.0-3.0-1.68,,key,null,16.666,720,373,,,,,,,,
469.2,arrowleft,psychophysics,143,805104,0.0-3.0-0.69,,key,arrowleft,16.666,720,373,70,3,1,23,15,25,35,FALSE
null,null,psychophysics,144,806107,0.0-3.0-1.69,,key,null,16.666,720,373,,,,,,,,
645.2,arrowright,psychophysics,145,806754,0.0-3.0-0.70,,key,arrowright,16.666,720,373,71,3,-1,27,35,25,35,FALSE
null,null,psychophysics,146,807763,0.0-3.0-1.70,,key,null,16.666,720,373,,,,,,,,
701.8,arrowright,psychophysics,147,808470,0.0-3.0-0.71,,key,arrowright,16.666,720,373,72,3,-1,30,35,25,35,FALSE
null,null,psychophysics,148,809475,0.0-3.0-1.71,,key,null,16.666,720,373,,,,,,,,
1266.7,arrowright,psychophysics,149,810744,0.0-3.0-0.72,,key,arrowright,16.666,720,373,73,3,-1,27,35,25,35,FALSE
null,null,psychophysics,150,811747,0.0-3.0-1.72,,key,null,16.666,720,373,,,,,,,,
554.9,arrowright,psychophysics,151,812305,0.0-3.0-0.73,,key,arrowright,16.666,720,373,74,3,-1,27,15,25,35,FALSE
null,null,psychophysics,152,813306,0.0-3.0-1.73,,key,null,16.666,720,373,,,,,,,,
567.7,arrowright,psychophysics,153,813876,0.0-3.0-0.74,,key,arrowright,16.666,720,373,75,3,1,25,35,25,35,TRUE
null,null,psychophysics,154,814882,0.0-3.0-1.74,,key,null,16.666,720,373,,,,,,,,
519.3,arrowright,psychophysics,155,815404,0.0-3.0-0.75,,key,arrowright,16.666,720,373,76,3,-1,20,15,25,35,FALSE
null,null,psychophysics,156,816411,0.0-3.0-1.75,,key,null,16.666,720,373,,,,,,,,
478.4,arrowright,psychophysics,157,816892,0.0-3.0-0.76,,key,arrowright,16.666,720,373,77,3,-1,26,15,25,35,FALSE
null,null,psychophysics,158,817898,0.0-3.0-1.76,,key,null,16.666,720,373,,,,,,,,
516.3,arrowleft,psychophysics,159,818418,0.0-3.0-0.77,,key,arrowleft,16.666,720,373,78,3,-1,25,35,25,35,TRUE
null,null,psychophysics,160,819428,0.0-3.0-1.77,,key,null,16.67540678,720,373,,,,,,,,
657.6,arrowleft,psychophysics,161,820088,0.0-3.0-0.78,,key,arrowleft,16.666,720,373,79,3,1,25,35,25,35,FALSE
null,null,psychophysics,162,821091,0.0-3.0-1.78,,key,null,16.666,720,373,,,,,,,,
1033.6,arrowright,psychophysics,163,822127,0.0-3.0-0.79,,key,arrowright,16.666,720,373,80,3,1,30,35,25,35,TRUE
null,null,psychophysics,164,823130,0.0-3.0-1.79,,key,null,16.666,720,373,,,,,,,,
612.2,arrowright,psychophysics,165,823745,0.0-3.0-0.80,,key,arrowright,16.666,720,373,81,3,-1,25,15,25,35,FALSE
null,null,psychophysics,166,824747,0.0-3.0-1.80,,key,null,16.666,720,373,,,,,,,,
773.6,arrowleft,psychophysics,167,825522,0.0-3.0-0.81,,key,arrowleft,16.666,720,373,82,3,1,25,15,25,35,FALSE
null,null,psychophysics,168,826530,0.0-3.0-1.81,,key,null,16.666,720,373,,,,,,,,
508.6,arrowright,psychophysics,169,827041,0.0-3.0-0.82,,key,arrowright,16.666,720,373,83,3,-1,30,15,25,35,FALSE
null,null,psychophysics,170,828047,0.0-3.0-1.82,,key,null,16.666,720,373,,,,,,,,
587.7,arrowleft,psychophysics,171,828637,0.0-3.0-0.83,,key,arrowleft,16.666,720,373,84,4,1,26,15,25,35,FALSE
null,null,psychophysics,172,829644,0.0-3.0-1.83,,key,null,16.666,720,373,,,,,,,,
1579.4, ,html-keyboard-response,173,831231,0.0-3.0-2.83-0.83,"<div style=""color: white; text-align: center; vertical-align: top; display: inline-block; width: 800px; margin: auto""><p>You have completed 30% of the trials. You are on block 4 of 10. <br>Good job! Take a break if you need to.</p><p>Press any key to continue the experiment.</p></div>",,,,,,,,,,,,,
4061.8,arrowright,psychophysics,174,836300,0.0-3.0-0.84,,key,arrowright,16.666,720,373,85,4,-1,23,15,25,35,FALSE
null,null,psychophysics,175,837301,0.0-3.0-1.84,,key,null,16.666,720,373,,,,,,,,
2707,arrowleft,psychophysics,176,840010,0.0-3.0-0.85,,key,arrowleft,16.70801242,720,373,86,4,-1,20,35,25,35,TRUE
null,null,psychophysics,177,841020,0.0-3.0-1.85,,key,null,16.666,720,373,,,,,,,,
20092.5,arrowright,psychophysics,178,861115,0.0-3.0-0.86,,key,arrowright,16.66644149,720,373,87,4,-1,23,15,25,35,FALSE
null,null,psychophysics,179,862121,0.0-3.0-1.86,,key,null,16.666,720,373,,,,,,,,
2752.5,arrowright,psychophysics,180,864877,0.0-3.0-0.87,,key,arrowright,16.666,720,373,88,4,-1,30,35,25,35,FALSE
null,null,psychophysics,181,865885,0.0-3.0-1.87,,key,null,16.666,720,373,,,,,,,,
1344.9,arrowleft,psychophysics,182,867232,0.0-3.0-0.88,,key,arrowleft,16.666,720,373,89,4,1,24,35,25,35,FALSE
null,null,psychophysics,183,868237,0.0-3.0-1.88,,key,null,16.666,720,373,,,,,,,,
754.7,arrowleft,psychophysics,184,868994,0.0-3.0-0.89,,key,arrowleft,16.666,720,373,90,4,1,30,15,25,35,FALSE
null,null,psychophysics,185,870004,0.0-3.0-1.89,,key,null,16.666,720,373,,,,,,,,
470.7,arrowleft,psychophysics,186,870477,0.0-3.0-0.90,,key,arrowleft,16.666,720,373,91,4,1,30,15,25,35,FALSE
null,null,psychophysics,187,871485,0.0-3.0-1.90,,key,null,16.666,720,373,,,,,,,,
656.1,arrowright,psychophysics,188,872144,0.0-3.0-0.91,,key,arrowright,16.666,720,373,92,4,1,25,35,25,35,TRUE
null,null,psychophysics,189,873149,0.0-3.0-1.91,,key,null,16.666,720,373,,,,,,,,
421.4,arrowright,psychophysics,190,873577,0.0-3.0-0.92,,key,arrowright,16.666,720,373,93,4,-1,24,15,25,35,FALSE
null,null,psychophysics,191,874580,0.0-3.0-1.92,,key,null,16.666,720,373,,,,,,,,
500.5,arrowleft,psychophysics,192,875083,0.0-3.0-0.93,,key,arrowleft,16.666,720,373,94,4,-1,20,35,25,35,TRUE
null,null,psychophysics,193,876088,0.0-3.0-1.93,,key,null,16.666,720,373,,,,,,,,
476.3,arrowleft,psychophysics,194,876568,0.0-3.0-0.94,,key,arrowleft,16.666,720,373,95,4,1,23,35,25,35,FALSE
null,null,psychophysics,195,877572,0.0-3.0-1.94,,key,null,16.666,720,373,,,,,,,,
592.6,arrowright,psychophysics,196,878167,0.0-3.0-0.95,,key,arrowright,16.666,720,373,96,4,-1,26,35,25,35,FALSE
null,null,psychophysics,197,879172,0.0-3.0-1.95,,key,null,16.666,720,373,,,,,,,,
490.4,arrowleft,psychophysics,198,879665,0.0-3.0-0.96,,key,arrowleft,16.68514286,720,373,97,4,1,26,15,25,35,FALSE
null,null,psychophysics,199,880670,0.0-3.0-1.96,,key,null,16.666,720,373,,,,,,,,
399.1,arrowright,psychophysics,200,881071,0.0-3.0-0.97,,key,arrowright,16.666,720,373,98,4,-1,26,15,25,35,FALSE
null,null,psychophysics,201,882072,0.0-3.0-1.97,,key,null,16.666,720,373,,,,,,,,
1436.5,arrowleft,psychophysics,202,883512,0.0-3.0-0.98,,key,arrowleft,16.666,720,373,99,4,1,26,35,25,35,FALSE
null,null,psychophysics,203,884517,0.0-3.0-1.98,,key,null,16.666,720,373,,,,,,,,
564.1,arrowleft,psychophysics,204,885084,0.0-3.0-0.99,,key,arrowleft,16.666,720,373,100,4,1,23,15,25,35,FALSE
null,null,psychophysics,205,886089,0.0-3.0-1.99,,key,null,16.666,720,373,,,,,,,,
686,arrowright,psychophysics,206,886777,0.0-3.0-0.100,,key,arrowright,16.666,720,373,101,4,1,20,35,25,35,TRUE
null,null,psychophysics,207,887781,0.0-3.0-1.100,,key,null,16.666,720,373,,,,,,,,
428.4,arrowleft,psychophysics,208,888211,0.0-3.0-0.101,,key,arrowleft,16.666,720,373,102,4,1,20,15,25,35,FALSE
null,null,psychophysics,209,889221,0.0-3.0-1.101,,key,null,16.666,720,373,,,,,,,,
850.6,arrowright,psychophysics,210,890074,0.0-3.0-0.102,,key,arrowright,16.666,720,373,103,4,-1,26,35,25,35,FALSE
null,null,psychophysics,211,891075,0.0-3.0-1.102,,key,null,16.666,720,373,,,,,,,,
550.5,arrowright,psychophysics,212,891627,0.0-3.0-0.103,,key,arrowright,16.666,720,373,104,4,-1,20,35,25,35,FALSE
null,null,psychophysics,213,892638,0.0-3.0-1.103,,key,null,16.666,720,373,,,,,,,,
490.1,arrowleft,psychophysics,214,893130,0.0-3.0-0.104,,key,arrowleft,16.666,720,373,105,4,1,20,15,25,35,FALSE
null,null,psychophysics,215,894133,0.0-3.0-1.104,,key,null,16.666,720,373,,,,,,,,
457.7,arrowright,psychophysics,216,894594,0.0-3.0-0.105,,key,arrowright,16.666,720,373,106,4,-1,27,15,25,35,FALSE
null,null,psychophysics,217,895597,0.0-3.0-1.105,,key,null,16.666,720,373,,,,,,,,
479.1,arrowleft,psychophysics,218,896078,0.0-3.0-0.106,,key,arrowleft,16.666,720,373,107,4,-1,20,35,25,35,TRUE
null,null,psychophysics,219,897085,0.0-3.0-1.106,,key,null,16.666,720,373,,,,,,,,
456.7,arrowright,psychophysics,220,897544,0.0-3.0-0.107,,key,arrowright,16.666,720,373,108,4,-1,23,15,25,35,FALSE
null,null,psychophysics,221,898549,0.0-3.0-1.107,,key,null,16.666,720,373,,,,,,,,
1059,arrowright,psychophysics,222,899610,0.0-3.0-0.108,,key,arrowright,16.67444444,720,373,109,4,-1,27,35,25,35,FALSE
null,null,psychophysics,223,900621,0.0-3.0-1.108,,key,null,16.666,720,373,,,,,,,,
486.1,arrowleft,psychophysics,224,901109,0.0-3.0-0.109,,key,arrowleft,16.666,720,373,110,4,1,20,15,25,35,FALSE
null,null,psychophysics,225,902118,0.0-3.0-1.109,,key,null,16.666,720,373,,,,,,,,
423.9,arrowright,psychophysics,226,902544,0.0-3.0-0.110,,key,arrowright,16.666,720,373,111,4,-1,25,15,25,35,FALSE
null,null,psychophysics,227,903550,0.0-3.0-1.110,,key,null,16.666,720,373,,,,,,,,
499.5,arrowright,psychophysics,228,904059,0.0-3.0-0.111,,key,arrowright,16.666,720,373,112,5,-1,27,15,25,35,FALSE
null,null,psychophysics,229,905071,0.0-3.0-1.111,,key,null,16.666,720,373,,,,,,,,
36752.9, ,html-keyboard-response,230,941826,0.0-3.0-2.111-0.111,"<div style=""color: white; text-align: center; vertical-align: top; display: inline-block; width: 800px; margin: auto""><p>You have completed 40% of the trials. You are on block 5 of 10. <br>Good job! Take a break if you need to.</p><p>Press any key to continue the experiment.</p></div>",,,,,,,,,,,,,
2579.5,arrowright,psychophysics,231,945413,0.0-3.0-0.112,,key,arrowright,16.666,720,373,113,5,1,26,35,25,35,TRUE
null,null,psychophysics,232,946416,0.0-3.0-1.112,,key,null,16.666,720,373,,,,,,,,
483.7,arrowright,psychophysics,233,946902,0.0-3.0-0.113,,key,arrowright,16.666,720,373,114,5,-1,23,15,25,35,FALSE
null,null,psychophysics,234,947911,0.0-3.0-1.113,,key,null,16.666,720,373,,,,,,,,
1669.9,arrowleft,psychophysics,235,949584,0.0-3.0-0.114,,key,arrowleft,16.666,720,373,115,5,1,30,35,25,35,FALSE
null,null,psychophysics,236,950591,0.0-3.0-1.114,,key,null,16.666,720,373,,,,,,,,
962.2,arrowleft,psychophysics,237,951555,0.0-3.0-0.115,,key,arrowleft,16.666,720,373,116,5,-1,26,35,25,35,TRUE
null,null,psychophysics,238,952559,0.0-3.0-1.115,,key,null,16.666,720,373,,,,,,,,
547.2,arrowright,psychophysics,239,953109,0.0-3.0-0.116,,key,arrowright,16.666,720,373,117,5,1,24,35,25,35,TRUE
null,null,psychophysics,240,954117,0.0-3.0-1.116,,key,null,16.666,720,373,,,,,,,,
557.2,arrowright,psychophysics,241,954676,0.0-3.0-0.117,,key,arrowright,16.666,720,373,118,5,-1,26,35,25,35,FALSE
null,null,psychophysics,242,955679,0.0-3.0-1.117,,key,null,16.666,720,373,,,,,,,,
504.8,arrowright,psychophysics,243,956187,0.0-3.0-0.118,,key,arrowright,16.666,720,373,119,5,-1,25,15,25,35,FALSE
null,null,psychophysics,244,957191,0.0-3.0-1.118,,key,null,16.666,720,373,,,,,,,,
1233.1,arrowleft,psychophysics,245,958426,0.0-3.0-0.119,,key,arrowleft,16.666,720,373,120,5,-1,27,35,25,35,TRUE
null,null,psychophysics,246,959430,0.0-3.0-1.119,,key,null,16.666,720,373,,,,,,,,
638.7,arrowright,psychophysics,247,960071,0.0-3.0-0.120,,key,arrowright,16.666,720,373,121,5,-1,24,35,25,35,FALSE
null,null,psychophysics,248,961080,0.0-3.0-1.120,,key,null,16.666,720,373,,,,,,,,
547.7,arrowright,psychophysics,249,961630,0.0-3.0-0.121,,key,arrowright,16.666,720,373,122,5,1,24,35,25,35,TRUE
null,null,psychophysics,250,962631,0.0-3.0-1.121,,key,null,16.64528333,720,373,,,,,,,,
668.8,arrowleft,psychophysics,251,963304,0.0-3.0-0.122,,key,arrowleft,16.666,720,373,123,5,1,23,15,25,35,FALSE
null,null,psychophysics,252,964312,0.0-3.0-1.122,,key,null,16.666,720,373,,,,,,,,
638.7,arrowright,psychophysics,253,964953,0.0-3.0-0.123,,key,arrowright,16.666,720,373,124,5,-1,24,35,25,35,FALSE
null,null,psychophysics,254,965959,0.0-3.0-1.123,,key,null,16.666,720,373,,,,,,,,
683.7,arrowleft,psychophysics,255,966645,0.0-3.0-0.124,,key,arrowleft,16.666,720,373,125,5,-1,26,35,25,35,TRUE
null,null,psychophysics,256,967647,0.0-3.0-1.124,,key,null,16.666,720,373,,,,,,,,
3289.2,arrowright,psychophysics,257,970939,0.0-3.0-0.125,,key,arrowright,16.666,720,373,126,5,1,30,35,25,35,TRUE
null,null,psychophysics,258,971942,0.0-3.0-1.125,,key,null,16.666,720,373,,,,,,,,
4376.3,arrowleft,psychophysics,259,976320,0.0-3.0-0.126,,key,arrowleft,16.666,720,373,127,5,1,24,15,25,35,FALSE
null,null,psychophysics,260,977328,0.0-3.0-1.126,,key,null,16.666,720,373,,,,,,,,
939.7,arrowright,psychophysics,261,978270,0.0-3.0-0.127,,key,arrowright,16.666,720,373,128,5,-1,23,35,25,35,FALSE
null,null,psychophysics,262,979281,0.0-3.0-1.127,,key,null,16.666,720,373,,,,,,,,
552.9,arrowleft,psychophysics,263,979836,0.0-3.0-0.128,,key,arrowleft,16.666,720,373,129,5,1,20,15,25,35,FALSE
null,null,psychophysics,264,980839,0.0-3.0-1.128,,key,null,16.666,720,373,,,,,,,,
561.8,arrowleft,psychophysics,265,981403,0.0-3.0-0.129,,key,arrowleft,16.666,720,373,130,5,1,25,15,25,35,FALSE
null,null,psychophysics,266,982407,0.0-3.0-1.129,,key,null,16.67516949,720,373,,,,,,,,
527.8,arrowright,psychophysics,267,982937,0.0-3.0-0.130,,key,arrowright,16.666,720,373,131,5,-1,26,15,25,35,FALSE
null,null,psychophysics,268,983944,0.0-3.0-1.130,,key,null,16.666,720,373,,,,,,,,
790.9,arrowright,psychophysics,269,984738,0.0-3.0-0.131,,key,arrowright,16.666,720,373,132,5,1,20,35,25,35,TRUE
null,null,psychophysics,270,985744,0.0-3.0-1.131,,key,null,16.666,720,373,,,,,,,,
1010,arrowleft,psychophysics,271,986756,0.0-3.0-0.132,,key,arrowleft,16.666,720,373,133,5,1,27,35,25,35,FALSE
null,null,psychophysics,272,987760,0.0-3.0-1.132,,key,null,16.666,720,373,,,,,,,,
516.4,arrowright,psychophysics,273,988279,0.0-3.0-0.133,,key,arrowright,16.666,720,373,134,5,-1,20,15,25,35,FALSE
null,null,psychophysics,274,989281,0.0-3.0-1.133,,key,null,16.666,720,373,,,,,,,,
653.7,arrowleft,psychophysics,275,989937,0.0-3.0-0.134,,key,arrowleft,16.666,720,373,135,5,1,25,15,25,35,FALSE
null,null,psychophysics,276,990944,0.0-3.0-1.134,,key,null,16.666,720,373,,,,,,,,
98225.3,arrowright,psychophysics,277,1089176,0.0-3.0-0.135,,key,arrowright,16.66644884,720,373,136,5,1,27,35,25,35,TRUE
null,null,psychophysics,278,1090179,0.0-3.0-1.135,,key,null,16.666,720,373,,,,,,,,
649.5,arrowright,psychophysics,279,1090831,0.0-3.0-0.136,,key,arrowright,16.666,720,373,137,5,-1,23,35,25,35,FALSE
null,null,psychophysics,280,1091832,0.0-3.0-1.136,,key,null,16.666,720,373,,,,,,,,
452.1,arrowright,psychophysics,281,1092287,0.0-3.0-0.137,,key,arrowright,16.666,720,373,138,5,-1,24,15,25,35,FALSE
null,null,psychophysics,282,1093290,0.0-3.0-1.137,,key,null,16.666,720,373,,,,,,,,
731,arrowright,psychophysics,283,1094023,0.0-3.0-0.138,,key,arrowright,16.666,720,373,139,5,-1,25,35,25,35,FALSE
null,null,psychophysics,284,1095027,0.0-3.0-1.138,,key,null,16.666,720,373,,,,,,,,
399.6,arrowright,psychophysics,285,1095429,0.0-3.0-0.139,,key,arrowright,16.666,720,373,140,6,-1,24,35,25,35,FALSE
null,null,psychophysics,286,1096432,0.0-3.0-1.139,,key,null,16.666,720,373,,,,,,,,
86808.8, ,html-keyboard-response,287,1183244,0.0-3.0-2.139-0.139,"<div style=""color: white; text-align: center; vertical-align: top; display: inline-block; width: 800px; margin: auto""><p>You have completed 50% of the trials. You are on block 6 of 10. <br>Good job! Take a break if you need to.</p><p>Press any key to continue the experiment.</p></div>",,,,,,,,,,,,,
1808.1,arrowleft,psychophysics,288,1186069,0.0-3.0-0.140,,key,arrowleft,16.666,720,373,141,6,1,24,15,25,35,FALSE
null,null,psychophysics,289,1187078,0.0-3.0-1.140,,key,null,16.666,720,373,,,,,,,,
422.2,arrowleft,psychophysics,290,1187503,0.0-3.0-0.141,,key,arrowleft,16.666,720,373,142,6,1,25,15,25,35,FALSE
null,null,psychophysics,291,1188510,0.0-3.0-1.141,,key,null,16.666,720,373,,,,,,,,
396.5,arrowright,psychophysics,292,1188909,0.0-3.0-0.142,,key,arrowright,16.666,720,373,143,6,-1,24,35,25,35,FALSE
null,null,psychophysics,293,1189914,0.0-3.0-1.142,,key,null,16.666,720,373,,,,,,,,
438,arrowleft,psychophysics,294,1190355,0.0-3.0-0.143,,key,arrowleft,16.666,720,373,144,6,1,27,15,25,35,FALSE
null,null,psychophysics,295,1191356,0.0-3.0-1.143,,key,null,16.666,720,373,,,,,,,,
576.9,arrowright,psychophysics,296,1191936,0.0-3.0-0.144,,key,arrowright,16.666,720,373,145,6,-1,27,35,25,35,FALSE
null,null,psychophysics,297,1192942,0.0-3.0-1.144,,key,null,16.666,720,373,,,,,,,,
527.9,arrowright,psychophysics,298,1193472,0.0-3.0-0.145,,key,arrowright,16.666,720,373,146,6,1,26,35,25,35,TRUE
null,null,psychophysics,299,1194478,0.0-3.0-1.145,,key,null,16.666,720,373,,,,,,,,
428.2,arrowright,psychophysics,300,1194909,0.0-3.0-0.146,,key,arrowright,16.666,720,373,147,6,1,27,35,25,35,TRUE
null,null,psychophysics,301,1195913,0.0-3.0-1.146,,key,null,16.666,720,373,,,,,,,,
435.2,arrowleft,psychophysics,302,1196351,0.0-3.0-0.147,,key,arrowleft,16.666,720,373,148,6,1,27,15,25,35,FALSE
null,null,psychophysics,303,1197358,0.0-3.0-1.147,,key,null,16.666,720,373,,,,,,,,
765.6,arrowright,psychophysics,304,1198126,0.0-3.0-0.148,,key,arrowright,16.666,720,373,149,6,1,26,35,25,35,TRUE
null,null,psychophysics,305,1199129,0.0-3.0-1.148,,key,null,16.666,720,373,,,,,,,,
673.3,arrowright,psychophysics,306,1199806,0.0-3.0-0.149,,key,arrowright,16.666,720,373,150,6,1,25,35,25,35,TRUE
null,null,psychophysics,307,1200812,0.0-3.0-1.149,,key,null,16.666,720,373,,,,,,,,
438.2,arrowleft,psychophysics,308,1201253,0.0-3.0-0.150,,key,arrowleft,16.666,720,373,151,6,1,25,15,25,35,FALSE
null,null,psychophysics,309,1202262,0.0-3.0-1.150,,key,null,16.666,720,373,,,,,,,,
404.4,arrowright,psychophysics,310,1202669,0.0-3.0-0.151,,key,arrowright,16.666,720,373,152,6,-1,23,35,25,35,FALSE
null,null,psychophysics,311,1203679,0.0-3.0-1.151,,key,null,16.673,720,373,,,,,,,,
389.1,arrowleft,psychophysics,312,1204070,0.0-3.0-0.152,,key,arrowleft,16.666,720,373,153,6,1,26,15,25,35,FALSE
null,null,psychophysics,313,1205079,0.0-3.0-1.152,,key,null,16.666,720,373,,,,,,,,
421.5,arrowright,psychophysics,314,1205502,0.0-3.0-0.153,,key,arrowright,16.666,720,373,154,6,-1,23,15,25,35,FALSE
null,null,psychophysics,315,1206511,0.0-3.0-1.153,,key,null,16.666,720,373,,,,,,,,
358.5,arrowright,psychophysics,316,1206872,0.0-3.0-0.154,,key,arrowright,16.666,720,373,155,6,-1,24,15,25,35,FALSE
null,null,psychophysics,317,1207880,0.0-3.0-1.154,,key,null,16.666,720,373,,,,,,,,
436,arrowleft,psychophysics,318,1208319,0.0-3.0-0.155,,key,arrowleft,16.666,720,373,156,6,1,25,15,25,35,FALSE
null,null,psychophysics,319,1209325,0.0-3.0-1.155,,key,null,16.666,720,373,,,,,,,,
394.2,arrowleft,psychophysics,320,1209721,0.0-3.0-0.156,,key,arrowleft,16.666,720,373,157,6,-1,25,35,25,35,TRUE
null,null,psychophysics,321,1210727,0.0-3.0-1.156,,key,null,16.666,720,373,,,,,,,,
489.2,arrowleft,psychophysics,322,1211219,0.0-3.0-0.157,,key,arrowleft,16.666,720,373,158,6,1,20,15,25,35,FALSE
null,null,psychophysics,323,1212222,0.0-3.0-1.157,,key,null,16.666,720,373,,,,,,,,
531.3,arrowleft,psychophysics,324,1212755,0.0-3.0-0.158,,key,arrowleft,16.666,720,373,159,6,-1,20,35,25,35,TRUE
null,null,psychophysics,325,1213757,0.0-3.0-1.158,,key,null,16.666,720,373,,,,,,,,
425,arrowright,psychophysics,326,1214184,0.0-3.0-0.159,,key,arrowright,16.666,720,373,160,6,-1,23,15,25,35,FALSE
null,null,psychophysics,327,1215189,0.0-3.0-1.159,,key,null,16.666,720,373,,,,,,,,
527.5,arrowleft,psychophysics,328,1215719,0.0-3.0-0.160,,key,arrowleft,16.666,720,373,161,6,-1,25,35,25,35,TRUE
null,null,psychophysics,329,1216727,0.0-3.0-1.160,,key,null,16.666,720,373,,,,,,,,
404.6,arrowright,psychophysics,330,1217134,0.0-3.0-0.161,,key,arrowright,16.666,720,373,162,6,-1,24,15,25,35,FALSE
null,null,psychophysics,331,1218143,0.0-3.0-1.161,,key,null,16.666,720,373,,,,,,,,
881.9,arrowright,psychophysics,332,1219028,0.0-3.0-0.162,,key,arrowright,16.666,720,373,163,6,-1,23,35,25,35,FALSE
null,null,psychophysics,333,1220029,0.0-3.0-1.162,,key,null,16.666,720,373,,,,,,,,
501.5,arrowleft,psychophysics,334,1220534,0.0-3.0-0.163,,key,arrowleft,16.666,720,373,164,6,1,24,15,25,35,FALSE
null,null,psychophysics,335,1221543,0.0-3.0-1.163,,key,null,16.666,720,373,,,,,,,,
572.8,arrowright,psychophysics,336,1222118,0.0-3.0-0.164,,key,arrowright,16.666,720,373,165,6,1,25,35,25,35,TRUE
null,null,psychophysics,337,1223128,0.0-3.0-1.164,,key,null,16.666,720,373,,,,,,,,
695.1,arrowright,psychophysics,338,1223825,0.0-3.0-0.165,,key,arrowright,16.67880488,720,373,166,6,1,26,35,25,35,TRUE
null,null,psychophysics,339,1224830,0.0-3.0-1.165,,key,null,16.666,720,373,,,,,,,,
686.6,arrowleft,psychophysics,340,1225520,0.0-3.0-0.166,,key,arrowleft,16.666,720,373,167,6,1,20,35,25,35,FALSE
null,null,psychophysics,341,1226527,0.0-3.0-1.166,,key,null,16.666,720,373,,,,,,,,
820.3,arrowright,psychophysics,342,1227350,0.0-3.0-0.167,,key,arrowright,16.666,720,373,168,7,-1,24,35,25,35,FALSE
null,null,psychophysics,343,1228359,0.0-3.0-1.167,,key,null,16.666,720,373,,,,,,,,
26424, ,html-keyboard-response,344,1254791,0.0-3.0-2.167-0.167,"<div style=""color: white; text-align: center; vertical-align: top; display: inline-block; width: 800px; margin: auto""><p>You have completed 60% of the trials. You are on block 7 of 10. <br>Good job! Take a break if you need to.</p><p>Press any key to continue the experiment.</p></div>",,,,,,,,,,,,,
1650.9,arrowleft,psychophysics,345,1257457,0.0-3.0-0.168,,key,arrowleft,16.666,720,373,169,7,1,20,15,25,35,FALSE
null,null,psychophysics,346,1258463,0.0-3.0-1.168,,key,null,16.666,720,373,,,,,,,,
557,arrowright,psychophysics,347,1259022,0.0-3.0-0.169,,key,arrowright,16.666,720,373,170,7,-1,30,15,25,35,FALSE
null,null,psychophysics,348,1260024,0.0-3.0-1.169,,key,null,16.666,720,373,,,,,,,,
4527.8,arrowright,psychophysics,349,1264553,0.0-3.0-0.170,,key,arrowright,16.666,720,373,171,7,-1,30,15,25,35,FALSE
null,null,psychophysics,350,1265556,0.0-3.0-1.170,,key,null,16.666,720,373,,,,,,,,
1547.5,arrowright,psychophysics,351,1267106,0.0-3.0-0.171,,key,arrowright,16.666,720,373,172,7,-1,30,35,25,35,FALSE
null,null,psychophysics,352,1268107,0.0-3.0-1.171,,key,null,16.666,720,373,,,,,,,,
644.1,arrowright,psychophysics,353,1268753,0.0-3.0-0.172,,key,arrowright,16.666,720,373,173,7,1,27,35,25,35,TRUE
null,null,psychophysics,354,1269755,0.0-3.0-1.172,,key,null,16.666,720,373,,,,,,,,
440.2,arrowright,psychophysics,355,1270198,0.0-3.0-0.173,,key,arrowright,16.666,720,373,174,7,-1,30,15,25,35,FALSE
null,null,psychophysics,356,1271205,0.0-3.0-1.173,,key,null,16.666,720,373,,,,,,,,
445.3,arrowleft,psychophysics,357,1271653,0.0-3.0-0.174,,key,arrowleft,16.666,720,373,175,7,1,23,15,25,35,FALSE
null,null,psychophysics,358,1272654,0.0-3.0-1.174,,key,null,16.666,720,373,,,,,,,,
555,arrowright,psychophysics,359,1273211,0.0-3.0-0.175,,key,arrowright,16.666,720,373,176,7,1,30,35,25,35,TRUE
null,null,psychophysics,360,1274216,0.0-3.0-1.175,,key,null,16.666,720,373,,,,,,,,
370.5,arrowright,psychophysics,361,1274589,0.0-3.0-0.176,,key,arrowright,16.666,720,373,177,7,1,23,35,25,35,TRUE
null,null,psychophysics,362,1275591,0.0-3.0-1.176,,key,null,16.59528814,720,373,,,,,,,,
505.1,arrowleft,psychophysics,363,1276098,0.0-3.0-0.177,,key,arrowleft,16.666,720,373,178,7,1,27,15,25,35,FALSE
null,null,psychophysics,364,1277100,0.0-3.0-1.177,,key,null,16.666,720,373,,,,,,,,
312,arrowright,psychophysics,365,1277415,0.0-3.0-0.178,,key,arrowright,16.666,720,373,179,7,-1,25,35,25,35,FALSE
null,null,psychophysics,366,1278417,0.0-3.0-1.178,,key,null,16.666,720,373,,,,,,,,
305.5,arrowright,psychophysics,367,1278725,0.0-3.0-0.179,,key,arrowright,16.666,720,373,180,7,-1,27,35,25,35,FALSE
null,null,psychophysics,368,1279727,0.0-3.0-1.179,,key,null,16.666,720,373,,,,,,,,
379.8,arrowright,psychophysics,369,1280109,0.0-3.0-0.180,,key,arrowright,16.666,720,373,181,7,-1,27,15,25,35,FALSE
null,null,psychophysics,370,1281112,0.0-3.0-1.180,,key,null,16.666,720,373,,,,,,,,
406.5,arrowright,psychophysics,371,1281521,0.0-3.0-0.181,,key,arrowright,16.666,720,373,182,7,-1,23,15,25,35,FALSE
null,null,psychophysics,372,1282528,0.0-3.0-1.181,,key,null,16.666,720,373,,,,,,,,
498.8,arrowleft,psychophysics,373,1283029,0.0-3.0-0.182,,key,arrowleft,16.666,720,373,183,7,1,26,15,25,35,FALSE
null,null,psychophysics,374,1284033,0.0-3.0-1.182,,key,null,16.666,720,373,,,,,,,,
693,arrowright,psychophysics,375,1284728,0.0-3.0-0.183,,key,arrowright,16.666,720,373,184,7,1,30,35,25,35,TRUE
null,null,psychophysics,376,1285733,0.0-3.0-1.183,,key,null,16.666,720,373,,,,,,,,
2371.3,arrowright,psychophysics,377,1288107,0.0-3.0-0.184,,key,arrowright,16.666,720,373,185,7,-1,25,35,25,35,FALSE
null,null,psychophysics,378,1289112,0.0-3.0-1.184,,key,null,16.666,720,373,,,,,,,,
578.1,arrowleft,psychophysics,379,1289692,0.0-3.0-0.185,,key,arrowleft,16.666,720,373,186,7,1,23,15,25,35,FALSE
null,null,psychophysics,380,1290696,0.0-3.0-1.185,,key,null,16.666,720,373,,,,,,,,
477.1,arrowleft,psychophysics,381,1291175,0.0-3.0-0.186,,key,arrowleft,16.666,720,373,187,7,1,30,15,25,35,FALSE
null,null,psychophysics,382,1292184,0.0-3.0-1.186,,key,null,16.666,720,373,,,,,,,,
502.1,arrowright,psychophysics,383,1292689,0.0-3.0-0.187,,key,arrowright,16.666,720,373,188,7,1,20,35,25,35,TRUE
null,null,psychophysics,384,1293697,0.0-3.0-1.187,,key,null,16.666,720,373,,,,,,,,
395.6,arrowleft,psychophysics,385,1294095,0.0-3.0-0.188,,key,arrowleft,16.666,720,373,189,7,1,30,15,25,35,FALSE
null,null,psychophysics,386,1295101,0.0-3.0-1.188,,key,null,16.6748,720,373,,,,,,,,
402.2,arrowleft,psychophysics,387,1295506,0.0-3.0-0.189,,key,arrowleft,16.666,720,373,190,7,1,26,15,25,35,FALSE
null,null,psychophysics,388,1296513,0.0-3.0-1.189,,key,null,16.666,720,373,,,,,,,,
456.1,arrowright,psychophysics,389,1296971,0.0-3.0-0.190,,key,arrowright,16.666,720,373,191,7,-1,24,15,25,35,FALSE
null,null,psychophysics,390,1297976,0.0-3.0-1.190,,key,null,16.666,720,373,,,,,,,,
827.9,arrowright,psychophysics,391,1298806,0.0-3.0-0.191,,key,arrowright,16.666,720,373,192,7,1,23,35,25,35,TRUE
null,null,psychophysics,392,1299816,0.0-3.0-1.191,,key,null,16.666,720,373,,,,,,,,
686.2,arrowright,psychophysics,393,1300504,0.0-3.0-0.192,,key,arrowright,16.666,720,373,193,7,-1,23,35,25,35,FALSE
null,null,psychophysics,394,1301513,0.0-3.0-1.192,,key,null,16.666,720,373,,,,,,,,
455.5,arrowright,psychophysics,395,1301971,0.0-3.0-0.193,,key,arrowright,16.666,720,373,194,7,-1,30,15,25,35,FALSE
null,null,psychophysics,396,1302976,0.0-3.0-1.193,,key,null,16.666,720,373,,,,,,,,
394.3,arrowleft,psychophysics,397,1303373,0.0-3.0-0.194,,key,arrowleft,16.666,720,373,195,7,1,20,15,25,35,FALSE
null,null,psychophysics,398,1304375,0.0-3.0-1.194,,key,null,16.666,720,373,,,,,,,,
461.3,arrowright,psychophysics,399,1304838,0.0-3.0-0.195,,key,arrowright,16.666,720,373,196,8,-1,26,15,25,35,FALSE
null,null,psychophysics,400,1305839,0.0-3.0-1.195,,key,null,16.666,720,373,,,,,,,,
4636.2,arrowright,html-keyboard-response,401,1310476,0.0-3.0-2.195-0.195,"<div style=""color: white; text-align: center; vertical-align: top; display: inline-block; width: 800px; margin: auto""><p>You have completed 70% of the trials. You are on block 8 of 10. <br>Good job! Take a break if you need to.</p><p>Press any key to continue the experiment.</p></div>",,,,,,,,,,,,,
469.6,arrowright,psychophysics,402,1311955,0.0-3.0-0.196,,key,arrowright,16.666,720,373,197,8,-1,25,15,25,35,FALSE
null,null,psychophysics,403,1312961,0.0-3.0-1.196,,key,null,16.666,720,373,,,,,,,,
1604.3,arrowleft,psychophysics,404,1314567,0.0-3.0-0.197,,key,arrowleft,16.666,720,373,198,8,1,27,15,25,35,FALSE
null,null,psychophysics,405,1315578,0.0-3.0-1.197,,key,null,16.58745763,720,373,,,,,,,,
3169.4,arrowleft,psychophysics,406,1318749,0.0-3.0-0.198,,key,arrowleft,16.666,720,373,199,8,1,27,15,25,35,FALSE
null,null,psychophysics,407,1319752,0.0-3.0-1.198,,key,null,16.666,720,373,,,,,,,,
1941.7,arrowright,psychophysics,408,1321695,0.0-3.0-0.199,,key,arrowright,16.666,720,373,200,8,-1,30,35,25,35,FALSE
null,null,psychophysics,409,1322696,0.0-3.0-1.199,,key,null,16.666,720,373,,,,,,,,
434.1,arrowright,psychophysics,410,1323210,0.0-3.0-0.200,,key,arrowright,16.666,720,373,201,8,-1,23,35,25,35,FALSE
null,null,psychophysics,411,1324213,0.0-3.0-1.200,,key,null,16.95334483,720,373,,,,,,,,
585.3,arrowright,psychophysics,412,1324800,0.0-3.0-0.201,,key,arrowright,16.666,720,373,202,8,-1,25,35,25,35,FALSE
null,null,psychophysics,413,1325806,0.0-3.0-1.201,,key,null,16.666,720,373,,,,,,,,
459.2,arrowright,psychophysics,414,1326268,0.0-3.0-0.202,,key,arrowright,16.666,720,373,203,8,-1,20,15,25,35,FALSE
null,null,psychophysics,415,1327273,0.0-3.0-1.202,,key,null,16.666,720,373,,,,,,,,
1184.9,arrowright,psychophysics,416,1328460,0.0-3.0-0.203,,key,arrowright,16.666,720,373,204,8,1,23,35,25,35,TRUE
null,null,psychophysics,417,1329462,0.0-3.0-1.203,,key,null,16.666,720,373,,,,,,,,
2384.8,arrowright,psychophysics,418,1331849,0.0-3.0-0.204,,key,arrowright,16.666,720,373,205,8,1,24,35,25,35,TRUE
null,null,psychophysics,419,1332856,0.0-3.0-1.204,,key,null,16.666,720,373,,,,,,,,
501.8,arrowleft,psychophysics,420,1333362,0.0-3.0-0.205,,key,arrowleft,16.666,720,373,206,8,1,26,15,25,35,FALSE
null,null,psychophysics,421,1334367,0.0-3.0-1.205,,key,null,16.666,720,373,,,,,,,,
465.2,arrowleft,psychophysics,422,1334835,0.0-3.0-0.206,,key,arrowleft,16.666,720,373,207,8,1,30,15,25,35,FALSE
null,null,psychophysics,423,1335839,0.0-3.0-1.206,,key,null,16.6749661,720,373,,,,,,,,
531.4,arrowleft,psychophysics,424,1336373,0.0-3.0-0.207,,key,arrowleft,16.666,720,373,208,8,1,24,15,25,35,FALSE
null,null,psychophysics,425,1337376,0.0-3.0-1.207,,key,null,16.666,720,373,,,,,,,,
434.7,arrowright,psychophysics,426,1337813,0.0-3.0-0.208,,key,arrowright,16.666,720,373,209,8,-1,27,15,25,35,FALSE
null,null,psychophysics,427,1338823,0.0-3.0-1.208,,key,null,16.666,720,373,,,,,,,,
904.3,arrowright,psychophysics,428,1339729,0.0-3.0-0.209,,key,arrowright,16.666,720,373,210,8,1,26,35,25,35,TRUE
null,null,psychophysics,429,1340735,0.0-3.0-1.209,,key,null,16.666,720,373,,,,,,,,
400.7,arrowright,psychophysics,430,1341137,0.0-3.0-0.210,,key,arrowright,16.666,720,373,211,8,-1,23,15,25,35,FALSE
null,null,psychophysics,431,1342142,0.0-3.0-1.210,,key,null,16.666,720,373,,,,,,,,
474.4,arrowright,psychophysics,432,1342619,0.0-3.0-0.211,,key,arrowright,16.666,720,373,212,8,-1,26,15,25,35,FALSE
null,null,psychophysics,433,1343623,0.0-3.0-1.211,,key,null,16.666,720,373,,,,,,,,
754,arrowright,psychophysics,434,1344380,0.0-3.0-0.212,,key,arrowright,16.666,720,373,213,8,1,26,35,25,35,TRUE
null,null,psychophysics,435,1345382,0.0-3.0-1.212,,key,null,16.666,720,373,,,,,,,,
495.5,arrowleft,psychophysics,436,1345880,0.0-3.0-0.213,,key,arrowleft,16.666,720,373,214,8,1,30,15,25,35,FALSE
null,null,psychophysics,437,1346888,0.0-3.0-1.213,,key,null,16.666,720,373,,,,,,,,
405.7,arrowright,psychophysics,438,1347296,0.0-3.0-0.214,,key,arrowright,16.666,720,373,215,8,1,23,35,25,35,TRUE
null,null,psychophysics,439,1348304,0.0-3.0-1.214,,key,null,16.666,720,373,,,,,,,,
797.7,arrowright,psychophysics,440,1349104,0.0-3.0-0.215,,key,arrowright,16.666,720,373,216,8,-1,26,35,25,35,FALSE
null,null,psychophysics,441,1350106,0.0-3.0-1.215,,key,null,16.666,720,373,,,,,,,,
645,arrowright,psychophysics,442,1350754,0.0-3.0-0.216,,key,arrowright,16.666,720,373,217,8,1,24,35,25,35,TRUE
null,null,psychophysics,443,1351759,0.0-3.0-1.216,,key,null,16.666,720,373,,,,,,,,
606.8,arrowright,psychophysics,444,1352368,0.0-3.0-0.217,,key,arrowright,16.666,720,373,218,8,1,26,35,25,35,TRUE
null,null,psychophysics,445,1353375,0.0-3.0-1.217,,key,null,16.666,720,373,,,,,,,,
640.2,arrowleft,psychophysics,446,1354018,0.0-3.0-0.218,,key,arrowleft,16.666,720,373,219,8,1,24,15,25,35,FALSE
null,null,psychophysics,447,1355023,0.0-3.0-1.218,,key,null,16.67510169,720,373,,,,,,,,
736,arrowright,psychophysics,448,1355763,0.0-3.0-0.219,,key,arrowright,16.666,720,373,220,8,1,25,35,25,35,TRUE
null,null,psychophysics,449,1356767,0.0-3.0-1.219,,key,null,16.666,720,373,,,,,,,,
976.9,arrowright,psychophysics,450,1357746,0.0-3.0-0.220,,key,arrowright,16.666,720,373,221,8,-1,20,15,25,35,FALSE
null,null,psychophysics,451,1358752,0.0-3.0-1.220,,key,null,16.666,720,373,,,,,,,,
736.6,arrowright,psychophysics,452,1359491,0.0-3.0-0.221,,key,arrowright,16.666,720,373,222,8,-1,25,35,25,35,FALSE
null,null,psychophysics,453,1360494,0.0-3.0-1.221,,key,null,16.666,720,373,,,,,,,,
399.7,arrowright,psychophysics,454,1360896,0.0-3.0-0.222,,key,arrowright,16.666,720,373,223,8,1,27,35,25,35,TRUE
null,null,psychophysics,455,1361904,0.0-3.0-1.222,,key,null,16.666,720,373,,,,,,,,
412.2,arrowright,psychophysics,456,1362319,0.0-3.0-0.223,,key,arrowright,16.666,720,373,224,9,-1,24,15,25,35,FALSE
null,null,psychophysics,457,1363325,0.0-3.0-1.223,,key,null,16.666,720,373,,,,,,,,
85565.4, ,html-keyboard-response,458,1448895,0.0-3.0-2.223-0.223,"<div style=""color: white; text-align: center; vertical-align: top; display: inline-block; width: 800px; margin: auto""><p>You have completed 80% of the trials. You are on block 9 of 10. <br>Good job! Take a break if you need to.</p><p>Press any key to continue the experiment.</p></div>",,,,,,,,,,,,,
10437.9,arrowright,psychophysics,459,1460342,0.0-3.0-0.224,,key,arrowright,16.666,720,373,225,9,-1,25,15,25,35,FALSE
null,null,psychophysics,460,1461347,0.0-3.0-1.224,,key,null,16.666,720,373,,,,,,,,
622.1,arrowright,psychophysics,461,1461972,0.0-3.0-0.225,,key,arrowright,16.666,720,373,226,9,-1,25,15,25,35,FALSE
null,null,psychophysics,462,1462979,0.0-3.0-1.225,,key,null,16.666,720,373,,,,,,,,
1531.1,arrowleft,psychophysics,463,1464512,0.0-3.0-0.226,,key,arrowleft,16.666,720,373,227,9,-1,26,15,25,35,TRUE
null,null,psychophysics,464,1465518,0.0-3.0-1.226,,key,null,16.666,720,373,,,,,,,,
850.4,arrowleft,psychophysics,465,1466371,0.0-3.0-0.227,,key,arrowleft,16.666,720,373,228,9,-1,30,15,25,35,TRUE
null,null,psychophysics,466,1467379,0.0-3.0-1.227,,key,null,16.666,720,373,,,,,,,,
982,arrowright,psychophysics,467,1468364,0.0-3.0-0.228,,key,arrowright,16.666,720,373,229,9,-1,20,35,25,35,FALSE
null,null,psychophysics,468,1469365,0.0-3.0-1.228,,key,null,16.61146667,720,373,,,,,,,,
3042.4,arrowright,psychophysics,469,1472410,0.0-3.0-0.229,,key,arrowright,16.666,720,373,230,9,-1,24,15,25,35,FALSE
null,null,psychophysics,470,1473415,0.0-3.0-1.229,,key,null,16.666,720,373,,,,,,,,
3872.8,arrowright,psychophysics,471,1477291,0.0-3.0-0.230,,key,arrowright,16.666,720,373,231,9,1,23,35,25,35,TRUE
null,null,psychophysics,472,1478298,0.0-3.0-1.230,,key,null,16.666,720,373,,,,,,,,
1303.7,arrowleft,psychophysics,473,1479605,0.0-3.0-0.231,,key,arrowleft,16.666,720,373,232,9,1,25,35,25,35,FALSE
null,null,psychophysics,474,1480612,0.0-3.0-1.231,,key,null,16.666,720,373,,,,,,,,
796.7,arrowright,psychophysics,475,1481411,0.0-3.0-0.232,,key,arrowright,16.666,720,373,233,9,1,23,35,25,35,TRUE
null,null,psychophysics,476,1482415,0.0-3.0-1.232,,key,null,16.666,720,373,,,,,,,,
1802.8,arrowright,psychophysics,477,1484221,0.0-3.0-0.233,,key,arrowright,16.666,720,373,234,9,-1,27,35,25,35,FALSE
null,null,psychophysics,478,1485228,0.0-3.0-1.233,,key,null,16.666,720,373,,,,,,,,
1039.6,arrowleft,psychophysics,479,1486270,0.0-3.0-0.234,,key,arrowleft,16.666,720,373,235,9,1,20,35,25,35,FALSE
null,null,psychophysics,480,1487275,0.0-3.0-1.234,,key,null,16.666,720,373,,,,,,,,
793.4,arrowright,psychophysics,481,1488070,0.0-3.0-0.235,,key,arrowright,16.666,720,373,236,9,1,27,35,25,35,TRUE
null,null,psychophysics,482,1489076,0.0-3.0-1.235,,key,null,16.675,720,373,,,,,,,,
1410.5,arrowright,psychophysics,483,1490488,0.0-3.0-0.236,,key,arrowright,16.666,720,373,237,9,1,27,15,25,35,TRUE
null,null,psychophysics,484,1491491,0.0-3.0-1.236,,key,null,16.666,720,373,,,,,,,,
1548,arrowleft,psychophysics,485,1493041,0.0-3.0-0.237,,key,arrowleft,16.666,720,373,238,9,-1,27,15,25,35,TRUE
null,null,psychophysics,486,1494043,0.0-3.0-1.237,,key,null,16.666,720,373,,,,,,,,
5674.1,arrowleft,psychophysics,487,1499719,0.0-3.0-0.238,,key,arrowleft,16.666,720,373,239,9,1,24,35,25,35,FALSE
null,null,psychophysics,488,1500723,0.0-3.0-1.238,,key,null,16.666,720,373,,,,,,,,
1106.5,arrowright,psychophysics,489,1501831,0.0-3.0-0.239,,key,arrowright,16.666,720,373,240,9,1,30,35,25,35,TRUE
null,null,psychophysics,490,1502833,0.0-3.0-1.239,,key,null,16.666,720,373,,,,,,,,
854.2,arrowright,psychophysics,491,1503690,0.0-3.0-0.240,,key,arrowright,16.666,720,373,241,9,-1,23,35,25,35,FALSE
null,null,psychophysics,492,1504699,0.0-3.0-1.240,,key,null,16.666,720,373,,,,,,,,
842.2,arrowright,psychophysics,493,1505544,0.0-3.0-0.241,,key,arrowright,16.666,720,373,242,9,1,27,35,25,35,TRUE
null,null,psychophysics,494,1506548,0.0-3.0-1.241,,key,null,16.666,720,373,,,,,,,,
788.1,arrowright,psychophysics,495,1507338,0.0-3.0-0.242,,key,arrowright,16.666,720,373,243,9,-1,20,15,25,35,FALSE
null,null,psychophysics,496,1508348,0.0-3.0-1.242,,key,null,16.666,720,373,,,,,,,,
2153.7,arrowright,psychophysics,497,1510505,0.0-3.0-0.243,,key,arrowright,16.67010078,720,373,244,9,-1,20,15,25,35,FALSE
null,null,psychophysics,498,1511508,0.0-3.0-1.243,,key,null,16.666,720,373,,,,,,,,
4528,arrowleft,psychophysics,499,1516038,0.0-3.0-0.244,,key,arrowleft,16.666,720,373,245,9,1,23,15,25,35,FALSE
null,null,psychophysics,500,1517045,0.0-3.0-1.244,,key,null,16.666,720,373,,,,,,,,
1814.4,arrowleft,psychophysics,501,1518861,0.0-3.0-0.245,,key,arrowleft,16.666,720,373,246,9,1,24,35,25,35,FALSE
null,null,psychophysics,502,1519866,0.0-3.0-1.245,,key,null,16.666,720,373,,,,,,,,
739.8,arrowleft,psychophysics,503,1520609,0.0-3.0-0.246,,key,arrowleft,16.666,720,373,247,9,-1,30,15,25,35,TRUE
null,null,psychophysics,504,1521611,0.0-3.0-1.246,,key,null,16.666,720,373,,,,,,,,
2208.3,arrowright,psychophysics,505,1523822,0.0-3.0-0.247,,key,arrowright,16.666,720,373,248,9,-1,24,35,25,35,FALSE
null,null,psychophysics,506,1524829,0.0-3.0-1.247,,key,null,16.666,720,373,,,,,,,,
1163.5,arrowright,psychophysics,507,1525996,0.0-3.0-0.248,,key,arrowright,16.666,720,373,249,9,-1,24,35,25,35,FALSE
null,null,psychophysics,508,1526999,0.0-3.0-1.248,,key,null,16.666,720,373,,,,,,,,
946.1,arrowleft,psychophysics,509,1527948,0.0-3.0-0.249,,key,arrowleft,16.666,720,373,250,9,-1,27,15,25,35,TRUE
null,null,psychophysics,510,1528950,0.0-3.0-1.249,,key,null,16.666,720,373,,,,,,,,
1788,arrowright,psychophysics,511,1530741,0.0-3.0-0.250,,key,arrowright,16.67065094,720,373,251,9,1,26,15,25,35,TRUE
null,null,psychophysics,512,1531748,0.0-3.0-1.250,,key,null,16.666,720,373,,,,,,,,
919.7,arrowleft,psychophysics,513,1532671,0.0-3.0-0.251,,key,arrowleft,16.666,720,373,252,10,-1,30,35,25,35,TRUE
null,null,psychophysics,514,1533677,0.0-3.0-1.251,,key,null,16.666,720,373,,,,,,,,
2888.9, ,html-keyboard-response,515,1536567,0.0-3.0-2.251-0.251,"<div style=""color: white; text-align: center; vertical-align: top; display: inline-block; width: 800px; margin: auto""><p>You have completed 90% of the trials. You are on block 10 of 10. <br>Good job! Take a break if you need to.</p><p>Press any key to continue the experiment.</p></div>",,,,,,,,,,,,,
854.1,arrowleft,psychophysics,516,1538435,0.0-3.0-0.252,,key,arrowleft,16.666,720,373,253,10,1,20,35,25,35,FALSE
null,null,psychophysics,517,1539444,0.0-3.0-1.252,,key,null,16.666,720,373,,,,,,,,
921.2,arrowleft,psychophysics,518,1540368,0.0-3.0-0.253,,key,arrowleft,16.666,720,373,254,10,1,24,15,25,35,FALSE
null,null,psychophysics,519,1541372,0.0-3.0-1.253,,key,null,16.666,720,373,,,,,,,,
819,arrowleft,psychophysics,520,1542193,0.0-3.0-0.254,,key,arrowleft,16.666,720,373,255,10,1,23,35,25,35,FALSE
null,null,psychophysics,521,1543198,0.0-3.0-1.254,,key,null,16.666,720,373,,,,,,,,
8065.9,arrowright,psychophysics,522,1551269,0.0-3.0-0.255,,key,arrowright,16.68095652,720,373,256,10,-1,20,15,25,35,FALSE
null,null,psychophysics,523,1552273,0.0-3.0-1.255,,key,null,16.666,720,373,,,,,,,,
40623,arrowright,psychophysics,524,1592901,0.0-3.0-0.256,,key,arrowright,16.66643883,720,373,257,10,1,27,35,25,35,TRUE
null,null,psychophysics,525,1593909,0.0-3.0-1.256,,key,null,16.666,720,373,,,,,,,,
1901.3,arrowright,psychophysics,526,1595813,0.0-3.0-0.257,,key,arrowright,16.666,720,373,258,10,1,25,15,25,35,TRUE
null,null,psychophysics,527,1596823,0.0-3.0-1.257,,key,null,16.666,720,373,,,,,,,,
670,arrowleft,psychophysics,528,1597496,0.0-3.0-0.258,,key,arrowleft,16.666,720,373,259,10,-1,30,15,25,35,TRUE
null,null,psychophysics,529,1598504,0.0-3.0-1.258,,key,null,16.666,720,373,,,,,,,,
1128.4,arrowleft,psychophysics,530,1599635,0.0-3.0-0.259,,key,arrowleft,16.666,720,373,260,10,-1,30,35,25,35,TRUE
null,null,psychophysics,531,1600640,0.0-3.0-1.259,,key,null,16.666,720,373,,,,,,,,
712.1,arrowright,psychophysics,532,1601354,0.0-3.0-0.260,,key,arrowright,16.666,720,373,261,10,-1,20,35,25,35,FALSE
null,null,psychophysics,533,1602358,0.0-3.0-1.260,,key,null,16.666,720,373,,,,,,,,
3288.6,arrowright,psychophysics,534,1605650,0.0-3.0-0.261,,key,arrowright,16.666,720,373,262,10,1,25,15,25,35,TRUE
null,null,psychophysics,535,1606656,0.0-3.0-1.261,,key,null,16.666,720,373,,,,,,,,
832.5,arrowright,psychophysics,536,1607491,0.0-3.0-0.262,,key,arrowright,16.666,720,373,263,10,1,26,15,25,35,TRUE
null,null,psychophysics,537,1608494,0.0-3.0-1.262,,key,null,16.666,720,373,,,,,,,,
699.7,arrowright,psychophysics,538,1609196,0.0-3.0-0.263,,key,arrowright,16.6787561,720,373,264,10,-1,24,35,25,35,FALSE
null,null,psychophysics,539,1610199,0.0-3.0-1.263,,key,null,16.666,720,373,,,,,,,,
932.7,arrowright,psychophysics,540,1611133,0.0-3.0-0.264,,key,arrowright,16.666,720,373,265,10,-1,24,35,25,35,FALSE
null,null,psychophysics,541,1612142,0.0-3.0-1.264,,key,null,16.666,720,373,,,,,,,,
893.4,arrowright,psychophysics,542,1613038,0.0-3.0-0.265,,key,arrowright,16.666,720,373,266,10,1,26,15,25,35,TRUE
null,null,psychophysics,543,1614042,0.0-3.0-1.265,,key,null,16.666,720,373,,,,,,,,
703,arrowright,psychophysics,544,1614748,0.0-3.0-0.266,,key,arrowright,16.666,720,373,267,10,-1,23,35,25,35,FALSE
null,null,psychophysics,545,1615752,0.0-3.0-1.266,,key,null,16.666,720,373,,,,,,,,
1094.6,arrowleft,psychophysics,546,1616849,0.0-3.0-0.267,,key,arrowleft,16.666,720,373,268,10,1,20,35,25,35,FALSE
null,null,psychophysics,547,1617856,0.0-3.0-1.267,,key,null,16.666,720,373,,,,,,,,
1464.3,arrowleft,psychophysics,548,1619324,0.0-3.0-0.268,,key,arrowleft,16.666,720,373,269,10,1,24,35,25,35,FALSE
null,null,psychophysics,549,1620325,0.0-3.0-1.268,,key,null,16.666,720,373,,,,,,,,
766.5,arrowright,psychophysics,550,1621095,0.0-3.0-0.269,,key,arrowright,16.666,720,373,270,10,-1,26,15,25,35,FALSE
null,null,psychophysics,551,1622104,0.0-3.0-1.269,,key,null,16.666,720,373,,,,,,,,
1239.3,arrowleft,psychophysics,552,1623347,0.0-3.0-0.270,,key,arrowleft,16.666,720,373,271,10,1,23,15,25,35,FALSE
null,null,psychophysics,553,1624352,0.0-3.0-1.270,,key,null,16.666,720,373,,,,,,,,
823.7,arrowright,psychophysics,554,1625178,0.0-3.0-0.271,,key,arrowright,16.666,720,373,272,10,1,30,15,25,35,TRUE
null,null,psychophysics,555,1626184,0.0-3.0-1.271,,key,null,16.666,720,373,,,,,,,,
1288,arrowright,psychophysics,556,1627474,0.0-3.0-0.272,,key,arrowright,16.666,720,373,273,10,1,27,35,25,35,TRUE
null,null,psychophysics,557,1628476,0.0-3.0-1.272,,key,null,16.666,720,373,,,,,,,,
1273.8,arrowleft,psychophysics,558,1629753,0.0-3.0-0.273,,key,arrowleft,16.67313333,720,373,274,10,-1,25,15,25,35,TRUE
null,null,psychophysics,559,1630758,0.0-3.0-1.273,,key,null,16.666,720,373,,,,,,,,
1328.1,arrowleft,psychophysics,560,1632089,0.0-3.0-0.274,,key,arrowleft,16.666,720,373,275,10,-1,27,15,25,35,TRUE
null,null,psychophysics,561,1633091,0.0-3.0-1.274,,key,null,16.666,720,373,,,,,,,,
1390.3,arrowleft,psychophysics,562,1634485,0.0-3.0-0.275,,key,arrowleft,16.666,720,373,276,10,-1,23,35,25,35,TRUE
null,null,psychophysics,563,1635487,0.0-3.0-1.275,,key,null,16.666,720,373,,,,,,,,
1191.5,arrowleft,psychophysics,564,1636681,0.0-3.0-0.276,,key,arrowleft,16.666,720,373,277,10,1,24,15,25,35,FALSE
null,null,psychophysics,565,1637689,0.0-3.0-1.276,,key,null,16.666,720,373,,,,,,,,
1093.9,arrowleft,psychophysics,566,1638785,0.0-3.0-0.277,,key,arrowleft,16.666,720,373,278,10,-1,24,35,25,35,TRUE
null,null,psychophysics,567,1639792,0.0-3.0-1.277,,key,null,16.666,720,373,,,,,,,,
1326.9,arrowleft,psychophysics,568,1641122,0.0-3.0-0.278,,key,arrowleft,16.666,720,373,279,10,-1,27,35,25,35,TRUE
null,null,psychophysics,569,1642124,0.0-3.0-1.278,,key,null,16.666,720,373,,,,,,,,
894.4,arrowleft,psychophysics,570,1643022,0.0-3.0-0.279,,key,arrowleft,16.666,720,373,280,11,1,20,35,25,35,FALSE
null,null,psychophysics,571,1644025,0.0-3.0-1.279,,key,null,16.666,720,373,,,,,,,,