"rt","response","trial_type","trial_index","time_elapsed","internal_node_id","stimulus","response_type","key_press","avg_frame_time","center_x","center_y","trial","block","test_pos","test_inner_radius","test_outer_radius","ref_inner_radius","ref_outer_radius","test_bigger"
"6180.60000000149","{""p_id"":""3500"",""age"":""20"",""handedness"":""right"",""sex"":""female"",""other_sex"":""""}","survey-html-form","0","6186","0.0-0.0","","","","","","","","","","","","","",""
"1263.8999999985099"," ","html-keyboard-response","1","7451","0.0-1.0","<p style=""color: white"">Welcome to the Size Judgment Experiment. <br>There will be 10 blocks in this experiment. <br>There will be 28 trials in each block. <br>You will be given a chance to take a break between blocks. <br>Press any key to start the experiment.</p>","","","","","","","","","","","","",""
"4840.099999997765","arrowleft","psychophysics","2","12310","0.0-2.0","","key","arrowleft","16.67047766323024","640","360.5","","","","","","","",""
"6979.10000000149","arrowright","psychophysics","3","19294","0.0-3.0-0.0","","key","arrowright","16.6690980861244","640","360.5","1","1","1","27","15","25","35","true"
"null","null","psychophysics","4","20299","0.0-3.0-1.0","","key","null","16.673999999999992","640","360.5","","","","","","","",""
"1702.2000000029802","arrowright","psychophysics","5","22008","0.0-3.0-0.1","","key","arrowright","16.673999999999996","640","360.5","2","1","-1","20","35","25","35","false"
"null","null","psychophysics","6","23009","0.0-3.0-1.1","","key","null","16.674000000000056","640","360.5","","","","","","","",""
"1296.0999999977648","arrowright","psychophysics","7","24308","0.0-3.0-0.2","","key","arrowright","16.674000000000014","640","360.5","3","1","1","25","15","25","35","true"
"null","null","psychophysics","8","25313","0.0-3.0-1.2","","key","null","16.673999999999992","640","360.5","","","","","","","",""
"3005.400000002235","arrowleft","psychophysics","9","28321","0.0-3.0-0.3","","key","arrowleft","16.674000000000003","640","360.5","4","1","1","20","15","25","35","false"
"null","null","psychophysics","10","29327","0.0-3.0-1.3","","key","null","16.67400000000004","640","360.5","","","","","","","",""
"5036","arrowleft","psychophysics","11","34366","0.0-3.0-0.4","","key","arrowleft","16.674","640","360.5","5","1","1","24","35","25","35","false"
"null","null","psychophysics","12","35368","0.0-3.0-1.4","","key","null","16.674000000000056","640","360.5","","","","","","","",""
"3140.199999999255","arrowright","psychophysics","13","38511","0.0-3.0-0.5","","key","arrowright","16.67769518716577","640","360.5","6","1","1","24","15","25","35","true"
"null","null","psychophysics","14","39512","0.0-3.0-1.5","","key","null","16.67400000000004","640","360.5","","","","","","","",""
"1378","arrowleft","psychophysics","15","40894","0.0-3.0-0.6","","key","arrowleft","16.673999999999968","640","360.5","7","1","-1","26","35","25","35","true"
"null","null","psychophysics","16","41896","0.0-3.0-1.6","","key","null","16.67400000000004","640","360.5","","","","","","","",""
"916.5","arrowleft","psychophysics","17","42815","0.0-3.0-0.7","","key","arrowleft","16.67400000000001","640","360.5","8","1","-1","30","35","25","35","true"
"null","null","psychophysics","18","43821","0.0-3.0-1.7","","key","null","16.674000000000056","640","360.5","","","","","","","",""
"2064.5","arrowright","psychophysics","19","45888","0.0-3.0-0.8","","key","arrowright","16.674000000000014","640","360.5","9","1","1","26","35","25","35","true"
"null","null","psychophysics","20","46890","0.0-3.0-1.8","","key","null","16.673999999999932","640","360.5","","","","","","","",""
"2277.60000000149","arrowright","psychophysics","21","49170","0.0-3.0-0.9","","key","arrowright","16.67400000000003","640","360.5","10","1","-1","24","35","25","35","false"
"null","null","psychophysics","22","50175","0.0-3.0-1.9","","key","null","16.673999999999932","640","360.5","","","","","","","",""
"1743.6000000014901","arrowleft","psychophysics","23","51922","0.0-3.0-0.10","","key","arrowleft","16.673999999999978","640","360.5","11","1","1","20","35","25","35","false"
"null","null","psychophysics","24","52923","0.0-3.0-1.10","","key","null","16.674000000000056","640","360.5","","","","","","","",""
"1338.2999999970198","arrowleft","psychophysics","25","54263","0.0-3.0-0.11","","key","arrowleft","16.67399999999999","640","360.5","12","1","-1","23","15","25","35","true"
"null","null","psychophysics","26","55267","0.0-3.0-1.11","","key","null","16.673999999999932","640","360.5","","","","","","","",""
"1048.1000000014901","arrowleft","psychophysics","27","56321","0.0-3.0-0.12","","key","arrowleft","16.673999999999992","640","360.5","13","1","-1","27","15","25","35","true"
"null","null","psychophysics","28","57322","0.0-3.0-1.12","","key","null","16.673999999999932","640","360.5","","","","","","","",""
"1517.800000000745","arrowright","psychophysics","29","58842","0.0-3.0-0.13","","key","arrowright","16.681544444444526","640","360.5","14","1","1","25","15","25","35","true"
"null","null","psychophysics","30","59848","0.0-3.0-1.13","","key","null","16.673999999999932","640","360.5","","","","","","","",""
"789.3000000007451","arrowright","psychophysics","31","60640","0.0-3.0-0.14","","key","arrowright","16.673999999999996","640","360.5","15","1","-1","20","35","25","35","false"
"null","null","psychophysics","32","61644","0.0-3.0-1.14","","key","null","16.674000000000056","640","360.5","","","","","","","",""
"2147","arrowleft","psychophysics","33","63792","0.0-3.0-0.15","","key","arrowleft","16.674000000000035","640","360.5","16","1","-1","27","35","25","35","true"
"null","null","psychophysics","34","64794","0.0-3.0-1.15","","key","null","16.673999999999932","640","360.5","","","","","","","",""
"1731.8999999985099","arrowleft","psychophysics","35","66529","0.0-3.0-0.16","","key","arrowleft","16.673999999999985","640","360.5","17","1","-1","27","35","25","35","true"
"null","null","psychophysics","36","67535","0.0-3.0-1.16","","key","null","16.674000000000056","640","360.5","","","","","","","",""
"1527.7000000029802","arrowright","psychophysics","37","69066","0.0-3.0-0.17","","key","arrowright","16.674000000000028","640","360.5","18","1","1","27","15","25","35","true"
"null","null","psychophysics","38","70070","0.0-3.0-1.17","","key","null","16.674000000000056","640","360.5","","","","","","","",""
"1059.5","arrowleft","psychophysics","39","71132","0.0-3.0-0.18","","key","arrowleft","16.673999999999992","640","360.5","19","1","-1","27","15","25","35","true"
"null","null","psychophysics","40","72133","0.0-3.0-1.18","","key","null","16.674000000000056","640","360.5","","","","","","","",""
"2173.699999999255","arrowright","psychophysics","41","74309","0.0-3.0-0.19","","key","arrowright","16.67399999999997","640","360.5","20","1","1","27","35","25","35","true"
"null","null","psychophysics","42","75311","0.0-3.0-1.19","","key","null","16.674000000000056","640","360.5","","","","","","","",""
"1127.199999999255","arrowright","psychophysics","43","76444","0.0-3.0-0.20","","key","arrowright","16.67399999999994","640","360.5","21","1","1","26","15","25","35","true"
"null","null","psychophysics","44","77446","0.0-3.0-1.20","","key","null","16.67400000000004","640","360.5","","","","","","","",""
"1054.699999999255","arrowleft","psychophysics","45","78504","0.0-3.0-0.21","","key","arrowleft","16.685080645161385","640","360.5","22","1","1","24","35","25","35","false"
"null","null","psychophysics","46","79506","0.0-3.0-1.21","","key","null","16.674000000000056","640","360.5","","","","","","","",""
"747","arrowright","psychophysics","47","80256","0.0-3.0-0.22","","key","arrowright","16.67400000000006","640","360.5","23","1","1","30","15","25","35","true"
"null","null","psychophysics","48","81257","0.0-3.0-1.22","","key","null","16.673999999999808","640","360.5","","","","","","","",""
"1899","arrowleft","psychophysics","49","83159","0.0-3.0-0.23","","key","arrowleft","16.6740000000001","640","360.5","24","1","-1","25","35","25","35","true"
"null","null","psychophysics","50","84164","0.0-3.0-1.23","","key","null","16.674000000000056","640","360.5","","","","","","","",""
"884","arrowleft","psychophysics","51","85054","0.0-3.0-0.24","","key","arrowleft","16.673999999999893","640","360.5","25","1","-1","25","15","25","35","true"
"null","null","psychophysics","52","86058","0.0-3.0-1.24","","key","null","16.674000000000056","640","360.5","","","","","","","",""
"2196.400000002235","arrowright","psychophysics","53","88257","0.0-3.0-0.25","","key","arrowright","16.673999999999957","640","360.5","26","1","-1","25","35","25","35","false"
"null","null","psychophysics","54","89258","0.0-3.0-1.25","","key","null","16.674000000000056","640","360.5","","","","","","","",""
"832.5","arrowright","psychophysics","55","90094","0.0-3.0-0.26","","key","arrowright","16.67399999999996","640","360.5","27","1","1","30","35","25","35","true"
"null","null","psychophysics","56","91096","0.0-3.0-1.26","","key","null","16.674000000000056","640","360.5","","","","","","","",""
"1078.699999999255","arrowright","psychophysics","57","92177","0.0-3.0-0.27","","key","arrowright","16.673999999999978","640","360.5","28","2","-1","20","15","25","35","false"
"null","null","psychophysics","58","93179","0.0-3.0-1.27","","key","null","16.674000000000056","640","360.5","","","","","","","",""
"3245.300000000745","arrowleft","html-keyboard-response","59","96425","0.0-3.0-2.27-0.27","<div style=""color: white; text-align: center; vertical-align: top; display: inline-block; width: 800px; margin: auto""><p>You have completed 10% of the trials. You are on block 2 of 10. <br>Good job! Take a break if you need to.</p><p>Press any key to continue the experiment.</p></div>","","","","","","","","","","","","",""
"672.2000000029802","arrowright","psychophysics","60","98103","0.0-3.0-0.28","","key","arrowright","16.69017500000009","640","360.5","29","2","-1","20","35","25","35","false"
"null","null","psychophysics","61","99106","0.0-3.0-1.28","","key","null","16.674000000000056","640","360.5","","","","","","","",""
"692.8000000007451","arrowleft","psychophysics","62","99804","0.0-3.0-0.29","","key","arrowleft","16.674000000000134","640","360.5","30","2","-1","24","15","25","35","true"
"null","null","psychophysics","63","100807","0.0-3.0-1.29","","key","null","16.67400000000004","640","360.5","","","","","","","",""
"471","arrowleft","psychophysics","64","101283","0.0-3.0-0.30","","key","arrowleft","16.67399999999961","640","360.5","31","2","-1","25","15","25","35","true"
"null","null","psychophysics","65","102284","0.0-3.0-1.30","","key","null","16.961482758620495","640","360.5","","","","","","","",""
"911.0999999977648","arrowright","psychophysics","66","103197","0.0-3.0-0.31","","key","arrowright","16.674000000000145","640","360.5","32","2","1","26","15","25","35","true"
"null","null","psychophysics","67","104201","0.0-3.0-1.31","","key","null","16.674000000000056","640","360.5","","","","","","","",""
"772.8999999985099","arrowleft","psychophysics","68","104980","0.0-3.0-0.32","","key","arrowleft","16.674000000000017","640","360.5","33","2","-1","27","15","25","35","true"
"null","null","psychophysics","69","105984","0.0-3.0-1.32","","key","null","16.674000000000056","640","360.5","","","","","","","",""
"815.8000000007451","arrowright","psychophysics","70","106802","0.0-3.0-0.33","","key","arrowright","16.673999999999978","640","360.5","34","2","1","27","35","25","35","true"
"null","null","psychophysics","71","107807","0.0-3.0-1.33","","key","null","16.673999999999808","640","360.5","","","","","","","",""
"892.5999999977648","arrowright","psychophysics","72","108702","0.0-3.0-0.34","","key","arrowright","16.673999999999893","640","360.5","35","2","-1","26","35","25","35","false"
"null","null","psychophysics","73","109703","0.0-3.0-1.34","","key","null","16.674000000000056","640","360.5","","","","","","","",""
"849.3999999985099","arrowleft","psychophysics","74","110555","0.0-3.0-0.35","","key","arrowleft","16.673999999999943","640","360.5","36","2","-1","30","35","25","35","true"
"null","null","psychophysics","75","111557","0.0-3.0-1.35","","key","null","16.674000000000056","640","360.5","","","","","","","",""
"1427.6000000014901","arrowleft","psychophysics","76","112987","0.0-3.0-0.36","","key","arrowleft","16.673999999999925","640","360.5","37","2","1","20","15","25","35","false"
"null","null","psychophysics","77","113988","0.0-3.0-1.36","","key","null","16.674000000000056","640","360.5","","","","","","","",""
"1060.199999999255","arrowleft","psychophysics","78","115051","0.0-3.0-0.37","","key","arrowleft","16.673999999999992","640","360.5","38","2","1","24","35","25","35","false"
"null","null","psychophysics","79","116053","0.0-3.0-1.37","","key","null","16.674000000000056","640","360.5","","","","","","","",""
"2170.89999999851","arrowleft","psychophysics","80","118226","0.0-3.0-0.38","","key","arrowleft","16.679596899224848","640","360.5","39","2","1","25","35","25","35","false"
"null","null","psychophysics","81","119232","0.0-3.0-1.38","","key","null","16.674000000000056","640","360.5","","","","","","","",""
"618","arrowleft","psychophysics","82","119856","0.0-3.0-0.39","","key","arrowleft","16.673999999999854","640","360.5","40","2","-1","30","15","25","35","true"
"null","null","psychophysics","83","120858","0.0-3.0-1.39","","key","null","16.674000000000056","640","360.5","","","","","","","",""
"889.3999999985099","arrowright","psychophysics","84","121750","0.0-3.0-0.40","","key","arrowright","16.673999999999907","640","360.5","41","2","1","27","15","25","35","true"
"null","null","psychophysics","85","122752","0.0-3.0-1.40","","key","null","16.674000000000056","640","360.5","","","","","","","",""
"835.3000000007451","arrowleft","psychophysics","86","123592","0.0-3.0-0.41","","key","arrowleft","16.673999999999943","640","360.5","42","2","-1","26","15","25","35","true"
"null","null","psychophysics","87","124593","0.0-3.0-1.41","","key","null","16.673999999999808","640","360.5","","","","","","","",""
"3741.89999999851","arrowleft","psychophysics","88","128338","0.0-3.0-0.42","","key","arrowleft","16.67400000000005","640","360.5","43","2","1","23","15","25","35","false"
"null","null","psychophysics","89","129342","0.0-3.0-1.42","","key","null","16.67400000000004","640","360.5","","","","","","","",""
"988.1000000014901","arrowright","psychophysics","90","130332","0.0-3.0-0.43","","key","arrowright","16.673999999999822","640","360.5","44","2","1","30","15","25","35","true"
"null","null","psychophysics","91","131334","0.0-3.0-1.43","","key","null","16.674000000000056","640","360.5","","","","","","","",""
"1664.7999999970198","arrowright","psychophysics","92","133001","0.0-3.0-0.44","","key","arrowright","16.67399999999995","640","360.5","45","2","-1","24","35","25","35","false"
"null","null","psychophysics","93","134006","0.0-3.0-1.44","","key","null","16.674000000000056","640","360.5","","","","","","","",""
"959.1999999992549","arrowright","psychophysics","94","134971","0.0-3.0-0.45","","key","arrowright","16.67400000000009","640","360.5","46","2","1","30","35","25","35","true"
"null","null","psychophysics","95","135974","0.0-3.0-1.45","","key","null","16.674000000000056","640","360.5","","","","","","","",""
"1194.5","arrowright","psychophysics","96","137174","0.0-3.0-0.46","","key","arrowright","16.67399999999989","640","360.5","47","2","1","26","35","25","35","true"
"null","null","psychophysics","97","138175","0.0-3.0-1.46","","key","null","16.685644067796755","640","360.5","","","","","","","",""
"1006.5999999977648","arrowleft","psychophysics","98","139188","0.0-3.0-0.47","","key","arrowleft","16.67400000000004","640","360.5","48","2","-1","25","15","25","35","true"
"null","null","psychophysics","99","140189","0.0-3.0-1.47","","key","null","16.674000000000056","640","360.5","","","","","","","",""
"962.8000000007451","arrowright","psychophysics","100","141155","0.0-3.0-0.48","","key","arrowright","16.67400000000009","640","360.5","49","2","1","26","15","25","35","true"
"null","null","psychophysics","101","142156","0.0-3.0-1.48","","key","null","16.674000000000056","640","360.5","","","","","","","",""
"691.8999999985099","arrowleft","psychophysics","102","142851","0.0-3.0-0.49","","key","arrowleft","16.67399999999978","640","360.5","50","2","-1","30","15","25","35","true"
"null","null","psychophysics","103","143855","0.0-3.0-1.49","","key","null","16.674000000000056","640","360.5","","","","","","","",""
"695.1999999992549","arrowright","psychophysics","104","144552","0.0-3.0-0.50","","key","arrowright","16.67399999999978","640","360.5","51","2","-1","20","35","25","35","false"
"null","null","psychophysics","105","145554","0.0-3.0-1.50","","key","null","16.674000000000056","640","360.5","","","","","","","",""
"1035.699999999255","arrowright","psychophysics","106","146592","0.0-3.0-0.51","","key","arrowright","16.674000000000024","640","360.5","52","2","-1","27","35","25","35","false"
"null","null","psychophysics","107","147598","0.0-3.0-1.51","","key","null","16.674000000000056","640","360.5","","","","","","","",""
"664.5999999977648","arrowleft","psychophysics","108","148268","0.0-3.0-0.52","","key","arrowleft","16.673999999999797","640","360.5","53","2","-1","26","15","25","35","true"
"null","null","psychophysics","109","149274","0.0-3.0-1.52","","key","null","16.674000000000056","640","360.5","","","","","","","",""
"909.8999999985099","arrowright","psychophysics","110","150187","0.0-3.0-0.53","","key","arrowright","16.674000000000145","640","360.5","54","2","-1","23","35","25","35","false"
"null","null","psychophysics","111","151188","0.0-3.0-1.53","","key","null","16.674000000000056","640","360.5","","","","","","","",""
"848.0999999977648","arrowleft","psychophysics","112","152039","0.0-3.0-0.54","","key","arrowleft","16.674000000000234","640","360.5","55","2","1","23","35","25","35","false"
"null","null","psychophysics","113","153041","0.0-3.0-1.54","","key","null","16.674000000000056","640","360.5","","","","","","","",""
"1088.1000000014901","arrowleft","psychophysics","114","154132","0.0-3.0-0.55","","key","arrowleft","16.673999999999978","640","360.5","56","3","-1","24","15","25","35","true"
"null","null","psychophysics","115","155134","0.0-3.0-1.55","","key","null","16.674000000000056","640","360.5","","","","","","","",""
"1191.3999999985099","arrowleft","html-keyboard-response","116","156327","0.0-3.0-2.55-0.55","<div style=""color: white; text-align: center; vertical-align: top; display: inline-block; width: 800px; margin: auto""><p>You have completed 20% of the trials. You are on block 3 of 10. <br>Good job! Take a break if you need to.</p><p>Press any key to continue the experiment.</p></div>","","","","","","","","","","","","",""
"1085.7000000029802","arrowright","psychophysics","117","158418","0.0-3.0-0.56","","key","arrowright","16.68453846153839","640","360.5","57","3","-1","20","15","25","35","false"
"null","null","psychophysics","118","159420","0.0-3.0-1.56","","key","null","16.67400000000004","640","360.5","","","","","","","",""
"834.3999999985099","arrowleft","psychophysics","119","160259","0.0-3.0-0.57","","key","arrowleft","16.674000000000255","640","360.5","58","3","-1","30","35","25","35","true"
"null","null","psychophysics","120","161263","0.0-3.0-1.57","","key","null","16.673999999999563","640","360.5","","","","","","","",""
"759.8000000007451","arrowleft","psychophysics","121","162025","0.0-3.0-0.58","","key","arrowleft","17.052954545454917","640","360.5","59","3","-1","23","15","25","35","true"
"null","null","psychophysics","122","163026","0.0-3.0-1.58","","key","null","16.674000000000056","640","360.5","","","","","","","",""
"1044.7999999970198","arrowleft","psychophysics","123","164073","0.0-3.0-0.59","","key","arrowleft","16.674000000000024","640","360.5","60","3","-1","24","15","25","35","true"
"null","null","psychophysics","124","165076","0.0-3.0-1.59","","key","null","16.67400000000004","640","360.5","","","","","","","",""
"1066.3999999985099","arrowleft","psychophysics","125","166145","0.0-3.0-0.60","","key","arrowleft","16.673999999999992","640","360.5","61","3","-1","25","15","25","35","true"
"null","null","psychophysics","126","167146","0.0-3.0-1.60","","key","null","16.674000000000056","640","360.5","","","","","","","",""
"1134.6000000014901","arrowleft","psychophysics","127","168283","0.0-3.0-0.61","","key","arrowleft","16.67399999999994","640","360.5","62","3","-1","30","35","25","35","true"
"null","null","psychophysics","128","169285","0.0-3.0-1.61","","key","null","16.674000000000056","640","360.5","","","","","","","",""
"1711","arrowleft","psychophysics","129","170998","0.0-3.0-0.62","","key","arrowleft","16.673999999999925","640","360.5","63","3","1","24","15","25","35","false"
"null","null","psychophysics","130","172000","0.0-3.0-1.62","","key","null","16.674000000000056","640","360.5","","","","","","","",""
"1446.300000000745","arrowleft","psychophysics","131","173449","0.0-3.0-0.63","","key","arrowleft","16.674000000000085","640","360.5","64","3","1","26","35","25","35","false"
"null","null","psychophysics","132","174451","0.0-3.0-1.63","","key","null","16.674000000000056","640","360.5","","","","","","","",""
"1917.199999999255","arrowright","psychophysics","133","176370","0.0-3.0-0.64","","key","arrowright","16.673999999999836","640","360.5","65","3","1","26","35","25","35","true"
"null","null","psychophysics","134","177371","0.0-3.0-1.64","","key","null","16.674000000000056","640","360.5","","","","","","","",""
"738.8000000007451","arrowleft","psychophysics","135","178113","0.0-3.0-0.65","","key","arrowleft","16.689069767441968","640","360.5","66","3","-1","25","15","25","35","true"
"null","null","psychophysics","136","179115","0.0-3.0-1.65","","key","null","16.67400000000004","640","360.5","","","","","","","",""
"905.4000000022352","arrowleft","psychophysics","137","180024","0.0-3.0-0.66","","key","arrowleft","16.674000000000166","640","360.5","67","3","-1","26","15","25","35","true"
"null","null","psychophysics","138","181025","0.0-3.0-1.66","","key","null","16.674000000000056","640","360.5","","","","","","","",""
"1869","arrowright","psychophysics","139","182897","0.0-3.0-0.67","","key","arrowright","16.673999999999854","640","360.5","68","3","1","25","35","25","35","true"
"null","null","psychophysics","140","183899","0.0-3.0-1.67","","key","null","16.67400000000004","640","360.5","","","","","","","",""
"1260.300000000745","arrowleft","psychophysics","141","185163","0.0-3.0-0.68","","key","arrowleft","16.674000000000248","640","360.5","69","3","-1","23","15","25","35","true"
"null","null","psychophysics","142","186169","0.0-3.0-1.68","","key","null","16.67400000000004","640","360.5","","","","","","","",""
"2920.900000002235","arrowright","psychophysics","143","189093","0.0-3.0-0.69","","key","arrowright","16.673999999999904","640","360.5","70","3","-1","20","15","25","35","false"
"null","null","psychophysics","144","190095","0.0-3.0-1.69","","key","null","16.674000000000056","640","360.5","","","","","","","",""
"2028.699999999255","arrowleft","psychophysics","145","192126","0.0-3.0-0.70","","key","arrowleft","16.67400000000003","640","360.5","71","3","1","25","35","25","35","false"
"null","null","psychophysics","146","193127","0.0-3.0-1.70","","key","null","16.674000000000056","640","360.5","","","","","","","",""
"980.3000000007451","arrowleft","psychophysics","147","194110","0.0-3.0-0.71","","key","arrowleft","16.67400000000007","640","360.5","72","3","-1","25","15","25","35","true"
"null","null","psychophysics","148","195111","0.0-3.0-1.71","","key","null","16.674000000000056","640","360.5","","","","","","","",""
"1020.5","arrowleft","psychophysics","149","196134","0.0-3.0-0.72","","key","arrowleft","16.67400000000004","640","360.5","73","3","1","20","35","25","35","false"
"null","null","psychophysics","150","197138","0.0-3.0-1.72","","key","null","16.674000000000056","640","360.5","","","","","","","",""
"2335.400000002235","arrowleft","psychophysics","151","199479","0.0-3.0-0.73","","key","arrowleft","16.679171428571447","640","360.5","74","3","-1","26","35","25","35","true"
"null","null","psychophysics","152","200480","0.0-3.0-1.73","","key","null","16.674000000000056","640","360.5","","","","","","","",""
"1035.8999999985099","arrowleft","psychophysics","153","201518","0.0-3.0-0.74","","key","arrowleft","16.674000000000024","640","360.5","75","3","-1","25","15","25","35","true"
"null","null","psychophysics","154","202523","0.0-3.0-1.74","","key","null","16.673999999999563","640","360.5","","","","","","","",""
"1764.7000000029802","arrowleft","psychophysics","155","204292","0.0-3.0-0.75","","key","arrowleft","16.6739999999999","640","360.5","76","3","1","25","35","25","35","false"
"null","null","psychophysics","156","205296","0.0-3.0-1.75","","key","null","16.67400000000004","640","360.5","","","","","","","",""
"2718.2000000029802","arrowright","psychophysics","157","208017","0.0-3.0-0.76","","key","arrowright","16.673999999999968","640","360.5","77","3","1","25","15","25","35","true"
"null","null","psychophysics","158","209018","0.0-3.0-1.76","","key","null","16.674000000000056","640","360.5","","","","","","","",""
"678.0999999977648","arrowleft","psychophysics","159","209699","0.0-3.0-0.77","","key","arrowleft","16.673999999999797","640","360.5","78","3","-1","30","15","25","35","true"
"null","null","psychophysics","160","210700","0.0-3.0-1.77","","key","null","16.674000000000056","640","360.5","","","","","","","",""
"1283.699999999255","arrowleft","psychophysics","161","211986","0.0-3.0-0.78","","key","arrowleft","16.674000000000216","640","360.5","79","3","-1","26","35","25","35","true"
"null","null","psychophysics","162","212992","0.0-3.0-1.78","","key","null","16.674000000000056","640","360.5","","","","","","","",""
"799.6000000014901","arrowleft","psychophysics","163","213793","0.0-3.0-0.79","","key","arrowleft","16.673999999999687","640","360.5","80","3","-1","27","35","25","35","true"
"null","null","psychophysics","164","214795","0.0-3.0-1.79","","key","null","16.674000000000056","640","360.5","","","","","","","",""
"856.6000000014901","arrowright","psychophysics","165","215654","0.0-3.0-0.80","","key","arrowright","16.67400000000021","640","360.5","81","3","1","27","35","25","35","true"
"null","null","psychophysics","166","216656","0.0-3.0-1.80","","key","null","16.674000000000056","640","360.5","","","","","","","",""
"647","arrowleft","psychophysics","167","217305","0.0-3.0-0.81","","key","arrowleft","16.673999999999836","640","360.5","82","3","-1","26","15","25","35","true"
"null","null","psychophysics","168","218311","0.0-3.0-1.81","","key","null","16.68550847457639","640","360.5","","","","","","","",""
"935.4000000022352","arrowleft","psychophysics","169","219249","0.0-3.0-0.82","","key","arrowleft","16.673999999999598","640","360.5","83","3","1","23","35","25","35","false"
"null","null","psychophysics","170","220251","0.0-3.0-1.82","","key","null","16.674000000000056","640","360.5","","","","","","","",""
"940.9000000022352","arrowleft","psychophysics","171","221198","0.0-3.0-0.83","","key","arrowleft","16.67400000000011","640","360.5","84","4","-1","27","35","25","35","true"
"null","null","psychophysics","172","222201","0.0-3.0-1.83","","key","null","16.674000000000056","640","360.5","","","","","","","",""
"1140.7000000029802","arrowleft","html-keyboard-response","173","223343","0.0-3.0-2.83-0.83","<div style=""color: white; text-align: center; vertical-align: top; display: inline-block; width: 800px; margin: auto""><p>You have completed 30% of the trials. You are on block 4 of 10. <br>Good job! Take a break if you need to.</p><p>Press any key to continue the experiment.</p></div>","","","","","","","","","","","","",""
"1191.6000000014901","arrowright","psychophysics","174","225541","0.0-3.0-0.84","","key","arrowright","16.67400000000028","640","360.5","85","4","1","27","35","25","35","true"
"null","null","psychophysics","175","226542","0.0-3.0-1.84","","key","null","16.673999999999563","640","360.5","","","","","","","",""
"891.5","arrowright","psychophysics","176","227436","0.0-3.0-0.85","","key","arrowright","16.67399999999963","640","360.5","86","4","1","27","15","25","35","true"
"null","null","psychophysics","177","228438","0.0-3.0-1.85","","key","null","16.67400000000004","640","360.5","","","","","","","",""
"1043.4000000022352","arrowright","psychophysics","178","229485","0.0-3.0-0.86","","key","arrowright","16.674000000000024","640","360.5","87","4","1","24","15","25","35","true"
"null","null","psychophysics","179","230489","0.0-3.0-1.86","","key","null","16.674000000000056","640","360.5","","","","","","","",""
"1627.199999999255","arrowright","psychophysics","180","232120","0.0-3.0-0.87","","key","arrowright","16.673999999999968","640","360.5","88","4","1","23","15","25","35","true"
"null","null","psychophysics","181","233124","0.0-3.0-1.87","","key","null","16.674000000000056","640","360.5","","","","","","","",""
"1703.800000000745","arrowleft","psychophysics","182","234830","0.0-3.0-0.88","","key","arrowleft","16.673999999999925","640","360.5","89","4","-1","20","15","25","35","true"
"null","null","psychophysics","183","235833","0.0-3.0-1.88","","key","null","16.961482758620747","640","360.5","","","","","","","",""
"1000.1999999992549","arrowright","psychophysics","184","236836","0.0-3.0-0.89","","key","arrowright","16.674000000000056","640","360.5","90","4","1","30","15","25","35","true"
"null","null","psychophysics","185","237838","0.0-3.0-1.89","","key","null","16.53706666666694","640","360.5","","","","","","","",""
"1417.2999999970198","arrowright","psychophysics","186","239257","0.0-3.0-0.90","","key","arrowright","16.67399999999976","640","360.5","91","4","1","27","35","25","35","true"
"null","null","psychophysics","187","240259","0.0-3.0-1.90","","key","null","16.674000000000056","640","360.5","","","","","","","",""
"1080.2999999970198","arrowright","psychophysics","188","241342","0.0-3.0-0.91","","key","arrowright","16.673999999999978","640","360.5","92","4","1","24","15","25","35","true"
"null","null","psychophysics","189","242347","0.0-3.0-1.91","","key","null","16.674000000000056","640","360.5","","","","","","","",""
"2476.699999999255","arrowleft","psychophysics","190","244826","0.0-3.0-0.92","","key","arrowleft","16.674000000000053","640","360.5","93","4","1","24","35","25","35","false"
"null","null","psychophysics","191","245828","0.0-3.0-1.92","","key","null","16.674000000000056","640","360.5","","","","","","","",""
"1131.1000000014901","arrowleft","psychophysics","192","246962","0.0-3.0-0.93","","key","arrowleft","16.67399999999994","640","360.5","94","4","1","24","35","25","35","false"
"null","null","psychophysics","193","247963","0.0-3.0-1.93","","key","null","16.674000000000056","640","360.5","","","","","","","",""
"1787","arrowright","psychophysics","194","249753","0.0-3.0-0.94","","key","arrowright","16.674000000000166","640","360.5","95","4","-1","23","35","25","35","false"
"null","null","psychophysics","195","250756","0.0-3.0-1.94","","key","null","16.673999999999563","640","360.5","","","","","","","",""
"2488.199999999255","arrowright","psychophysics","196","253249","0.0-3.0-0.95","","key","arrowright","16.674000000000046","640","360.5","96","4","-1","20","15","25","35","false"
"null","null","psychophysics","197","254251","0.0-3.0-1.95","","key","null","16.674000000000056","640","360.5","","","","","","","",""
"1443.7999999970198","arrowright","psychophysics","198","255697","0.0-3.0-0.96","","key","arrowright","16.674000000000085","640","360.5","97","4","1","27","35","25","35","true"
"null","null","psychophysics","199","256698","0.0-3.0-1.96","","key","null","16.674000000000056","640","360.5","","","","","","","",""
"997.8999999985099","arrowleft","psychophysics","200","257698","0.0-3.0-0.97","","key","arrowleft","16.685576271186328","640","360.5","98","4","-1","27","15","25","35","true"
"null","null","psychophysics","201","258700","0.0-3.0-1.97","","key","null","16.674000000000056","640","360.5","","","","","","","",""
"1019.9000000022352","arrowright","psychophysics","202","259722","0.0-3.0-0.98","","key","arrowright","16.67400000000004","640","360.5","99","4","1","30","15","25","35","true"
"null","null","psychophysics","203","260725","0.0-3.0-1.98","","key","null","16.674000000000056","640","360.5","","","","","","","",""
"991","arrowright","psychophysics","204","261719","0.0-3.0-0.99","","key","arrowright","16.673999999999563","640","360.5","100","4","1","30","35","25","35","true"
"null","null","psychophysics","205","262724","0.0-3.0-1.99","","key","null","16.674000000000056","640","360.5","","","","","","","",""
"3944.800000000745","arrowleft","psychophysics","206","266671","0.0-3.0-0.100","","key","arrowleft","16.674000000000056","640","360.5","101","4","-1","24","35","25","35","true"
"null","null","psychophysics","207","267672","0.0-3.0-1.100","","key","null","16.674000000000056","640","360.5","","","","","","","",""
"690","arrowleft","psychophysics","208","268364","0.0-3.0-0.101","","key","arrowleft","16.674000000000525","640","360.5","102","4","-1","30","15","25","35","true"
"null","null","psychophysics","209","269366","0.0-3.0-1.101","","key","null","16.674000000000056","640","360.5","","","","","","","",""
"3525.89999999851","arrowleft","psychophysics","210","272898","0.0-3.0-0.102","","key","arrowleft","16.673999999999896","640","360.5","103","4","-1","25","35","25","35","true"
"null","null","psychophysics","211","273903","0.0-3.0-1.102","","key","null","16.674000000000056","640","360.5","","","","","","","",""
"592.7999999970198","arrowright","psychophysics","212","274502","0.0-3.0-0.103","","key","arrowright","16.67400000000073","640","360.5","104","4","-1","25","35","25","35","false"
"null","null","psychophysics","213","275503","0.0-3.0-1.103","","key","null","16.67400000000004","640","360.5","","","","","","","",""
"960.6999999992549","arrowleft","psychophysics","214","276468","0.0-3.0-0.104","","key","arrowleft","16.67400000000011","640","360.5","105","4","-1","30","35","25","35","true"
"null","null","psychophysics","215","277474","0.0-3.0-1.104","","key","null","16.67400000000004","640","360.5","","","","","","","",""
"1451.0999999977648","arrowleft","psychophysics","216","278928","0.0-3.0-0.105","","key","arrowleft","16.68200000000002","640","360.5","106","4","1","24","35","25","35","false"
"null","null","psychophysics","217","279930","0.0-3.0-1.105","","key","null","16.67399999999907","640","360.5","","","","","","","",""
"1968.5","arrowleft","psychophysics","218","281900","0.0-3.0-0.106","","key","arrowleft","16.673999999999566","640","360.5","107","4","1","20","15","25","35","false"
"null","null","psychophysics","219","282903","0.0-3.0-1.106","","key","null","16.674000000000056","640","360.5","","","","","","","",""
"791.1999999992549","arrowleft","psychophysics","220","283697","0.0-3.0-0.107","","key","arrowleft","16.67400000000031","640","360.5","108","4","-1","30","15","25","35","true"
"null","null","psychophysics","221","284699","0.0-3.0-1.107","","key","null","16.674000000000056","640","360.5","","","","","","","",""
"1147.0999999977648","arrowright","psychophysics","222","285848","0.0-3.0-0.108","","key","arrowright","16.673999999999925","640","360.5","109","4","-1","20","35","25","35","false"
"null","null","psychophysics","223","286850","0.0-3.0-1.108","","key","null","16.674000000000056","640","360.5","","","","","","","",""
"2747.699999999255","arrowright","psychophysics","224","289600","0.0-3.0-0.109","","key","arrowright","16.674000000000134","640","360.5","110","4","-1","20","15","25","35","false"
"null","null","psychophysics","225","290601","0.0-3.0-1.109","","key","null","16.674000000000056","640","360.5","","","","","","","",""
"1146.4000000022352","arrowleft","psychophysics","226","291750","0.0-3.0-0.110","","key","arrowleft","16.673999999999925","640","360.5","111","4","-1","25","35","25","35","true"
"null","null","psychophysics","227","292752","0.0-3.0-1.110","","key","null","16.674000000000056","640","360.5","","","","","","","",""
"1030.1000000014901","arrowright","psychophysics","228","293784","0.0-3.0-0.111","","key","arrowright","16.674000000000024","640","360.5","112","5","1","27","15","25","35","true"
"null","null","psychophysics","229","294790","0.0-3.0-1.111","","key","null","16.674000000000056","640","360.5","","","","","","","",""
"785.5","arrowleft","html-keyboard-response","230","295577","0.0-3.0-2.111-0.111","<div style=""color: white; text-align: center; vertical-align: top; display: inline-block; width: 800px; margin: auto""><p>You have completed 40% of the trials. You are on block 5 of 10. <br>Good job! Take a break if you need to.</p><p>Press any key to continue the experiment.</p></div>","","","","","","","","","","","","",""
"2285.800000000745","arrowright","psychophysics","231","298869","0.0-3.0-0.112","","key","arrowright","16.678978102189916","640","360.5","113","5","1","26","35","25","35","true"
"null","null","psychophysics","232","299871","0.0-3.0-1.112","","key","null","16.674000000000056","640","360.5","","","","","","","",""
"2780.5","arrowleft","psychophysics","233","302654","0.0-3.0-0.113","","key","arrowleft","16.67400000000012","640","360.5","114","5","1","25","35","25","35","false"
"null","null","psychophysics","234","303655","0.0-3.0-1.113","","key","null","16.674000000000056","640","360.5","","","","","","","",""
"1317.6000000014901","arrowleft","psychophysics","235","304974","0.0-3.0-0.114","","key","arrowleft","16.673999999999815","640","360.5","115","5","1","23","15","25","35","false"
"null","null","psychophysics","236","305976","0.0-3.0-1.114","","key","null","16.674000000000056","640","360.5","","","","","","","",""
"1217.8999999985099","arrowright","psychophysics","237","307196","0.0-3.0-0.115","","key","arrowright","16.67399999999988","640","360.5","116","5","1","24","35","25","35","true"
"null","null","psychophysics","238","308200","0.0-3.0-1.115","","key","null","16.674000000000056","640","360.5","","","","","","","",""
"923.6000000014901","arrowleft","psychophysics","239","309126","0.0-3.0-0.116","","key","arrowleft","16.674000000000127","640","360.5","117","5","-1","30","15","25","35","true"
"null","null","psychophysics","240","310132","0.0-3.0-1.116","","key","null","16.674000000000056","640","360.5","","","","","","","",""
"914.9000000022352","arrowleft","psychophysics","241","311049","0.0-3.0-0.117","","key","arrowleft","16.674000000000145","640","360.5","118","5","-1","24","15","25","35","true"
"null","null","psychophysics","242","312054","0.0-3.0-1.117","","key","null","16.674000000000056","640","360.5","","","","","","","",""
"816.7999999970198","arrowleft","psychophysics","243","312877","0.0-3.0-0.118","","key","arrowleft","16.674000000000255","640","360.5","119","5","1","20","35","25","35","false"
"null","null","psychophysics","244","313881","0.0-3.0-1.118","","key","null","16.674000000000056","640","360.5","","","","","","","",""
"1473.800000000745","arrowright","psychophysics","245","315357","0.0-3.0-0.119","","key","arrowright","16.67399999999973","640","360.5","120","5","1","24","15","25","35","true"
"null","null","psychophysics","246","316360","0.0-3.0-1.119","","key","null","16.674000000000056","640","360.5","","","","","","","",""
"1947.800000000745","arrowright","psychophysics","247","318310","0.0-3.0-0.120","","key","arrowright","16.679948275862163","640","360.5","121","5","1","24","15","25","35","true"
"null","null","psychophysics","248","319314","0.0-3.0-1.120","","key","null","16.674000000000056","640","360.5","","","","","","","",""
"930.3999999985099","arrowright","psychophysics","249","320250","0.0-3.0-0.121","","key","arrowright","16.674000000000127","640","360.5","122","5","1","30","35","25","35","true"
"null","null","psychophysics","250","321253","0.0-3.0-1.121","","key","null","16.674000000000056","640","360.5","","","","","","","",""
"1048.699999999255","arrowright","psychophysics","251","322305","0.0-3.0-0.122","","key","arrowright","16.674000000000007","640","360.5","123","5","1","30","15","25","35","true"
"null","null","psychophysics","252","323306","0.0-3.0-1.122","","key","null","16.674000000000056","640","360.5","","","","","","","",""
"1390.8999999985099","arrowleft","psychophysics","253","324700","0.0-3.0-0.123","","key","arrowleft","16.67399999999977","640","360.5","124","5","-1","26","35","25","35","true"
"null","null","psychophysics","254","325701","0.0-3.0-1.123","","key","null","16.674000000000056","640","360.5","","","","","","","",""
"1481.199999999255","arrowleft","psychophysics","255","327184","0.0-3.0-0.124","","key","arrowleft","16.67399999999973","640","360.5","125","5","-1","24","15","25","35","true"
"null","null","psychophysics","256","328186","0.0-3.0-1.124","","key","null","16.674000000000056","640","360.5","","","","","","","",""
"1363.300000000745","arrowright","psychophysics","257","329551","0.0-3.0-0.125","","key","arrowright","16.674000000000508","640","360.5","126","5","-1","24","35","25","35","false"
"null","null","psychophysics","258","330553","0.0-3.0-1.125","","key","null","16.674000000000056","640","360.5","","","","","","","",""
"2604.400000002235","arrowleft","psychophysics","259","333160","0.0-3.0-0.126","","key","arrowleft","16.67399999999982","640","360.5","127","5","-1","23","15","25","35","true"
"null","null","psychophysics","260","334165","0.0-3.0-1.126","","key","null","16.674000000000056","640","360.5","","","","","","","",""
"3085.300000000745","arrowleft","psychophysics","261","337256","0.0-3.0-0.127","","key","arrowleft","16.674000000000014","640","360.5","128","5","1","23","15","25","35","false"
"null","null","psychophysics","262","338259","0.0-3.0-1.127","","key","null","16.68559322033918","640","360.5","","","","","","","",""
"922.9000000022352","arrowleft","psychophysics","263","339184","0.0-3.0-0.128","","key","arrowleft","16.674000000000145","640","360.5","129","5","-1","26","15","25","35","true"
"null","null","psychophysics","264","340186","0.0-3.0-1.128","","key","null","16.67400000000004","640","360.5","","","","","","","",""
"2032.300000000745","arrowleft","psychophysics","265","342222","0.0-3.0-0.129","","key","arrowleft","16.67400000000003","640","360.5","130","5","-1","24","35","25","35","true"
"null","null","psychophysics","266","343223","0.0-3.0-1.129","","key","null","16.674000000000056","640","360.5","","","","","","","",""
"1134.2000000029802","arrowleft","psychophysics","267","344360","0.0-3.0-0.130","","key","arrowleft","16.67399999999994","640","360.5","131","5","-1","27","15","25","35","true"
"null","null","psychophysics","268","345362","0.0-3.0-1.130","","key","null","16.674000000000056","640","360.5","","","","","","","",""
"792.8999999985099","arrowright","psychophysics","269","346157","0.0-3.0-0.131","","key","arrowright","16.67399999999907","640","360.5","132","5","1","27","15","25","35","true"
"null","null","psychophysics","270","347159","0.0-3.0-1.131","","key","null","16.674000000000056","640","360.5","","","","","","","",""
"1551","arrowright","psychophysics","271","348712","0.0-3.0-0.132","","key","arrowright","16.674000000000333","640","360.5","133","5","1","27","15","25","35","true"
"null","null","psychophysics","272","349715","0.0-3.0-1.132","","key","null","16.674000000000056","640","360.5","","","","","","","",""
"1728.1000000014901","arrowleft","psychophysics","273","351446","0.0-3.0-0.133","","key","arrowleft","16.673999999999634","640","360.5","134","5","1","20","15","25","35","false"
"null","null","psychophysics","274","352447","0.0-3.0-1.133","","key","null","16.674000000000056","640","360.5","","","","","","","",""
"1515.199999999255","arrowright","psychophysics","275","353964","0.0-3.0-0.134","","key","arrowright","16.674000000000362","640","360.5","135","5","1","27","35","25","35","true"
"null","null","psychophysics","276","354970","0.0-3.0-1.134","","key","null","16.674000000000056","640","360.5","","","","","","","",""
"1193.199999999255","arrowright","psychophysics","277","356165","0.0-3.0-0.135","","key","arrowright","16.67399999999989","640","360.5","136","5","1","26","35","25","35","true"
"null","null","psychophysics","278","357169","0.0-3.0-1.135","","key","null","16.674000000000056","640","360.5","","","","","","","",""
"769.0999999977648","arrowleft","psychophysics","279","357941","0.0-3.0-0.136","","key","arrowleft","16.689222222222533","640","360.5","137","5","1","20","35","25","35","false"
"null","null","psychophysics","280","358946","0.0-3.0-1.136","","key","null","16.674000000000056","640","360.5","","","","","","","",""
"940.3000000007451","arrowright","psychophysics","281","359892","0.0-3.0-0.137","","key","arrowright","16.67400000000011","640","360.5","138","5","-1","24","35","25","35","false"
"null","null","psychophysics","282","360897","0.0-3.0-1.137","","key","null","16.674000000000056","640","360.5","","","","","","","",""
"1003","arrowright","psychophysics","283","361903","0.0-3.0-0.138","","key","arrowright","16.67399999999907","640","360.5","139","5","1","24","15","25","35","true"
"null","null","psychophysics","284","362906","0.0-3.0-1.138","","key","null","16.67399999999907","640","360.5","","","","","","","",""
"1099.800000000745","arrowright","psychophysics","285","364008","0.0-3.0-0.139","","key","arrowright","16.67400000000086","640","360.5","140","6","-1","20","35","25","35","false"
"null","null","psychophysics","286","365010","0.0-3.0-1.139","","key","null","16.67399999999907","640","360.5","","","","","","","",""
"1051.699999999255","arrowleft","html-keyboard-response","287","366063","0.0-3.0-2.139-0.139","<div style=""color: white; text-align: center; vertical-align: top; display: inline-block; width: 800px; margin: auto""><p>You have completed 50% of the trials. You are on block 6 of 10. <br>Good job! Take a break if you need to.</p><p>Press any key to continue the experiment.</p></div>","","","","","","","","","","","","",""
"1220.300000000745","arrowright","psychophysics","288","368289","0.0-3.0-0.140","","key","arrowright","16.674000000000664","640","360.5","141","6","1","25","35","25","35","true"
"null","null","psychophysics","289","369295","0.0-3.0-1.140","","key","null","16.674000000000056","640","360.5","","","","","","","",""
"749.8999999985099","arrowright","psychophysics","290","370047","0.0-3.0-0.141","","key","arrowright","16.67399999999907","640","360.5","142","6","1","30","15","25","35","true"
"null","null","psychophysics","291","371050","0.0-3.0-1.141","","key","null","16.674000000000056","640","360.5","","","","","","","",""
"784.8000000007451","arrowleft","psychophysics","292","371841","0.0-3.0-0.142","","key","arrowleft","16.67400000000031","640","360.5","143","6","-1","27","35","25","35","true"
"null","null","psychophysics","293","372847","0.0-3.0-1.142","","key","null","16.674000000000056","640","360.5","","","","","","","",""
"825.0999999977648","arrowright","psychophysics","294","373674","0.0-3.0-0.143","","key","arrowright","16.674000000000255","640","360.5","144","6","1","23","15","25","35","true"
"null","null","psychophysics","295","374679","0.0-3.0-1.143","","key","null","16.674000000000056","640","360.5","","","","","","","",""
"1123","arrowleft","psychophysics","296","375804","0.0-3.0-0.144","","key","arrowleft","16.67399999999994","640","360.5","145","6","-1","27","35","25","35","true"
"null","null","psychophysics","297","376807","0.0-3.0-1.144","","key","null","16.674000000000056","640","360.5","","","","","","","",""
"1355.2999999970198","arrowleft","psychophysics","298","378164","0.0-3.0-0.145","","key","arrowleft","16.682600000000093","640","360.5","146","6","-1","26","35","25","35","true"
"null","null","psychophysics","299","379167","0.0-3.0-1.145","","key","null","16.674000000000056","640","360.5","","","","","","","",""
"1161.5","arrowleft","psychophysics","300","380331","0.0-3.0-0.146","","key","arrowleft","16.67399999999991","640","360.5","147","6","1","24","35","25","35","false"
"null","null","psychophysics","301","381337","0.0-3.0-1.146","","key","null","16.674000000000056","640","360.5","","","","","","","",""
"1182","arrowleft","psychophysics","302","382522","0.0-3.0-0.147","","key","arrowleft","16.6739999999999","640","360.5","148","6","1","25","35","25","35","false"
"null","null","psychophysics","303","383524","0.0-3.0-1.147","","key","null","16.674000000000056","640","360.5","","","","","","","",""
"1475.1000000014901","arrowright","psychophysics","304","385005","0.0-3.0-0.148","","key","arrowright","16.67399999999973","640","360.5","149","6","-1","23","35","25","35","false"
"null","null","psychophysics","305","386006","0.0-3.0-1.148","","key","null","16.674000000000056","640","360.5","","","","","","","",""
"1116.9000000022352","arrowleft","psychophysics","306","387126","0.0-3.0-0.149","","key","arrowleft","16.67399999999995","640","360.5","150","6","-1","30","35","25","35","true"
"null","null","psychophysics","307","388128","0.0-3.0-1.149","","key","null","16.67400000000004","640","360.5","","","","","","","",""
"1000.6999999992549","arrowright","psychophysics","308","389132","0.0-3.0-0.150","","key","arrowright","16.674000000000056","640","360.5","151","6","-1","20","15","25","35","false"
"null","null","psychophysics","309","390134","0.0-3.0-1.150","","key","null","16.674000000000056","640","360.5","","","","","","","",""
"1230.699999999255","arrowright","psychophysics","310","391366","0.0-3.0-0.151","","key","arrowright","16.673999999999864","640","360.5","152","6","1","25","35","25","35","true"
"null","null","psychophysics","311","392372","0.0-3.0-1.151","","key","null","16.674000000000056","640","360.5","","","","","","","",""
"3804.400000002235","arrowleft","psychophysics","312","396179","0.0-3.0-0.152","","key","arrowleft","16.674000000000095","640","360.5","153","6","1","26","35","25","35","false"
"null","null","psychophysics","313","397180","0.0-3.0-1.152","","key","null","16.674000000000056","640","360.5","","","","","","","",""
"994.3999999985099","arrowleft","psychophysics","314","398181","0.0-3.0-0.153","","key","arrowleft","16.683677966101687","640","360.5","154","6","1","20","35","25","35","false"
"null","null","psychophysics","315","399182","0.0-3.0-1.153","","key","null","16.674000000000056","640","360.5","","","","","","","",""
"1396.2000000029802","arrowright","psychophysics","316","400582","0.0-3.0-0.154","","key","arrowright","16.67399999999977","640","360.5","155","6","-1","23","35","25","35","false"
"null","null","psychophysics","317","401586","0.0-3.0-1.154","","key","null","16.67400000000004","640","360.5","","","","","","","",""
"1360.9000000022352","arrowright","psychophysics","318","402949","0.0-3.0-0.155","","key","arrowright","16.674000000000525","640","360.5","156","6","-1","23","35","25","35","false"
"null","null","psychophysics","319","403954","0.0-3.0-1.155","","key","null","16.67399999999907","640","360.5","","","","","","","",""
"1391.199999999255","arrowleft","psychophysics","320","405348","0.0-3.0-0.156","","key","arrowleft","16.67399999999978","640","360.5","157","6","-1","26","35","25","35","true"
"null","null","psychophysics","321","406350","0.0-3.0-1.156","","key","null","16.674000000000056","640","360.5","","","","","","","",""
"1423.7999999970198","arrowleft","psychophysics","322","407776","0.0-3.0-0.157","","key","arrowleft","16.673999999999754","640","360.5","158","6","-1","24","15","25","35","true"
"null","null","psychophysics","323","408778","0.0-3.0-1.157","","key","null","16.674000000000056","640","360.5","","","","","","","",""
"2152.300000000745","arrowleft","psychophysics","324","410933","0.0-3.0-0.158","","key","arrowleft","16.673999999999978","640","360.5","159","6","-1","26","35","25","35","true"
"null","null","psychophysics","325","411938","0.0-3.0-1.158","","key","null","16.674000000000056","640","360.5","","","","","","","",""
"990.6999999992549","arrowleft","psychophysics","326","412935","0.0-3.0-0.159","","key","arrowleft","16.674000000000056","640","360.5","160","6","1","20","15","25","35","false"
"null","null","psychophysics","327","413938","0.0-3.0-1.159","","key","null","16.674000000000056","640","360.5","","","","","","","",""
"1073.5","arrowright","psychophysics","328","415018","0.0-3.0-0.160","","key","arrowright","16.673999999999978","640","360.5","161","6","1","30","35","25","35","true"
"null","null","psychophysics","329","416023","0.0-3.0-1.160","","key","null","16.674000000000056","640","360.5","","","","","","","",""
"1391.9000000022352","arrowright","psychophysics","330","417420","0.0-3.0-0.161","","key","arrowright","16.67399999999977","640","360.5","162","6","1","25","15","25","35","true"
"null","null","psychophysics","331","418426","0.0-3.0-1.161","","key","null","16.687627118644187","640","360.5","","","","","","","",""
"899.8000000007451","arrowright","psychophysics","332","419332","0.0-3.0-0.162","","key","arrowright","16.674000000000145","640","360.5","163","6","-1","20","35","25","35","false"
"null","null","psychophysics","333","420333","0.0-3.0-1.162","","key","null","16.674000000000056","640","360.5","","","","","","","",""
"1278.1000000014901","arrowleft","psychophysics","334","421614","0.0-3.0-0.163","","key","arrowleft","16.673999999999836","640","360.5","164","6","-1","27","35","25","35","true"
"null","null","psychophysics","335","422615","0.0-3.0-1.163","","key","null","16.674000000000056","640","360.5","","","","","","","",""
"1172.1000000014901","arrowleft","psychophysics","336","423789","0.0-3.0-0.164","","key","arrowleft","16.67399999999991","640","360.5","165","6","1","23","35","25","35","false"
"null","null","psychophysics","337","424795","0.0-3.0-1.164","","key","null","16.674000000000056","640","360.5","","","","","","","",""
"3018.800000000745","arrowleft","psychophysics","338","427818","0.0-3.0-0.165","","key","arrowleft","16.674000000000035","640","360.5","166","6","-1","23","15","25","35","true"
"null","null","psychophysics","339","428820","0.0-3.0-1.165","","key","null","16.674000000000056","640","360.5","","","","","","","",""
"1592.1000000014901","arrowright","psychophysics","340","430415","0.0-3.0-0.166","","key","arrowright","16.67400000000031","640","360.5","167","6","1","26","35","25","35","true"
"null","null","psychophysics","341","431418","0.0-3.0-1.166","","key","null","16.67400000000004","640","360.5","","","","","","","",""
"912.1000000014901","arrowleft","psychophysics","342","432333","0.0-3.0-0.167","","key","arrowleft","16.674000000000145","640","360.5","168","7","-1","30","15","25","35","true"
"null","null","psychophysics","343","433334","0.0-3.0-1.167","","key","null","16.674000000000056","640","360.5","","","","","","","",""
"838","arrowleft","html-keyboard-response","344","434174","0.0-3.0-2.167-0.167","<div style=""color: white; text-align: center; vertical-align: top; display: inline-block; width: 800px; margin: auto""><p>You have completed 60% of the trials. You are on block 7 of 10. <br>Good job! Take a break if you need to.</p><p>Press any key to continue the experiment.</p></div>","","","","","","","","","","","","",""
"862.1000000014901","arrowright","psychophysics","345","436042","0.0-3.0-0.168","","key","arrowright","16.674000000000188","640","360.5","169","7","1","26","15","25","35","true"
"null","null","psychophysics","346","437049","0.0-3.0-1.168","","key","null","16.674000000000056","640","360.5","","","","","","","",""
"938.6999999992549","arrowleft","psychophysics","347","437990","0.0-3.0-0.169","","key","arrowleft","16.686214285714545","640","360.5","170","7","1","23","35","25","35","false"
"null","null","psychophysics","348","438991","0.0-3.0-1.169","","key","null","16.674000000000056","640","360.5","","","","","","","",""
"882.3000000007451","arrowleft","psychophysics","349","439875","0.0-3.0-0.170","","key","arrowleft","16.674000000000188","640","360.5","171","7","1","23","35","25","35","false"
"null","null","psychophysics","350","440880","0.0-3.0-1.170","","key","null","16.674000000000056","640","360.5","","","","","","","",""
"1229","arrowright","psychophysics","351","442112","0.0-3.0-0.171","","key","arrowright","16.673999999999864","640","360.5","172","7","1","27","35","25","35","true"
"null","null","psychophysics","352","443113","0.0-3.0-1.171","","key","null","16.674000000000056","640","360.5","","","","","","","",""
"1136.199999999255","arrowleft","psychophysics","353","444252","0.0-3.0-0.172","","key","arrowleft","16.67399999999994","640","360.5","173","7","-1","23","35","25","35","true"
"null","null","psychophysics","354","445254","0.0-3.0-1.172","","key","null","16.674000000000056","640","360.5","","","","","","","",""
"1217.2000000029802","arrowleft","psychophysics","355","446475","0.0-3.0-0.173","","key","arrowleft","16.673999999999864","640","360.5","174","7","1","24","35","25","35","false"
"null","null","psychophysics","356","447477","0.0-3.0-1.173","","key","null","16.674000000000056","640","360.5","","","","","","","",""
"1620.199999999255","arrowleft","psychophysics","357","449099","0.0-3.0-0.174","","key","arrowleft","16.67400000000028","640","360.5","175","7","1","25","35","25","35","false"
"null","null","psychophysics","358","450101","0.0-3.0-1.174","","key","null","16.674000000000056","640","360.5","","","","","","","",""
"976.9000000022352","arrowright","psychophysics","359","451081","0.0-3.0-0.175","","key","arrowright","16.67400000000007","640","360.5","176","7","1","27","15","25","35","true"
"null","null","psychophysics","360","452086","0.0-3.0-1.175","","key","null","16.67399999999907","640","360.5","","","","","","","",""
"2944.199999999255","arrowleft","psychophysics","361","455032","0.0-3.0-0.176","","key","arrowleft","16.67400000000006","640","360.5","177","7","-1","25","35","25","35","true"
"null","null","psychophysics","362","456038","0.0-3.0-1.176","","key","null","16.674000000000056","640","360.5","","","","","","","",""
"1159.3999999985099","arrowleft","psychophysics","363","457200","0.0-3.0-0.177","","key","arrowleft","16.67399999999991","640","360.5","178","7","1","23","35","25","35","false"
"null","null","psychophysics","364","458201","0.0-3.0-1.177","","key","null","16.685050847457713","640","360.5","","","","","","","",""
"1265","arrowleft","psychophysics","365","459468","0.0-3.0-0.178","","key","arrowleft","16.67400000000062","640","360.5","179","7","-1","23","35","25","35","true"
"null","null","psychophysics","366","460470","0.0-3.0-1.178","","key","null","16.67399999999907","640","360.5","","","","","","","",""
"978","arrowleft","psychophysics","367","461450","0.0-3.0-0.179","","key","arrowleft","16.67400000000007","640","360.5","180","7","-1","25","15","25","35","true"
"null","null","psychophysics","368","462451","0.0-3.0-1.179","","key","null","16.961482758620747","640","360.5","","","","","","","",""
"819","arrowleft","psychophysics","369","463272","0.0-3.0-0.180","","key","arrowleft","16.67400000000028","640","360.5","181","7","1","20","15","25","35","false"
"null","null","psychophysics","370","464273","0.0-3.0-1.180","","key","null","16.674000000000056","640","360.5","","","","","","","",""
"911.8999999985099","arrowleft","psychophysics","371","465188","0.0-3.0-0.181","","key","arrowleft","16.674000000000145","640","360.5","182","7","-1","26","15","25","35","true"
"null","null","psychophysics","372","466189","0.0-3.0-1.181","","key","null","16.674000000000056","640","360.5","","","","","","","",""
"956.2000000029802","arrowleft","psychophysics","373","467148","0.0-3.0-0.182","","key","arrowleft","16.67400000000011","640","360.5","183","7","-1","25","15","25","35","true"
"null","null","psychophysics","374","468149","0.0-3.0-1.182","","key","null","16.674000000000056","640","360.5","","","","","","","",""
"656.9000000022352","arrowleft","psychophysics","375","468812","0.0-3.0-0.183","","key","arrowleft","16.67399999999907","640","360.5","184","7","1","20","35","25","35","false"
"null","null","psychophysics","376","469818","0.0-3.0-1.183","","key","null","16.674000000000056","640","360.5","","","","","","","",""
"746.3000000007451","arrowleft","psychophysics","377","470569","0.0-3.0-0.184","","key","arrowleft","16.674000000000362","640","360.5","185","7","-1","26","15","25","35","true"
"null","null","psychophysics","378","471571","0.0-3.0-1.184","","key","null","16.674000000000056","640","360.5","","","","","","","",""
"2677.199999999255","arrowright","psychophysics","379","474251","0.0-3.0-0.185","","key","arrowright","16.674000000000166","640","360.5","186","7","-1","20","15","25","35","false"
"null","null","psychophysics","380","475255","0.0-3.0-1.185","","key","null","16.67400000000004","640","360.5","","","","","","","",""
"1982.3999999985099","arrowright","psychophysics","381","477244","0.0-3.0-0.186","","key","arrowright","16.674000000000056","640","360.5","187","7","-1","20","15","25","35","false"
"null","null","psychophysics","382","478246","0.0-3.0-1.186","","key","null","16.68627118644052","640","360.5","","","","","","","",""
"1333.5","arrowleft","psychophysics","383","479584","0.0-3.0-0.187","","key","arrowleft","16.673999999999804","640","360.5","188","7","-1","24","15","25","35","true"
"null","null","psychophysics","384","480586","0.0-3.0-1.187","","key","null","16.674000000000056","640","360.5","","","","","","","",""
"1081.0999999977648","arrowleft","psychophysics","385","481669","0.0-3.0-0.188","","key","arrowleft","16.673999999999978","640","360.5","189","7","-1","30","35","25","35","true"
"null","null","psychophysics","386","482672","0.0-3.0-1.188","","key","null","16.674000000000056","640","360.5","","","","","","","",""
"3990.699999999255","arrowright","psychophysics","387","486668","0.0-3.0-0.189","","key","arrowright","16.674000000000046","640","360.5","190","7","-1","23","15","25","35","false"
"null","null","psychophysics","388","487671","0.0-3.0-1.189","","key","null","16.674000000000056","640","360.5","","","","","","","",""
"1757","arrowleft","psychophysics","389","489435","0.0-3.0-0.190","","key","arrowleft","16.673999999999623","640","360.5","191","7","1","20","15","25","35","false"
"null","null","psychophysics","390","490441","0.0-3.0-1.190","","key","null","16.674000000000056","640","360.5","","","","","","","",""
"1385.5","arrowleft","psychophysics","391","491833","0.0-3.0-0.191","","key","arrowleft","16.674000000000472","640","360.5","192","7","-1","26","15","25","35","true"
"null","null","psychophysics","392","492835","0.0-3.0-1.191","","key","null","16.674000000000056","640","360.5","","","","","","","",""
"1030.5","arrowleft","psychophysics","393","493868","0.0-3.0-0.192","","key","arrowleft","16.674000000000024","640","360.5","193","7","1","20","35","25","35","false"
"null","null","psychophysics","394","494871","0.0-3.0-1.192","","key","null","16.674000000000056","640","360.5","","","","","","","",""
"1328.5","arrowleft","psychophysics","395","496203","0.0-3.0-0.193","","key","arrowleft","16.673999999999804","640","360.5","194","7","1","24","15","25","35","false"
"null","null","psychophysics","396","497205","0.0-3.0-1.193","","key","null","16.674000000000056","640","360.5","","","","","","","",""
"3753.800000000745","arrowright","psychophysics","397","500962","0.0-3.0-0.194","","key","arrowright","16.676874999999978","640","360.5","195","7","-1","24","15","25","35","false"
"null","null","psychophysics","398","501969","0.0-3.0-1.194","","key","null","16.674000000000056","640","360.5","","","","","","","",""
"2794.5","arrowleft","psychophysics","399","504769","0.0-3.0-0.195","","key","arrowleft","16.674000000000113","640","360.5","196","8","-1","23","15","25","35","true"
"null","null","psychophysics","400","505772","0.0-3.0-1.195","","key","null","16.674000000000056","640","360.5","","","","","","","",""
"960.6000000014901","arrowleft","html-keyboard-response","401","506735","0.0-3.0-2.195-0.195","<div style=""color: white; text-align: center; vertical-align: top; display: inline-block; width: 800px; margin: auto""><p>You have completed 70% of the trials. You are on block 8 of 10. <br>Good job! Take a break if you need to.</p><p>Press any key to continue the experiment.</p></div>","","","","","","","","","","","","",""
"1476.5","arrowleft","psychophysics","402","509218","0.0-3.0-0.196","","key","arrowleft","16.67399999999973","640","360.5","197","8","-1","23","15","25","35","true"
"null","null","psychophysics","403","510223","0.0-3.0-1.196","","key","null","16.674000000000056","640","360.5","","","","","","","",""
"2129.60000000149","arrowleft","psychophysics","404","512357","0.0-3.0-0.197","","key","arrowleft","16.673999999999985","640","360.5","198","8","-1","26","15","25","35","true"
"null","null","psychophysics","405","513361","0.0-3.0-1.197","","key","null","16.67400000000004","640","360.5","","","","","","","",""
"3149","arrowright","psychophysics","406","516513","0.0-3.0-0.198","","key","arrowright","16.673999999999996","640","360.5","199","8","1","25","15","25","35","true"
"null","null","psychophysics","407","517517","0.0-3.0-1.198","","key","null","16.674000000000056","640","360.5","","","","","","","",""
"2222.199999999255","arrowleft","psychophysics","408","519741","0.0-3.0-0.199","","key","arrowleft","16.679469696969715","640","360.5","200","8","1","23","15","25","35","false"
"null","null","psychophysics","409","520746","0.0-3.0-1.199","","key","null","16.674000000000056","640","360.5","","","","","","","",""
"1313.5","arrowright","psychophysics","410","522065","0.0-3.0-0.200","","key","arrowright","16.673999999999815","640","360.5","201","8","1","27","15","25","35","true"
"null","null","psychophysics","411","523069","0.0-3.0-1.200","","key","null","16.67400000000004","640","360.5","","","","","","","",""
"1172.199999999255","arrowright","psychophysics","412","524243","0.0-3.0-0.201","","key","arrowright","16.67399999999991","640","360.5","202","8","1","26","15","25","35","true"
"null","null","psychophysics","413","525245","0.0-3.0-1.201","","key","null","16.67400000000104","640","360.5","","","","","","","",""
"1184.800000000745","arrowright","psychophysics","414","526432","0.0-3.0-0.202","","key","arrowright","16.67399999999907","640","360.5","203","8","-1","23","35","25","35","false"
"null","null","psychophysics","415","527435","0.0-3.0-1.202","","key","null","16.67400000000101","640","360.5","","","","","","","",""
"2777","arrowleft","psychophysics","416","530215","0.0-3.0-0.203","","key","arrowleft","16.673999999999776","640","360.5","204","8","1","23","15","25","35","false"
"null","null","psychophysics","417","531220","0.0-3.0-1.203","","key","null","16.67399999999907","640","360.5","","","","","","","",""
"1515.5","arrowright","psychophysics","418","532740","0.0-3.0-0.204","","key","arrowright","16.674000000000362","640","360.5","205","8","1","27","15","25","35","true"
"null","null","psychophysics","419","533741","0.0-3.0-1.204","","key","null","16.67400000000101","640","360.5","","","","","","","",""
"1053.5999999977648","arrowright","psychophysics","420","534797","0.0-3.0-0.205","","key","arrowright","16.67399999999907","640","360.5","206","8","1","30","15","25","35","true"
"null","null","psychophysics","421","535799","0.0-3.0-1.205","","key","null","16.67400000000104","640","360.5","","","","","","","",""
"949.8999999985099","arrowright","psychophysics","422","536751","0.0-3.0-0.206","","key","arrowright","16.67399999999907","640","360.5","207","8","-1","20","35","25","35","false"
"null","null","psychophysics","423","537755","0.0-3.0-1.206","","key","null","16.67400000000104","640","360.5","","","","","","","",""
"868.6000000014901","arrowleft","psychophysics","424","538630","0.0-3.0-0.207","","key","arrowleft","16.687153846153077","640","360.5","208","8","1","23","35","25","35","false"
"null","null","psychophysics","425","539633","0.0-3.0-1.207","","key","null","16.67399999999907","640","360.5","","","","","","","",""
"819.5","arrowright","psychophysics","426","540455","0.0-3.0-0.208","","key","arrowright","16.674000000001495","640","360.5","209","8","1","27","35","25","35","true"
"null","null","psychophysics","427","541462","0.0-3.0-1.208","","key","null","16.67399999999907","640","360.5","","","","","","","",""
"716.6000000014901","arrowright","psychophysics","428","542181","0.0-3.0-0.209","","key","arrowright","16.67400000000184","640","360.5","210","8","1","30","15","25","35","true"
"null","null","psychophysics","429","543184","0.0-3.0-1.209","","key","null","16.67399999999907","640","360.5","","","","","","","",""
"813","arrowright","psychophysics","430","543999","0.0-3.0-0.210","","key","arrowright","16.674000000001495","640","360.5","211","8","1","30","15","25","35","true"
"null","null","psychophysics","431","545001","0.0-3.0-1.210","","key","null","16.67399999999907","640","360.5","","","","","","","",""
"670.8999999985099","arrowleft","psychophysics","432","545675","0.0-3.0-0.211","","key","arrowleft","16.67399999999907","640","360.5","212","8","-1","30","15","25","35","true"
"null","null","psychophysics","433","546678","0.0-3.0-1.211","","key","null","16.67400000000104","640","360.5","","","","","","","",""
"1288.199999999255","arrowleft","psychophysics","434","547972","0.0-3.0-0.212","","key","arrowleft","16.67399999999907","640","360.5","213","8","-1","24","35","25","35","true"
"null","null","psychophysics","435","548975","0.0-3.0-1.212","","key","null","16.67400000000104","640","360.5","","","","","","","",""
"1037.5999999977648","arrowright","psychophysics","436","550015","0.0-3.0-0.213","","key","arrowright","16.67399999999907","640","360.5","214","8","1","26","35","25","35","true"
"null","null","psychophysics","437","551017","0.0-3.0-1.213","","key","null","16.67400000000104","640","360.5","","","","","","","",""
"979.9000000022352","arrowright","psychophysics","438","552000","0.0-3.0-0.214","","key","arrowright","16.67399999999907","640","360.5","215","8","-1","20","35","25","35","false"
"null","null","psychophysics","439","553001","0.0-3.0-1.214","","key","null","16.67400000000104","640","360.5","","","","","","","",""
"1191.5","arrowright","psychophysics","440","554195","0.0-3.0-0.215","","key","arrowright","16.67399999999907","640","360.5","216","8","1","25","15","25","35","true"
"null","null","psychophysics","441","555199","0.0-3.0-1.215","","key","null","16.67400000000104","640","360.5","","","","","","","",""
"1675.5","arrowleft","psychophysics","442","556880","0.0-3.0-0.216","","key","arrowleft","16.674000000000234","640","360.5","217","8","1","26","35","25","35","false"
"null","null","psychophysics","443","557884","0.0-3.0-1.216","","key","null","16.685762711863774","640","360.5","","","","","","","",""
"4337.300000000745","arrowleft","psychophysics","444","562227","0.0-3.0-0.217","","key","arrowleft","16.673999999999964","640","360.5","218","8","-1","24","35","25","35","true"
"null","null","psychophysics","445","563228","0.0-3.0-1.217","","key","null","16.67400000000104","640","360.5","","","","","","","",""
"1410.199999999255","arrowleft","psychophysics","446","564641","0.0-3.0-0.218","","key","arrowleft","16.67399999999907","640","360.5","219","8","-1","24","15","25","35","true"
"null","null","psychophysics","447","565643","0.0-3.0-1.218","","key","null","16.67400000000104","640","360.5","","","","","","","",""
"1285.2000000029802","arrowleft","psychophysics","448","566930","0.0-3.0-0.219","","key","arrowleft","16.67399999999907","640","360.5","220","8","-1","30","35","25","35","true"
"null","null","psychophysics","449","567932","0.0-3.0-1.219","","key","null","16.67400000000104","640","360.5","","","","","","","",""
"1225","arrowleft","psychophysics","450","569160","0.0-3.0-0.220","","key","arrowleft","16.67399999999907","640","360.5","221","8","-1","26","35","25","35","true"
"null","null","psychophysics","451","570165","0.0-3.0-1.220","","key","null","16.67400000000104","640","360.5","","","","","","","",""
"1534.7999999970198","arrowright","psychophysics","452","571702","0.0-3.0-0.221","","key","arrowright","16.674000000000348","640","360.5","222","8","1","26","15","25","35","true"
"null","null","psychophysics","453","572707","0.0-3.0-1.221","","key","null","16.67399999999907","640","360.5","","","","","","","",""
"1508.9000000022352","arrowright","psychophysics","454","574221","0.0-3.0-0.222","","key","arrowright","16.674000000000362","640","360.5","223","8","1","24","15","25","35","true"
"null","null","psychophysics","455","575226","0.0-3.0-1.222","","key","null","16.67399999999907","640","360.5","","","","","","","",""
"757.1999999992549","arrowright","psychophysics","456","575986","0.0-3.0-0.223","","key","arrowright","16.674000000001715","640","360.5","224","9","1","26","15","25","35","true"
"null","null","psychophysics","457","576988","0.0-3.0-1.223","","key","null","16.67399999999907","640","360.5","","","","","","","",""
"738.0999999977648","arrowright","html-keyboard-response","458","577731","0.0-3.0-2.223-0.223","<div style=""color: white; text-align: center; vertical-align: top; display: inline-block; width: 800px; margin: auto""><p>You have completed 80% of the trials. You are on block 9 of 10. <br>Good job! Take a break if you need to.</p><p>Press any key to continue the experiment.</p></div>","","","","","","","","","","","","",""
"831.8999999985099","arrowright","psychophysics","459","579568","0.0-3.0-0.224","","key","arrowright","16.68747999999905","640","360.5","225","9","1","30","15","25","35","true"
"null","null","psychophysics","460","580569","0.0-3.0-1.224","","key","null","16.67400000000104","640","360.5","","","","","","","",""
"712.5999999977648","arrowright","psychophysics","461","581283","0.0-3.0-0.225","","key","arrowright","16.67399999999907","640","360.5","226","9","1","25","15","25","35","true"
"null","null","psychophysics","462","582285","0.0-3.0-1.225","","key","null","16.96148275862175","640","360.5","","","","","","","",""
"604.3000000007451","arrowright","psychophysics","463","582891","0.0-3.0-0.226","","key","arrowright","16.67399999999907","640","360.5","227","9","1","30","35","25","35","true"
"null","null","psychophysics","464","583895","0.0-3.0-1.226","","key","null","16.67400000000104","640","360.5","","","","","","","",""
"867.5","arrowleft","psychophysics","465","584772","0.0-3.0-0.227","","key","arrowleft","16.67399999999907","640","360.5","228","9","-1","26","15","25","35","true"
"null","null","psychophysics","466","585773","0.0-3.0-1.227","","key","null","16.67399999999907","640","360.5","","","","","","","",""
"954.1000000014901","arrowleft","psychophysics","467","586730","0.0-3.0-0.228","","key","arrowleft","16.674000000001147","640","360.5","229","9","-1","27","35","25","35","true"
"null","null","psychophysics","468","587732","0.0-3.0-1.228","","key","null","16.67399999999907","640","360.5","","","","","","","",""
"1404.1000000014901","arrowleft","psychophysics","469","589140","0.0-3.0-0.229","","key","arrowleft","16.674000000000472","640","360.5","230","9","-1","23","15","25","35","true"
"null","null","psychophysics","470","590144","0.0-3.0-1.229","","key","null","16.67400000000104","640","360.5","","","","","","","",""
"1609.5","arrowleft","psychophysics","471","591756","0.0-3.0-0.230","","key","arrowleft","16.67399999999907","640","360.5","231","9","1","23","35","25","35","false"
"null","null","psychophysics","472","592757","0.0-3.0-1.230","","key","null","16.67400000000104","640","360.5","","","","","","","",""
"1933","arrowleft","psychophysics","473","594692","0.0-3.0-0.231","","key","arrowleft","16.67400000000008","640","360.5","232","9","-1","23","15","25","35","true"
"null","null","psychophysics","474","595694","0.0-3.0-1.231","","key","null","16.67399999999907","640","360.5","","","","","","","",""
"2678.800000000745","arrowright","psychophysics","475","598375","0.0-3.0-0.232","","key","arrowright","16.673999999999797","640","360.5","233","9","1","26","15","25","35","true"
"null","null","psychophysics","476","599377","0.0-3.0-1.232","","key","null","16.686305084747215","640","360.5","","","","","","","",""
"2282.5","arrowleft","psychophysics","477","601661","0.0-3.0-0.233","","key","arrowleft","16.673999999999925","640","360.5","234","9","-1","25","35","25","35","true"
"null","null","psychophysics","478","602663","0.0-3.0-1.233","","key","null","16.67399999999907","640","360.5","","","","","","","",""
"1827.300000000745","arrowleft","psychophysics","479","604493","0.0-3.0-0.234","","key","arrowleft","16.674000000000138","640","360.5","235","9","1","23","15","25","35","false"
"null","null","psychophysics","480","605495","0.0-3.0-1.234","","key","null","16.67400000000104","640","360.5","","","","","","","",""
"1627","arrowright","psychophysics","481","607124","0.0-3.0-0.235","","key","arrowright","16.67399999999907","640","360.5","236","9","1","30","35","25","35","true"
"null","null","psychophysics","482","608126","0.0-3.0-1.235","","key","null","16.67400000000104","640","360.5","","","","","","","",""
"3234.800000000745","arrowright","psychophysics","483","611366","0.0-3.0-0.236","","key","arrowright","16.67399999999967","640","360.5","237","9","1","24","15","25","35","true"
"null","null","psychophysics","484","612368","0.0-3.0-1.236","","key","null","16.67400000000104","640","360.5","","","","","","","",""
"2423","arrowright","psychophysics","485","614793","0.0-3.0-0.237","","key","arrowright","16.67399999999988","640","360.5","238","9","1","26","15","25","35","true"
"null","null","psychophysics","486","615797","0.0-3.0-1.237","","key","null","16.67400000000101","640","360.5","","","","","","","",""
"1028.199999999255","arrowleft","psychophysics","487","616829","0.0-3.0-0.238","","key","arrowleft","16.67399999999907","640","360.5","239","9","1","23","35","25","35","false"
"null","null","psychophysics","488","617831","0.0-3.0-1.238","","key","null","16.67400000000101","640","360.5","","","","","","","",""
"1374.699999999255","arrowleft","psychophysics","489","619209","0.0-3.0-0.239","","key","arrowleft","16.68203703703698","640","360.5","240","9","-1","24","35","25","35","true"
"null","null","psychophysics","490","620215","0.0-3.0-1.239","","key","null","16.67399999999907","640","360.5","","","","","","","",""
"789.1999999992549","arrowleft","psychophysics","491","621010","0.0-3.0-0.240","","key","arrowleft","16.67399999999907","640","360.5","241","9","-1","30","15","25","35","true"
"null","null","psychophysics","492","622015","0.0-3.0-1.240","","key","null","16.67399999999907","640","360.5","","","","","","","",""
"786.6999999992549","arrowleft","psychophysics","493","622805","0.0-3.0-0.241","","key","arrowleft","16.67399999999907","640","360.5","242","9","-1","27","15","25","35","true"
"null","null","psychophysics","494","623810","0.0-3.0-1.241","","key","null","16.67400000000104","640","360.5","","","","","","","",""
"1042.8999999985099","arrowright","psychophysics","495","624856","0.0-3.0-0.242","","key","arrowright","16.67399999999907","640","360.5","243","9","1","26","15","25","35","true"
"null","null","psychophysics","496","625857","0.0-3.0-1.242","","key","null","16.67400000000104","640","360.5","","","","","","","",""
"2685.599999997765","arrowright","psychophysics","497","628545","0.0-3.0-0.243","","key","arrowright","16.673999999999797","640","360.5","244","9","1","25","15","25","35","true"
"null","null","psychophysics","498","629547","0.0-3.0-1.243","","key","null","16.67400000000104","640","360.5","","","","","","","",""
"896.5","arrowright","psychophysics","499","630446","0.0-3.0-0.244","","key","arrowright","16.67399999999907","640","360.5","245","9","1","25","15","25","35","true"
"null","null","psychophysics","500","631447","0.0-3.0-1.244","","key","null","16.67400000000104","640","360.5","","","","","","","",""
"2793.60000000149","arrowleft","psychophysics","501","634243","0.0-3.0-0.245","","key","arrowleft","16.673999999999765","640","360.5","246","9","-1","24","35","25","35","true"
"null","null","psychophysics","502","635245","0.0-3.0-1.245","","key","null","16.67399999999907","640","360.5","","","","","","","",""
"1052.5","arrowleft","psychophysics","503","636299","0.0-3.0-0.246","","key","arrowleft","16.674000000000948","640","360.5","247","9","1","20","15","25","35","false"
"null","null","psychophysics","504","637301","0.0-3.0-1.246","","key","null","16.67399999999907","640","360.5","","","","","","","",""
"1193.5","arrowleft","psychophysics","505","638497","0.0-3.0-0.247","","key","arrowleft","16.67400000000071","640","360.5","248","9","1","23","35","25","35","false"
"null","null","psychophysics","506","639503","0.0-3.0-1.247","","key","null","16.68620338983108","640","360.5","","","","","","","",""
"2515","arrowright","psychophysics","507","642020","0.0-3.0-0.248","","key","arrowright","16.673999999999843","640","360.5","249","9","-1","20","15","25","35","false"
"null","null","psychophysics","508","643023","0.0-3.0-1.248","","key","null","16.67399999999907","640","360.5","","","","","","","",""
"1842.5999999977648","arrowleft","psychophysics","509","644868","0.0-3.0-0.249","","key","arrowleft","16.674000000000127","640","360.5","250","9","-1","24","15","25","35","true"
"null","null","psychophysics","510","645871","0.0-3.0-1.249","","key","null","16.67400000000104","640","360.5","","","","","","","",""
"1427.699999999255","arrowright","psychophysics","511","647301","0.0-3.0-0.250","","key","arrowright","16.67399999999907","640","360.5","251","9","1","30","35","25","35","true"
"null","null","psychophysics","512","648306","0.0-3.0-1.250","","key","null","16.67400000000104","640","360.5","","","","","","","",""
"1226.2000000029802","arrowleft","psychophysics","513","649535","0.0-3.0-0.251","","key","arrowleft","16.67399999999907","640","360.5","252","10","-1","27","15","25","35","true"
"null","null","psychophysics","514","650537","0.0-3.0-1.251","","key","null","16.67400000000104","640","360.5","","","","","","","",""
"851","arrowleft","html-keyboard-response","515","651389","0.0-3.0-2.251-0.251","<div style=""color: white; text-align: center; vertical-align: top; display: inline-block; width: 800px; margin: auto""><p>You have completed 90% of the trials. You are on block 10 of 10. <br>Good job! Take a break if you need to.</p><p>Press any key to continue the experiment.</p></div>","","","","","","","","","","","","",""
"2050.60000000149","arrowleft","psychophysics","516","654446","0.0-3.0-0.252","","key","arrowleft","16.674000000000014","640","360.5","253","10","1","23","15","25","35","false"
"null","null","psychophysics","517","655450","0.0-3.0-1.252","","key","null","16.67399999999907","640","360.5","","","","","","","",""
"928.6999999992549","arrowleft","psychophysics","518","656382","0.0-3.0-0.253","","key","arrowleft","16.674000000001225","640","360.5","254","10","-1","30","35","25","35","true"
"null","null","psychophysics","519","657384","0.0-3.0-1.253","","key","null","16.67399999999907","640","360.5","","","","","","","",""
"1208.800000000745","arrowright","psychophysics","520","658597","0.0-3.0-0.254","","key","arrowright","16.674000000000685","640","360.5","255","10","-1","23","35","25","35","false"
"null","null","psychophysics","521","659599","0.0-3.0-1.254","","key","null","16.769966101694173","640","360.5","","","","","","","",""
"1139.9000000022352","arrowleft","psychophysics","522","660741","0.0-3.0-0.255","","key","arrowleft","16.67400000000078","640","360.5","256","10","-1","30","15","25","35","true"
"null","null","psychophysics","523","661744","0.0-3.0-1.255","","key","null","16.67399999999907","640","360.5","","","","","","","",""
"1019","arrowleft","psychophysics","524","662765","0.0-3.0-0.256","","key","arrowleft","16.67400000000101","640","360.5","257","10","-1","30","35","25","35","true"
"null","null","psychophysics","525","663766","0.0-3.0-1.256","","key","null","16.67399999999907","640","360.5","","","","","","","",""
"986.5999999977648","arrowleft","psychophysics","526","664755","0.0-3.0-0.257","","key","arrowleft","16.674000000001076","640","360.5","258","10","1","20","35","25","35","false"
"null","null","psychophysics","527","665758","0.0-3.0-1.257","","key","null","16.67399999999907","640","360.5","","","","","","","",""
"1867.800000000745","arrowleft","psychophysics","528","667631","0.0-3.0-0.258","","key","arrowleft","16.67400000000011","640","360.5","259","10","1","24","35","25","35","false"
"null","null","psychophysics","529","668633","0.0-3.0-1.258","","key","null","16.67399999999907","640","360.5","","","","","","","",""
"1740.199999999255","arrowleft","psychophysics","530","670376","0.0-3.0-0.259","","key","arrowleft","16.6740000000002","640","360.5","260","10","1","25","15","25","35","false"
"null","null","psychophysics","531","671381","0.0-3.0-1.259","","key","null","16.67400000000101","640","360.5","","","","","","","",""
"1438.3999999985099","arrowright","psychophysics","532","672823","0.0-3.0-0.260","","key","arrowright","16.67399999999907","640","360.5","261","10","1","27","35","25","35","true"
"null","null","psychophysics","533","673828","0.0-3.0-1.260","","key","null","16.67399999999907","640","360.5","","","","","","","",""
"920.6000000014901","arrowright","psychophysics","534","674753","0.0-3.0-0.261","","key","arrowright","16.67399999999907","640","360.5","262","10","-1","25","35","25","35","false"
"null","null","psychophysics","535","675758","0.0-3.0-1.261","","key","null","16.67400000000104","640","360.5","","","","","","","",""
"862.1999999992549","arrowleft","psychophysics","536","676627","0.0-3.0-0.262","","key","arrowleft","16.67399999999907","640","360.5","263","10","-1","27","15","25","35","true"
"null","null","psychophysics","537","677631","0.0-3.0-1.262","","key","null","16.67400000000104","640","360.5","","","","","","","",""
"951.1999999992549","arrowright","psychophysics","538","678589","0.0-3.0-0.263","","key","arrowright","16.67399999999907","640","360.5","264","10","1","30","35","25","35","true"
"null","null","psychophysics","539","679594","0.0-3.0-1.263","","key","null","16.686864406780057","640","360.5","","","","","","","",""
"631.6999999992549","arrowright","psychophysics","540","680228","0.0-3.0-0.264","","key","arrowright","16.67399999999907","640","360.5","265","10","1","30","35","25","35","true"
"null","null","psychophysics","541","681233","0.0-3.0-1.264","","key","null","16.67400000000104","640","360.5","","","","","","","",""
"1773.5","arrowleft","psychophysics","542","683012","0.0-3.0-0.265","","key","arrowleft","16.674000000000166","640","360.5","266","10","1","23","15","25","35","false"
"null","null","psychophysics","543","684014","0.0-3.0-1.265","","key","null","16.67399999999907","640","360.5","","","","","","","",""
"679.8999999985099","arrowright","psychophysics","544","684696","0.0-3.0-0.266","","key","arrowright","16.67400000000198","640","360.5","267","10","-1","23","35","25","35","false"
"null","null","psychophysics","545","685698","0.0-3.0-1.266","","key","null","16.67399999999907","640","360.5","","","","","","","",""
"976.3999999985099","arrowright","psychophysics","546","686677","0.0-3.0-0.267","","key","arrowright","16.67399999999907","640","360.5","268","10","-1","20","35","25","35","false"
"null","null","psychophysics","547","687679","0.0-3.0-1.267","","key","null","16.67400000000104","640","360.5","","","","","","","",""
"810.8999999985099","arrowleft","psychophysics","548","688492","0.0-3.0-0.268","","key","arrowleft","16.67399999999907","640","360.5","269","10","1","20","15","25","35","false"
"null","null","psychophysics","549","689493","0.0-3.0-1.268","","key","null","16.67400000000104","640","360.5","","","","","","","",""
"2465.300000000745","arrowright","psychophysics","550","691960","0.0-3.0-0.269","","key","arrowright","16.67399999999986","640","360.5","270","10","-1","25","35","25","35","false"
"null","null","psychophysics","551","692962","0.0-3.0-1.269","","key","null","16.67399999999907","640","360.5","","","","","","","",""
"797.4000000022352","arrowleft","psychophysics","552","693761","0.0-3.0-0.270","","key","arrowleft","16.674000000001545","640","360.5","271","10","-1","25","15","25","35","true"
"null","null","psychophysics","553","694763","0.0-3.0-1.270","","key","null","16.67399999999907","640","360.5","","","","","","","",""
"867.3000000007451","arrowleft","psychophysics","554","695633","0.0-3.0-0.271","","key","arrowleft","16.674000000001353","640","360.5","272","10","1","25","35","25","35","false"
"null","null","psychophysics","555","696635","0.0-3.0-1.271","","key","null","16.67399999999907","640","360.5","","","","","","","",""
"1015","arrowleft","psychophysics","556","697651","0.0-3.0-0.272","","key","arrowleft","16.67400000000101","640","360.5","273","10","-1","27","35","25","35","true"
"null","null","psychophysics","557","698654","0.0-3.0-1.272","","key","null","16.67399999999907","640","360.5","","","","","","","",""
"1117","arrowleft","psychophysics","558","699773","0.0-3.0-0.273","","key","arrowleft","16.682954545455605","640","360.5","274","10","-1","25","35","25","35","true"
"null","null","psychophysics","559","700777","0.0-3.0-1.273","","key","null","16.67399999999907","640","360.5","","","","","","","",""
"720","arrowleft","psychophysics","560","701501","0.0-3.0-0.274","","key","arrowleft","16.67399999999907","640","360.5","275","10","-1","27","15","25","35","true"
"null","null","psychophysics","561","702502","0.0-3.0-1.274","","key","null","16.96148275862175","640","360.5","","","","","","","",""
"830.9000000022352","arrowleft","psychophysics","562","703335","0.0-3.0-0.275","","key","arrowleft","16.67399999999907","640","360.5","276","10","1","20","15","25","35","false"
"null","null","psychophysics","563","704338","0.0-3.0-1.275","","key","null","16.67400000000104","640","360.5","","","","","","","",""
"761","arrowleft","psychophysics","564","705102","0.0-3.0-0.276","","key","arrowleft","16.67399999999907","640","360.5","277","10","-1","26","35","25","35","true"
"null","null","psychophysics","565","706104","0.0-3.0-1.276","","key","null","16.67400000000104","640","360.5","","","","","","","",""
"712.3999999985099","arrowleft","psychophysics","566","706818","0.0-3.0-0.277","","key","arrowleft","16.67399999999907","640","360.5","278","10","1","20","35","25","35","false"
"null","null","psychophysics","567","707820","0.0-3.0-1.277","","key","null","16.67399999999907","640","360.5","","","","","","","",""
"739.6000000014901","arrowleft","psychophysics","568","708562","0.0-3.0-0.278","","key","arrowleft","16.674000000001776","640","360.5","279","10","-1","27","15","25","35","true"
"null","null","psychophysics","569","709570","0.0-3.0-1.278","","key","null","16.67399999999907","640","360.5","","","","","","","",""
"949.8000000007451","arrowleft","psychophysics","570","710521","0.0-3.0-0.279","","key","arrowleft","16.674000000001147","640","360.5","280","11","1","20","35","25","35","false"
"null","null","psychophysics","571","711524","0.0-3.0-1.279","","key","null","16.67399999999907","640","360.5","","","","","","","",""
