"rt","response","trial_type","trial_index","time_elapsed","internal_node_id","stimulus","response_type","key_press","avg_frame_time","center_x","center_y","trial","block","test_pos","test_inner_radius","test_outer_radius","ref_inner_radius","ref_outer_radius","test_bigger"
"47659.70000000298","{""p_id"":""2511"",""age"":""19"",""handedness"":""right"",""sex"":""female"",""other_sex"":""""}","survey-html-form","0","47663","0.0-0.0","","","","","","","","","","","","","",""
"4907.29999999702"," ","html-keyboard-response","1","52572","0.0-1.0","<p style=""color: white"">Welcome to the Size Judgment Experiment. <br>There will be 10 blocks in this experiment. <br>There will be 28 trials in each block. <br>You will be given a chance to take a break between blocks. <br>Press any key to start the experiment.</p>","","","","","","","","","","","","",""
"14643.79999999702"," ","psychophysics","2","67231","0.0-2.0","","key"," ","16.66252787258248","720","382","","","","","","","",""
"5029.70000000298","arrowleft","psychophysics","3","72269","0.0-3.0-0.0","","key","arrowleft","16.665999999999993","720","382","1","1","-1","27","35","25","35","true"
"null","null","psychophysics","4","73272","0.0-3.0-1.0","","key","null","16.577067796610024","720","382","","","","","","","",""
"932","arrowright","psychophysics","5","74208","0.0-3.0-0.1","","key","arrowright","16.666000000000086","720","382","2","1","1","27","35","25","35","true"
"null","null","psychophysics","6","75211","0.0-3.0-1.1","","key","null","16.666000000000153","720","382","","","","","","","",""
"720.9000000059605","arrowright","psychophysics","7","75938","0.0-3.0-0.2","","key","arrowright","16.66599999999981","720","382","3","1","1","27","35","25","35","true"
"null","null","psychophysics","8","76945","0.0-3.0-1.2","","key","null","16.665999999999904","720","382","","","","","","","",""
"2304","arrowright","psychophysics","9","79256","0.0-3.0-0.3","","key","arrowright","16.66599999999997","720","382","4","1","1","27","15","25","35","true"
"null","null","psychophysics","10","80261","0.0-3.0-1.3","","key","null","16.665999999999904","720","382","","","","","","","",""
"1086.3999999985099","arrowright","psychophysics","11","81354","0.0-3.0-0.4","","key","arrowright","16.666000000000125","720","382","5","1","-1","26","35","25","35","false"
"null","null","psychophysics","12","82361","0.0-3.0-1.4","","key","null","16.665999999999904","720","382","","","","","","","",""
"1092.5999999940395","arrowright","psychophysics","13","83460","0.0-3.0-0.5","","key","arrowright","16.666000000000125","720","382","6","1","1","27","35","25","35","true"
"null","null","psychophysics","14","84462","0.0-3.0-1.5","","key","null","16.665999999999904","720","382","","","","","","","",""
"1453","arrowright","psychophysics","15","85922","0.0-3.0-0.6","","key","arrowright","16.665999999999947","720","382","7","1","-1","25","35","25","35","false"
"null","null","psychophysics","16","86928","0.0-3.0-1.6","","key","null","16.665999999999904","720","382","","","","","","","",""
"1690.7000000029802","arrowleft","psychophysics","17","88625","0.0-3.0-0.7","","key","arrowleft","16.665999999999887","720","382","8","1","1","20","35","25","35","false"
"null","null","psychophysics","18","89628","0.0-3.0-1.7","","key","null","16.665999999999904","720","382","","","","","","","",""
"670.7999999970198","arrowright","psychophysics","19","90305","0.0-3.0-0.8","","key","arrowright","16.665999999999986","720","382","9","1","-1","20","35","25","35","false"
"null","null","psychophysics","20","91311","0.0-3.0-1.8","","key","null","16.666000000000153","720","382","","","","","","","",""
"1601.3999999985099","arrowleft","psychophysics","21","92919","0.0-3.0-0.9","","key","arrowleft","16.676072916666573","720","382","10","1","-1","26","35","25","35","true"
"null","null","psychophysics","22","93925","0.0-3.0-1.9","","key","null","16.665999999999904","720","382","","","","","","","",""
"739.7000000029802","arrowright","psychophysics","23","94669","0.0-3.0-0.10","","key","arrowright","16.666000000000086","720","382","11","1","1","30","35","25","35","true"
"null","null","psychophysics","24","95670","0.0-3.0-1.10","","key","null","16.666000000000153","720","382","","","","","","","",""
"597.9000000059605","arrowleft","psychophysics","25","96272","0.0-3.0-0.11","","key","arrowleft","16.665999999999933","720","382","12","1","1","24","15","25","35","false"
"null","null","psychophysics","26","97278","0.0-3.0-1.11","","key","null","16.665999999999904","720","382","","","","","","","",""
"821.7999999970198","arrowright","psychophysics","27","98106","0.0-3.0-0.12","","key","arrowright","16.665999999999816","720","382","13","1","-1","20","15","25","35","false"
"null","null","psychophysics","28","99111","0.0-3.0-1.12","","key","null","16.666000000000153","720","382","","","","","","","",""
"1533.8999999985099","arrowleft","psychophysics","29","100651","0.0-3.0-0.13","","key","arrowleft","16.66599999999997","720","382","14","1","-1","30","35","25","35","true"
"null","null","psychophysics","30","101656","0.0-3.0-1.13","","key","null","16.666000000000153","720","382","","","","","","","",""
"590.6000000014901","arrowleft","psychophysics","31","102248","0.0-3.0-0.14","","key","arrowleft","16.665999999999933","720","382","15","1","1","26","15","25","35","false"
"null","null","psychophysics","32","103253","0.0-3.0-1.14","","key","null","16.666000000000153","720","382","","","","","","","",""
"733.0999999940395","arrowleft","psychophysics","33","103989","0.0-3.0-0.15","","key","arrowleft","16.66599999999981","720","382","16","1","-1","30","35","25","35","true"
"null","null","psychophysics","34","104994","0.0-3.0-1.15","","key","null","16.665999999999904","720","382","","","","","","","",""
"920.7000000029802","arrowright","psychophysics","35","105922","0.0-3.0-0.16","","key","arrowright","16.666000000000086","720","382","17","1","1","26","35","25","35","true"
"null","null","psychophysics","36","106928","0.0-3.0-1.16","","key","null","16.665999999999904","720","382","","","","","","","",""
"684.2000000029802","arrowleft","psychophysics","37","107618","0.0-3.0-0.17","","key","arrowleft","16.666000000000277","720","382","18","1","-1","27","35","25","35","true"
"null","null","psychophysics","38","108620","0.0-3.0-1.17","","key","null","16.665999999999904","720","382","","","","","","","",""
"515","arrowright","psychophysics","39","109138","0.0-3.0-0.18","","key","arrowright","16.66600000000035","720","382","19","1","-1","20","35","25","35","false"
"null","null","psychophysics","40","110144","0.0-3.0-1.18","","key","null","16.665999999999904","720","382","","","","","","","",""
"1887.9000000059605","arrowright","psychophysics","41","112039","0.0-3.0-0.19","","key","arrowright","16.666000000000015","720","382","20","1","1","30","35","25","35","true"
"null","null","psychophysics","42","113044","0.0-3.0-1.19","","key","null","16.673915254237265","720","382","","","","","","","",""
"484.29999999701977","arrowright","psychophysics","43","113535","0.0-3.0-0.20","","key","arrowright","16.665999999999947","720","382","21","1","-1","23","15","25","35","false"
"null","null","psychophysics","44","114537","0.0-3.0-1.20","","key","null","16.665999999999904","720","382","","","","","","","",""
"762.7000000029802","arrowleft","psychophysics","45","115303","0.0-3.0-0.21","","key","arrowleft","16.666000000000025","720","382","22","1","-1","24","35","25","35","true"
"null","null","psychophysics","46","116310","0.0-3.0-1.21","","key","null","16.665999999999904","720","382","","","","","","","",""
"1038.1999999955297","arrowleft","psychophysics","47","117356","0.0-3.0-0.22","","key","arrowleft","16.66600000000002","720","382","23","1","-1","30","15","25","35","true"
"null","null","psychophysics","48","118360","0.0-3.0-1.22","","key","null","16.666000000000153","720","382","","","","","","","",""
"3385.2000000029802","arrowright","psychophysics","49","121748","0.0-3.0-0.23","","key","arrowright","16.666000000000018","720","382","24","1","1","24","35","25","35","true"
"null","null","psychophysics","50","122750","0.0-3.0-1.23","","key","null","16.665999999999904","720","382","","","","","","","",""
"1702.2000000029802","arrowright","psychophysics","51","124455","0.0-3.0-0.24","","key","arrowright","16.666000000000032","720","382","25","1","1","30","35","25","35","true"
"null","null","psychophysics","52","125461","0.0-3.0-1.24","","key","null","16.666000000000153","720","382","","","","","","","",""
"1552.7000000029802","arrowleft","psychophysics","53","127019","0.0-3.0-0.25","","key","arrowleft","16.665999999999944","720","382","26","1","-1","26","15","25","35","true"
"null","null","psychophysics","54","128023","0.0-3.0-1.25","","key","null","16.666000000000153","720","382","","","","","","","",""
"2411.10000000149","arrowleft","psychophysics","55","130438","0.0-3.0-0.26","","key","arrowleft","16.666000000000068","720","382","27","1","1","27","35","25","35","false"
"null","null","psychophysics","56","131444","0.0-3.0-1.26","","key","null","16.665999999999904","720","382","","","","","","","",""
"1487.3000000044703","arrowleft","psychophysics","57","132938","0.0-3.0-0.27","","key","arrowleft","16.671786516853818","720","382","28","2","-1","30","15","25","35","true"
"null","null","psychophysics","58","133944","0.0-3.0-1.27","","key","null","16.6660000000004","720","382","","","","","","","",""
"4032.89999999851"," ","html-keyboard-response","59","137979","0.0-3.0-2.27-0.27","<div style=""color: white; text-align: center; vertical-align: top; display: inline-block; width: 800px; margin: auto""><p>You have completed 10% of the trials. You are on block 2 of 10. <br>Good job! Take a break if you need to.</p><p>Press any key to continue the experiment.</p></div>","","","","","","","","","","","","",""
"5264.70000000298","arrowright","psychophysics","60","144253","0.0-3.0-0.28","","key","arrowright","16.666000000000018","720","382","29","2","1","26","15","25","35","true"
"null","null","psychophysics","61","145257","0.0-3.0-1.28","","key","null","16.665999999999904","720","382","","","","","","","",""
"1792.2999999970198","arrowleft","psychophysics","62","147053","0.0-3.0-0.29","","key","arrowleft","16.665999999999887","720","382","30","2","-1","23","15","25","35","true"
"null","null","psychophysics","63","148057","0.0-3.0-1.29","","key","null","16.665999999999904","720","382","","","","","","","",""
"920.5","arrowright","psychophysics","64","148982","0.0-3.0-0.30","","key","arrowright","16.666000000000086","720","382","31","2","1","30","35","25","35","true"
"null","null","psychophysics","65","149988","0.0-3.0-1.30","","key","null","16.665999999999904","720","382","","","","","","","",""
"2825.89999999851","arrowright","psychophysics","66","152817","0.0-3.0-0.31","","key","arrowright","16.648071005917018","720","382","32","2","-1","23","35","25","35","false"
"null","null","psychophysics","67","153824","0.0-3.0-1.31","","key","null","16.6660000000004","720","382","","","","","","","",""
"2687.6999999955297","arrowright","psychophysics","68","156518","0.0-3.0-0.32","","key","arrowright","16.66599999999997","720","382","33","2","1","27","15","25","35","true"
"null","null","psychophysics","69","157524","0.0-3.0-1.32","","key","null","16.665999999999904","720","382","","","","","","","",""
"767.1999999955297","arrowleft","psychophysics","70","158297","0.0-3.0-0.33","","key","arrowleft","16.66599999999997","720","382","34","2","-1","26","15","25","35","true"
"null","null","psychophysics","71","159300","0.0-3.0-1.33","","key","null","16.6660000000004","720","382","","","","","","","",""
"764.2999999970198","arrowleft","psychophysics","72","160068","0.0-3.0-0.34","","key","arrowleft","16.666000000000025","720","382","35","2","-1","25","15","25","35","true"
"null","null","psychophysics","73","161074","0.0-3.0-1.34","","key","null","16.665999999999904","720","382","","","","","","","",""
"675.5999999940395","arrowleft","psychophysics","74","161755","0.0-3.0-0.35","","key","arrowleft","16.66600000000035","720","382","36","2","-1","30","35","25","35","true"
"null","null","psychophysics","75","162757","0.0-3.0-1.35","","key","null","16.665999999999904","720","382","","","","","","","",""
"812.7999999970198","arrowleft","psychophysics","76","163576","0.0-3.0-0.36","","key","arrowleft","16.665999999999816","720","382","37","2","1","20","35","25","35","false"
"null","null","psychophysics","77","164578","0.0-3.0-1.36","","key","null","16.665999999999904","720","382","","","","","","","",""
"1020.3000000044703","arrowright","psychophysics","78","165601","0.0-3.0-0.37","","key","arrowright","16.665999999999865","720","382","38","2","1","26","15","25","35","true"
"null","null","psychophysics","79","166607","0.0-3.0-1.37","","key","null","16.665999999999904","720","382","","","","","","","",""
"756.5","arrowleft","psychophysics","80","167370","0.0-3.0-0.38","","key","arrowleft","16.666000000000025","720","382","39","2","-1","24","15","25","35","true"
"null","null","psychophysics","81","168374","0.0-3.0-1.38","","key","null","16.665999999999904","720","382","","","","","","","",""
"2184.39999999851","arrowright","psychophysics","82","170564","0.0-3.0-0.39","","key","arrowright","16.665999999999883","720","382","40","2","-1","24","35","25","35","false"
"null","null","psychophysics","83","171566","0.0-3.0-1.39","","key","null","16.665999999999904","720","382","","","","","","","",""
"2685.5","arrowleft","psychophysics","84","174255","0.0-3.0-0.40","","key","arrowleft","16.66876875000016","720","382","41","2","-1","25","35","25","35","true"
"null","null","psychophysics","85","175257","0.0-3.0-1.40","","key","null","16.665999999999904","720","382","","","","","","","",""
"2687.5","arrowleft","psychophysics","86","177951","0.0-3.0-0.41","","key","arrowleft","16.66599999999997","720","382","42","2","1","25","35","25","35","false"
"null","null","psychophysics","87","178957","0.0-3.0-1.41","","key","null","16.665999999999904","720","382","","","","","","","",""
"3403.5","arrowright","psychophysics","88","182367","0.0-3.0-0.42","","key","arrowright","16.666000000000007","720","382","43","2","1","27","35","25","35","true"
"null","null","psychophysics","89","183374","0.0-3.0-1.42","","key","null","16.6660000000004","720","382","","","","","","","",""
"657.8000000044703","arrowleft","psychophysics","90","184038","0.0-3.0-0.43","","key","arrowleft","16.665999999999677","720","382","44","2","-1","30","15","25","35","true"
"null","null","psychophysics","91","185040","0.0-3.0-1.43","","key","null","16.665999999999904","720","382","","","","","","","",""
"726.3999999985099","arrowleft","psychophysics","92","185773","0.0-3.0-0.44","","key","arrowleft","16.66599999999947","720","382","45","2","-1","30","35","25","35","true"
"null","null","psychophysics","93","186775","0.0-3.0-1.44","","key","null","16.66600000000035","720","382","","","","","","","",""
"2077.2999999970198","arrowright","psychophysics","94","188856","0.0-3.0-0.45","","key","arrowright","16.666000000000043","720","382","46","2","-1","24","35","25","35","false"
"null","null","psychophysics","95","189859","0.0-3.0-1.45","","key","null","16.665999999999865","720","382","","","","","","","",""
"1137.8999999985099","arrowright","psychophysics","96","191000","0.0-3.0-0.46","","key","arrowright","16.666000000000047","720","382","47","2","-1","24","35","25","35","false"
"null","null","psychophysics","97","192007","0.0-3.0-1.46","","key","null","16.665999999999904","720","382","","","","","","","",""
"476.3999999985099","arrowleft","psychophysics","98","192490","0.0-3.0-0.47","","key","arrowleft","16.666000000000558","720","382","48","2","-1","30","15","25","35","true"
"null","null","psychophysics","99","193492","0.0-3.0-1.47","","key","null","16.675666666666803","720","382","","","","","","","",""
"1094.2000000029802","arrowleft","psychophysics","100","194596","0.0-3.0-0.48","","key","arrowleft","16.665999999999677","720","382","49","2","1","26","35","25","35","false"
"null","null","psychophysics","101","195601","0.0-3.0-1.48","","key","null","16.665999999999904","720","382","","","","","","","",""
"658.6999999955297","arrowleft","psychophysics","102","196264","0.0-3.0-0.49","","key","arrowleft","16.665999999999677","720","382","50","2","-1","30","35","25","35","true"
"null","null","psychophysics","103","197265","0.0-3.0-1.49","","key","null","16.6660000000004","720","382","","","","","","","",""
"762","arrowleft","psychophysics","104","198031","0.0-3.0-0.50","","key","arrowleft","16.666000000000025","720","382","51","2","1","23","35","25","35","false"
"null","null","psychophysics","105","199033","0.0-3.0-1.50","","key","null","16.665999999999904","720","382","","","","","","","",""
"2078","arrowleft","psychophysics","106","201114","0.0-3.0-0.51","","key","arrowleft","16.66600000000002","720","382","52","2","1","25","35","25","35","false"
"null","null","psychophysics","107","202119","0.0-3.0-1.51","","key","null","16.665999999999904","720","382","","","","","","","",""
"794.8000000044703","arrowright","psychophysics","108","202918","0.0-3.0-0.52","","key","arrowright","16.665999999999915","720","382","53","2","1","27","15","25","35","true"
"null","null","psychophysics","109","203923","0.0-3.0-1.52","","key","null","16.6660000000004","720","382","","","","","","","",""
"1048.3999999985099","arrowleft","psychophysics","110","204973","0.0-3.0-0.53","","key","arrowleft","16.665999999999787","720","382","54","2","-1","26","35","25","35","true"
"null","null","psychophysics","111","205975","0.0-3.0-1.53","","key","null","16.66600000000035","720","382","","","","","","","",""
"1463.5","arrowright","psychophysics","112","207442","0.0-3.0-0.54","","key","arrowright","16.66599999999978","720","382","55","2","-1","23","35","25","35","false"
"null","null","psychophysics","113","208449","0.0-3.0-1.54","","key","null","16.6660000000004","720","382","","","","","","","",""
"511.70000000298023","arrowleft","psychophysics","114","208964","0.0-3.0-0.55","","key","arrowleft","16.66599999999938","720","382","56","3","1","20","15","25","35","false"
"null","null","psychophysics","115","209970","0.0-3.0-1.55","","key","null","16.6660000000004","720","382","","","","","","","",""
"321791.8999999985"," ","html-keyboard-response","116","531766","0.0-3.0-2.55-0.55","<div style=""color: white; text-align: center; vertical-align: top; display: inline-block; width: 800px; margin: auto""><p>You have completed 20% of the trials. You are on block 3 of 10. <br>Good job! Take a break if you need to.</p><p>Press any key to continue the experiment.</p></div>","","","","","","","","","","","","",""
"798.1000000014901","arrowright","psychophysics","117","533574","0.0-3.0-0.56","","key","arrowright","16.665999999999865","720","382","57","3","1","30","15","25","35","true"
"null","null","psychophysics","118","534575","0.0-3.0-1.56","","key","null","16.665999999999904","720","382","","","","","","","",""
"700.3999999985099","arrowleft","psychophysics","119","535278","0.0-3.0-0.57","","key","arrowleft","16.665999999999567","720","382","58","3","-1","27","15","25","35","true"
"null","null","psychophysics","120","536284","0.0-3.0-1.57","","key","null","16.665999999999904","720","382","","","","","","","",""
"959.6999999955297","arrowleft","psychophysics","121","537248","0.0-3.0-0.58","","key","arrowleft","16.66599999999897","720","382","59","3","-1","20","15","25","35","true"
"null","null","psychophysics","122","538251","0.0-3.0-1.58","","key","null","16.665999999999904","720","382","","","","","","","",""
"1394.5999999940395","arrowleft","psychophysics","123","539650","0.0-3.0-0.59","","key","arrowleft","16.666000000000594","720","382","60","3","1","24","35","25","35","false"
"null","null","psychophysics","124","540655","0.0-3.0-1.59","","key","null","16.665999999999904","720","382","","","","","","","",""
"734.6000000014901","arrowright","psychophysics","125","541394","0.0-3.0-0.60","","key","arrowright","16.666000000000086","720","382","61","3","-1","23","35","25","35","false"
"null","null","psychophysics","126","542401","0.0-3.0-1.60","","key","null","16.665999999999904","720","382","","","","","","","",""
"773.1000000014901","arrowleft","psychophysics","127","543177","0.0-3.0-0.61","","key","arrowleft","16.665999999998704","720","382","62","3","-1","27","35","25","35","true"
"null","null","psychophysics","128","544179","0.0-3.0-1.61","","key","null","16.665999999999904","720","382","","","","","","","",""
"627.8000000044703","arrowright","psychophysics","129","544811","0.0-3.0-0.62","","key","arrowright","16.665999999999798","720","382","63","3","1","27","15","25","35","true"
"null","null","psychophysics","130","545813","0.0-3.0-1.62","","key","null","16.665999999999904","720","382","","","","","","","",""
"1146.1999999955297","arrowleft","psychophysics","131","546962","0.0-3.0-0.63","","key","arrowleft","16.66599999999915","720","382","64","3","1","24","35","25","35","false"
"null","null","psychophysics","132","547968","0.0-3.0-1.63","","key","null","16.665999999999904","720","382","","","","","","","",""
"1072.3000000044703","arrowleft","psychophysics","133","549044","0.0-3.0-0.64","","key","arrowleft","16.665999999999258","720","382","65","3","-1","26","15","25","35","true"
"null","null","psychophysics","134","550048","0.0-3.0-1.64","","key","null","16.665999999999904","720","382","","","","","","","",""
"757.5","arrowright","psychophysics","135","550810","0.0-3.0-0.65","","key","arrowright","16.66599999999938","720","382","66","3","-1","20","35","25","35","false"
"null","null","psychophysics","136","551813","0.0-3.0-1.65","","key","null","16.665999999999904","720","382","","","","","","","",""
"718.3999999985099","arrowleft","psychophysics","137","552536","0.0-3.0-0.66","","key","arrowleft","16.588116279072235","720","382","67","3","1","24","35","25","35","false"
"null","null","psychophysics","138","553538","0.0-3.0-1.66","","key","null","16.665999999999904","720","382","","","","","","","",""
"822.8999999985099","arrowright","psychophysics","139","554364","0.0-3.0-0.67","","key","arrowright","16.665999999999865","720","382","68","3","-1","25","35","25","35","false"
"null","null","psychophysics","140","555367","0.0-3.0-1.67","","key","null","16.665999999999904","720","382","","","","","","","",""
"2903.5","arrowright","psychophysics","141","558277","0.0-3.0-0.68","","key","arrowright","16.66599999999978","720","382","69","3","1","26","15","25","35","true"
"null","null","psychophysics","142","559279","0.0-3.0-1.68","","key","null","16.665999999999904","720","382","","","","","","","",""
"630.3000000044703","arrowleft","psychophysics","143","559914","0.0-3.0-0.69","","key","arrowleft","16.665999999999798","720","382","70","3","-1","30","15","25","35","true"
"null","null","psychophysics","144","560917","0.0-3.0-1.69","","key","null","16.665999999999904","720","382","","","","","","","",""
"1320.4000000059605","arrowright","psychophysics","145","562244","0.0-3.0-0.70","","key","arrowright","16.666000000000754","720","382","71","3","-1","23","35","25","35","false"
"null","null","psychophysics","146","563250","0.0-3.0-1.70","","key","null","16.665999999999904","720","382","","","","","","","",""
"950.6000000014901","arrowright","psychophysics","147","564207","0.0-3.0-0.71","","key","arrowright","16.666000000001013","720","382","72","3","-1","26","35","25","35","false"
"null","null","psychophysics","148","565209","0.0-3.0-1.71","","key","null","16.665999999999904","720","382","","","","","","","",""
"500.19999999552965","arrowright","psychophysics","149","565713","0.0-3.0-0.72","","key","arrowright","16.665999999996437","720","382","73","3","1","30","35","25","35","true"
"null","null","psychophysics","150","566717","0.0-3.0-1.72","","key","null","16.665999999999904","720","382","","","","","","","",""
"1008.8999999985099","arrowright","psychophysics","151","567733","0.0-3.0-0.73","","key","arrowright","16.66599999999938","720","382","74","3","1","25","15","25","35","true"
"null","null","psychophysics","152","568736","0.0-3.0-1.73","","key","null","16.66599999999938","720","382","","","","","","","",""
"621.2999999970198","arrowright","psychophysics","153","569361","0.0-3.0-0.74","","key","arrowright","16.666000000000672","720","382","75","3","1","24","15","25","35","true"
"null","null","psychophysics","154","570363","0.0-3.0-1.74","","key","null","16.665999999999904","720","382","","","","","","","",""
"527.5","arrowright","psychophysics","155","570895","0.0-3.0-0.75","","key","arrowright","16.665999999998377","720","382","76","3","1","30","15","25","35","true"
"null","null","psychophysics","156","571900","0.0-3.0-1.75","","key","null","16.678864406780892","720","382","","","","","","","",""
"923.4000000059605","arrowleft","psychophysics","157","572828","0.0-3.0-0.76","","key","arrowleft","16.666000000000086","720","382","77","3","1","23","35","25","35","false"
"null","null","psychophysics","158","573834","0.0-3.0-1.76","","key","null","16.665999999999904","720","382","","","","","","","",""
"887.8999999985099","arrowleft","psychophysics","159","574728","0.0-3.0-0.77","","key","arrowleft","16.666000000001283","720","382","78","3","-1","27","35","25","35","true"
"null","null","psychophysics","160","575731","0.0-3.0-1.77","","key","null","16.665999999999904","720","382","","","","","","","",""
"1139.7999999970198","arrowleft","psychophysics","161","576875","0.0-3.0-0.78","","key","arrowleft","16.666000000000864","720","382","79","3","1","23","35","25","35","false"
"null","null","psychophysics","162","577876","0.0-3.0-1.78","","key","null","16.665999999999904","720","382","","","","","","","",""
"2301.7000000029802","arrowleft","psychophysics","163","580182","0.0-3.0-0.79","","key","arrowleft","16.665999999999777","720","382","80","3","-1","24","15","25","35","true"
"null","null","psychophysics","164","581184","0.0-3.0-1.79","","key","null","16.665999999999904","720","382","","","","","","","",""
"603.8999999985099","arrowright","psychophysics","165","581794","0.0-3.0-0.80","","key","arrowright","16.666000000000672","720","382","81","3","1","24","15","25","35","true"
"null","null","psychophysics","166","582800","0.0-3.0-1.80","","key","null","16.66600000000188","720","382","","","","","","","",""
"2205","arrowleft","psychophysics","167","585010","0.0-3.0-0.81","","key","arrowleft","16.666000000000086","720","382","82","3","1","23","35","25","35","false"
"null","null","psychophysics","168","586012","0.0-3.0-1.81","","key","null","16.665999999999904","720","382","","","","","","","",""
"3477.10000000149","arrowleft","psychophysics","169","589493","0.0-3.0-0.82","","key","arrowleft","16.66600000000024","720","382","83","3","1","23","15","25","35","false"
"null","null","psychophysics","170","590495","0.0-3.0-1.82","","key","null","16.665999999999904","720","382","","","","","","","",""
"1019.7000000029802","arrowleft","psychophysics","171","591519","0.0-3.0-0.83","","key","arrowleft","16.66600000000078","720","382","84","4","-1","26","35","25","35","true"
"null","null","psychophysics","172","592525","0.0-3.0-1.83","","key","null","16.67396610169632","720","382","","","","","","","",""
"2449.39999999851"," ","html-keyboard-response","173","594979","0.0-3.0-2.83-0.83","<div style=""color: white; text-align: center; vertical-align: top; display: inline-block; width: 800px; margin: auto""><p>You have completed 30% of the trials. You are on block 4 of 10. <br>Good job! Take a break if you need to.</p><p>Press any key to continue the experiment.</p></div>","","","","","","","","","","","","",""
"785.3000000044703","arrowleft","psychophysics","174","596773","0.0-3.0-0.84","","key","arrowleft","16.666000000000533","720","382","85","4","-1","30","15","25","35","true"
"null","null","psychophysics","175","597776","0.0-3.0-1.84","","key","null","16.665999999999904","720","382","","","","","","","",""
"911.5","arrowleft","psychophysics","176","598691","0.0-3.0-0.85","","key","arrowleft","16.665999999998515","720","382","86","4","-1","25","15","25","35","true"
"null","null","psychophysics","177","599697","0.0-3.0-1.85","","key","null","16.665999999999904","720","382","","","","","","","",""
"2145.39999999851","arrowright","psychophysics","178","601847","0.0-3.0-0.86","","key","arrowright","16.666000000000167","720","382","87","4","1","26","35","25","35","true"
"null","null","psychophysics","179","602851","0.0-3.0-1.86","","key","null","16.665999999999904","720","382","","","","","","","",""
"534.7999999970198","arrowleft","psychophysics","180","603391","0.0-3.0-0.87","","key","arrowleft","16.666000000001077","720","382","88","4","-1","25","15","25","35","true"
"null","null","psychophysics","181","604392","0.0-3.0-1.87","","key","null","16.665999999999904","720","382","","","","","","","",""
"533.6000000014901","arrowright","psychophysics","182","604930","0.0-3.0-0.88","","key","arrowright","16.665999999998377","720","382","89","4","1","25","15","25","35","true"
"null","null","psychophysics","183","605931","0.0-3.0-1.88","","key","null","16.665999999999904","720","382","","","","","","","",""
"642.8000000044703","arrowleft","psychophysics","184","606577","0.0-3.0-0.89","","key","arrowleft","16.66599999999897","720","382","90","4","-1","24","15","25","35","true"
"null","null","psychophysics","185","607580","0.0-3.0-1.89","","key","null","16.665999999999904","720","382","","","","","","","",""
"624.7999999970198","arrowleft","psychophysics","186","608209","0.0-3.0-0.90","","key","arrowleft","16.665999999999798","720","382","91","4","-1","27","15","25","35","true"
"null","null","psychophysics","187","609213","0.0-3.0-1.90","","key","null","16.665999999999904","720","382","","","","","","","",""
"1139.6000000014901","arrowright","psychophysics","188","610355","0.0-3.0-0.91","","key","arrowright","16.666000000000864","720","382","92","4","-1","24","35","25","35","false"
"null","null","psychophysics","189","611361","0.0-3.0-1.91","","key","null","16.665999999999904","720","382","","","","","","","",""
"992","arrowleft","psychophysics","190","612358","0.0-3.0-0.92","","key","arrowleft","16.619796610170958","720","382","93","4","1","23","35","25","35","false"
"null","null","psychophysics","191","613363","0.0-3.0-1.92","","key","null","16.665999999999904","720","382","","","","","","","",""
"573","arrowleft","psychophysics","192","613943","0.0-3.0-0.93","","key","arrowleft","16.66599999999915","720","382","94","4","-1","30","35","25","35","true"
"null","null","psychophysics","193","614947","0.0-3.0-1.93","","key","null","16.665999999999904","720","382","","","","","","","",""
"857.6000000014901","arrowright","psychophysics","194","615813","0.0-3.0-0.94","","key","arrowright","16.66600000000029","720","382","95","4","1","27","35","25","35","true"
"null","null","psychophysics","195","616815","0.0-3.0-1.94","","key","null","16.66599999999938","720","382","","","","","","","",""
"791.5","arrowright","psychophysics","196","617611","0.0-3.0-0.95","","key","arrowright","16.665999999998704","720","382","96","4","1","25","15","25","35","true"
"null","null","psychophysics","197","618613","0.0-3.0-1.95","","key","null","16.66600000000188","720","382","","","","","","","",""
"652.1999999955297","arrowright","psychophysics","198","619269","0.0-3.0-0.96","","key","arrowright","16.665999999998185","720","382","97","4","-1","20","35","25","35","false"
"null","null","psychophysics","199","620271","0.0-3.0-1.96","","key","null","16.665999999999904","720","382","","","","","","","",""
"781.2999999970198","arrowright","psychophysics","200","621056","0.0-3.0-0.97","","key","arrowright","16.665999999998704","720","382","98","4","1","25","15","25","35","true"
"null","null","psychophysics","201","622058","0.0-3.0-1.97","","key","null","16.665999999999904","720","382","","","","","","","",""
"851.6000000014901","arrowleft","psychophysics","202","622913","0.0-3.0-0.98","","key","arrowleft","16.66600000000093","720","382","99","4","-1","26","35","25","35","true"
"null","null","psychophysics","203","623916","0.0-3.0-1.98","","key","null","16.66599999999938","720","382","","","","","","","",""
"990.6999999955297","arrowleft","psychophysics","204","624910","0.0-3.0-0.99","","key","arrowleft","16.66599999999844","720","382","100","4","-1","23","15","25","35","true"
"null","null","psychophysics","205","625913","0.0-3.0-1.99","","key","null","16.665999999999904","720","382","","","","","","","",""
"550.7999999970198","arrowleft","psychophysics","206","626469","0.0-3.0-0.100","","key","arrowleft","16.666000000000086","720","382","101","4","-1","25","15","25","35","true"
"null","null","psychophysics","207","627474","0.0-3.0-1.100","","key","null","16.665999999999904","720","382","","","","","","","",""
"1397.5","arrowleft","psychophysics","208","628875","0.0-3.0-0.101","","key","arrowleft","16.666000000000594","720","382","102","4","1","24","35","25","35","false"
"null","null","psychophysics","209","629882","0.0-3.0-1.101","","key","null","16.66600000000132","720","382","","","","","","","",""
"550","arrowleft","psychophysics","210","630435","0.0-3.0-0.102","","key","arrowleft","16.666000000001077","720","382","103","4","-1","30","35","25","35","true"
"null","null","psychophysics","211","631437","0.0-3.0-1.102","","key","null","16.665999999999904","720","382","","","","","","","",""
"550.7000000029802","arrowright","psychophysics","212","631991","0.0-3.0-0.103","","key","arrowright","16.606656250001834","720","382","104","4","1","27","15","25","35","true"
"null","null","psychophysics","213","632995","0.0-3.0-1.103","","key","null","16.665999999999904","720","382","","","","","","","",""
"903","arrowright","psychophysics","214","633904","0.0-3.0-0.104","","key","arrowright","16.666000000000672","720","382","105","4","-1","23","35","25","35","false"
"null","null","psychophysics","215","634907","0.0-3.0-1.104","","key","null","16.665999999999904","720","382","","","","","","","",""
"689.3999999985099","arrowright","psychophysics","216","635600","0.0-3.0-0.105","","key","arrowright","16.665999999999567","720","382","106","4","1","27","35","25","35","true"
"null","null","psychophysics","217","636603","0.0-3.0-1.105","","key","null","16.665999999999904","720","382","","","","","","","",""
"493.79999999701977","arrowleft","psychophysics","218","637101","0.0-3.0-0.106","","key","arrowleft","16.666000000000448","720","382","107","4","-1","30","15","25","35","true"
"null","null","psychophysics","219","638104","0.0-3.0-1.106","","key","null","16.66600000000188","720","382","","","","","","","",""
"516","arrowright","psychophysics","220","638624","0.0-3.0-0.107","","key","arrowright","16.66599999999938","720","382","108","4","1","26","35","25","35","true"
"null","null","psychophysics","221","639626","0.0-3.0-1.107","","key","null","16.665999999999904","720","382","","","","","","","",""
"511.1000000014901","arrowleft","psychophysics","222","640142","0.0-3.0-0.108","","key","arrowleft","16.66599999999938","720","382","109","4","1","20","35","25","35","false"
"null","null","psychophysics","223","641145","0.0-3.0-1.108","","key","null","16.665999999999904","720","382","","","","","","","",""
"506.5","arrowright","psychophysics","224","641657","0.0-3.0-0.109","","key","arrowright","16.66599999999938","720","382","110","4","-1","20","35","25","35","false"
"null","null","psychophysics","225","642659","0.0-3.0-1.109","","key","null","16.665999999999904","720","382","","","","","","","",""
"690.7999999970198","arrowleft","psychophysics","226","643354","0.0-3.0-0.110","","key","arrowleft","16.665999999999567","720","382","111","4","-1","27","15","25","35","true"
"null","null","psychophysics","227","644359","0.0-3.0-1.110","","key","null","16.66600000000188","720","382","","","","","","","",""
"637.2999999970198","arrowright","psychophysics","228","645001","0.0-3.0-0.111","","key","arrowright","16.66599999999897","720","382","112","5","-1","20","35","25","35","false"
"null","null","psychophysics","229","646003","0.0-3.0-1.111","","key","null","16.665999999999904","720","382","","","","","","","",""
"2354.4000000059605"," ","html-keyboard-response","230","648360","0.0-3.0-2.111-0.111","<div style=""color: white; text-align: center; vertical-align: top; display: inline-block; width: 800px; margin: auto""><p>You have completed 40% of the trials. You are on block 5 of 10. <br>Good job! Take a break if you need to.</p><p>Press any key to continue the experiment.</p></div>","","","","","","","","","","","","",""
"1063.7000000029802","arrowright","psychophysics","231","650434","0.0-3.0-0.112","","key","arrowright","16.666000000001077","720","382","113","5","1","25","15","25","35","true"
"null","null","psychophysics","232","651440","0.0-3.0-1.112","","key","null","16.665999999999904","720","382","","","","","","","",""
"608","arrowleft","psychophysics","233","652052","0.0-3.0-0.113","","key","arrowleft","16.571861111112714","720","382","114","5","1","20","15","25","35","false"
"null","null","psychophysics","234","653057","0.0-3.0-1.113","","key","null","16.665999999999904","720","382","","","","","","","",""
"753.2999999970198","arrowleft","psychophysics","235","653817","0.0-3.0-0.114","","key","arrowleft","16.66599999999938","720","382","115","5","-1","27","35","25","35","true"
"null","null","psychophysics","236","654819","0.0-3.0-1.114","","key","null","16.665999999999904","720","382","","","","","","","",""
"1461.5","arrowleft","psychophysics","237","656284","0.0-3.0-0.115","","key","arrowleft","16.666000000000448","720","382","116","5","1","20","15","25","35","false"
"null","null","psychophysics","238","657290","0.0-3.0-1.115","","key","null","16.665999999999904","720","382","","","","","","","",""
"486.59999999403954","arrowright","psychophysics","239","657783","0.0-3.0-0.116","","key","arrowright","16.665999999996437","720","382","117","5","1","24","15","25","35","true"
"null","null","psychophysics","240","658785","0.0-3.0-1.116","","key","null","16.665999999999904","720","382","","","","","","","",""
"551","arrowright","psychophysics","241","659339","0.0-3.0-0.117","","key","arrowright","16.666000000001077","720","382","118","5","-1","20","35","25","35","false"
"null","null","psychophysics","242","660342","0.0-3.0-1.117","","key","null","16.66599999999938","720","382","","","","","","","",""
"520.7000000029802","arrowleft","psychophysics","243","660866","0.0-3.0-0.118","","key","arrowleft","16.66599999999938","720","382","119","5","-1","30","15","25","35","true"
"null","null","psychophysics","244","661872","0.0-3.0-1.118","","key","null","16.665999999999904","720","382","","","","","","","",""
"697.5","arrowright","psychophysics","245","662571","0.0-3.0-0.119","","key","arrowright","16.66600000000241","720","382","120","5","-1","25","35","25","35","false"
"null","null","psychophysics","246","663574","0.0-3.0-1.119","","key","null","16.665999999999904","720","382","","","","","","","",""
"1032.6999999955297","arrowleft","psychophysics","247","664613","0.0-3.0-0.120","","key","arrowleft","16.666000000000256","720","382","121","5","-1","25","15","25","35","true"
"null","null","psychophysics","248","665615","0.0-3.0-1.120","","key","null","16.665999999999904","720","382","","","","","","","",""
"556.3999999985099","arrowright","psychophysics","249","666174","0.0-3.0-0.121","","key","arrowright","16.66599999999744","720","382","122","5","1","30","15","25","35","true"
"null","null","psychophysics","250","667176","0.0-3.0-1.121","","key","null","16.66599999999938","720","382","","","","","","","",""
"564","arrowleft","psychophysics","251","667751","0.0-3.0-0.122","","key","arrowleft","16.666000000000086","720","382","123","5","1","20","35","25","35","false"
"null","null","psychophysics","252","668754","0.0-3.0-1.122","","key","null","16.665999999999904","720","382","","","","","","","",""
"706.2000000029802","arrowleft","psychophysics","253","669464","0.0-3.0-0.123","","key","arrowleft","16.665999999998824","720","382","124","5","-1","25","15","25","35","true"
"null","null","psychophysics","254","670470","0.0-3.0-1.123","","key","null","16.665999999999904","720","382","","","","","","","",""
"573.3000000044703","arrowright","psychophysics","255","671047","0.0-3.0-0.124","","key","arrowright","16.66599999999915","720","382","125","5","-1","26","35","25","35","false"
"null","null","psychophysics","256","672054","0.0-3.0-1.124","","key","null","16.61869491525468","720","382","","","","","","","",""
"899.5","arrowright","psychophysics","257","672959","0.0-3.0-0.125","","key","arrowright","16.666000000000672","720","382","126","5","-1","25","35","25","35","false"
"null","null","psychophysics","258","673961","0.0-3.0-1.125","","key","null","16.665999999999904","720","382","","","","","","","",""
"601.5","arrowright","psychophysics","259","674566","0.0-3.0-0.126","","key","arrowright","16.66599999999827","720","382","127","5","1","30","35","25","35","true"
"null","null","psychophysics","260","675570","0.0-3.0-1.126","","key","null","16.665999999999904","720","382","","","","","","","",""
"2592.3000000044703","arrowleft","psychophysics","261","678169","0.0-3.0-0.127","","key","arrowleft","16.66599999999988","720","382","128","5","-1","24","15","25","35","true"
"null","null","psychophysics","262","679170","0.0-3.0-1.127","","key","null","16.665999999999904","720","382","","","","","","","",""
"2886.7999999970198","arrowleft","psychophysics","263","682063","0.0-3.0-0.128","","key","arrowleft","16.666000000000636","720","382","129","5","1","20","15","25","35","false"
"null","null","psychophysics","264","683065","0.0-3.0-1.128","","key","null","16.665999999999904","720","382","","","","","","","",""
"3102.89999999851","arrowleft","psychophysics","265","686172","0.0-3.0-0.129","","key","arrowleft","16.665999999999798","720","382","130","5","1","20","15","25","35","false"
"null","null","psychophysics","266","687174","0.0-3.0-1.129","","key","null","16.66599999999938","720","382","","","","","","","",""
"808.7999999970198","arrowleft","psychophysics","267","687985","0.0-3.0-0.130","","key","arrowleft","16.666000000000533","720","382","131","5","-1","24","15","25","35","true"
"null","null","psychophysics","268","688989","0.0-3.0-1.130","","key","null","16.66600000000132","720","382","","","","","","","",""
"954.8999999985099","arrowleft","psychophysics","269","689947","0.0-3.0-0.131","","key","arrowleft","16.665999999999517","720","382","132","5","1","20","35","25","35","false"
"null","null","psychophysics","270","690953","0.0-3.0-1.131","","key","null","16.665999999999904","720","382","","","","","","","",""
"895.3999999985099","arrowright","psychophysics","271","691850","0.0-3.0-0.132","","key","arrowright","16.665999999999087","720","382","133","5","1","25","15","25","35","true"
"null","null","psychophysics","272","692853","0.0-3.0-1.132","","key","null","16.667152542374254","720","382","","","","","","","",""
"937.3999999985099","arrowright","psychophysics","273","693797","0.0-3.0-0.133","","key","arrowright","16.665999999999517","720","382","134","5","-1","24","35","25","35","false"
"null","null","psychophysics","274","694804","0.0-3.0-1.133","","key","null","16.665999999999904","720","382","","","","","","","",""
"542.3999999985099","arrowleft","psychophysics","275","695349","0.0-3.0-0.134","","key","arrowleft","16.666000000001077","720","382","135","5","-1","27","15","25","35","true"
"null","null","psychophysics","276","696353","0.0-3.0-1.134","","key","null","16.665999999999904","720","382","","","","","","","",""
"496","arrowright","psychophysics","277","696855","0.0-3.0-0.135","","key","arrowright","16.66599999999938","720","382","136","5","1","30","15","25","35","true"
"null","null","psychophysics","278","697857","0.0-3.0-1.135","","key","null","16.665999999999904","720","382","","","","","","","",""
"553.3000000044703","arrowleft","psychophysics","279","698413","0.0-3.0-0.136","","key","arrowleft","16.666000000001077","720","382","137","5","-1","24","15","25","35","true"
"null","null","psychophysics","280","699415","0.0-3.0-1.136","","key","null","16.665999999999904","720","382","","","","","","","",""
"1066.2999999970198","arrowleft","psychophysics","281","700485","0.0-3.0-0.137","","key","arrowleft","16.665999999999748","720","382","138","5","-1","27","35","25","35","true"
"null","null","psychophysics","282","701488","0.0-3.0-1.137","","key","null","16.66599999999938","720","382","","","","","","","",""
"902","arrowright","psychophysics","283","702394","0.0-3.0-0.138","","key","arrowright","16.666000000001283","720","382","139","5","1","26","35","25","35","true"
"null","null","psychophysics","284","703396","0.0-3.0-1.138","","key","null","16.665999999999904","720","382","","","","","","","",""
"1630.8999999985099","arrowright","psychophysics","285","705030","0.0-3.0-0.139","","key","arrowright","16.66600000000074","720","382","140","6","-1","20","15","25","35","false"
"null","null","psychophysics","286","706032","0.0-3.0-1.139","","key","null","16.665999999999904","720","382","","","","","","","",""
"1777.3999999985099"," ","html-keyboard-response","287","707811","0.0-3.0-2.139-0.139","<div style=""color: white; text-align: center; vertical-align: top; display: inline-block; width: 800px; margin: auto""><p>You have completed 50% of the trials. You are on block 6 of 10. <br>Good job! Take a break if you need to.</p><p>Press any key to continue the experiment.</p></div>","","","","","","","","","","","","",""
"812.8000000044703","arrowright","psychophysics","288","709632","0.0-3.0-0.140","","key","arrowright","16.666000000001596","720","382","141","6","1","24","15","25","35","true"
"null","null","psychophysics","289","710633","0.0-3.0-1.140","","key","null","16.665999999999904","720","382","","","","","","","",""
"750.9000000059605","arrowright","psychophysics","290","711388","0.0-3.0-0.141","","key","arrowright","16.66599999999938","720","382","142","6","1","25","15","25","35","true"
"null","null","psychophysics","291","712392","0.0-3.0-1.141","","key","null","16.622491525422973","720","382","","","","","","","",""
"614.5999999940395","arrowleft","psychophysics","292","713010","0.0-3.0-0.142","","key","arrowleft","16.666000000000672","720","382","143","6","-1","24","15","25","35","true"
"null","null","psychophysics","293","714016","0.0-3.0-1.142","","key","null","16.66600000000188","720","382","","","","","","","",""
"690.2000000029802","arrowright","psychophysics","294","714710","0.0-3.0-0.143","","key","arrowright","16.665999999999567","720","382","144","6","1","27","15","25","35","true"
"null","null","psychophysics","295","715716","0.0-3.0-1.143","","key","null","16.665999999999904","720","382","","","","","","","",""
"724.7999999970198","arrowright","psychophysics","296","716448","0.0-3.0-0.144","","key","arrowright","16.665999999998117","720","382","145","6","1","27","15","25","35","true"
"null","null","psychophysics","297","717450","0.0-3.0-1.144","","key","null","16.665999999999904","720","382","","","","","","","",""
"520.3999999985099","arrowleft","psychophysics","298","717977","0.0-3.0-0.145","","key","arrowleft","16.665999999998377","720","382","146","6","-1","26","15","25","35","true"
"null","null","psychophysics","299","718978","0.0-3.0-1.145","","key","null","16.665999999999904","720","382","","","","","","","",""
"544.3999999985099","arrowleft","psychophysics","300","719527","0.0-3.0-0.146","","key","arrowleft","16.666000000001077","720","382","147","6","-1","25","15","25","35","true"
"null","null","psychophysics","301","720533","0.0-3.0-1.146","","key","null","16.665999999999904","720","382","","","","","","","",""
"1504.7999999970198","arrowleft","psychophysics","302","722044","0.0-3.0-0.147","","key","arrowleft","16.666000000000672","720","382","148","6","1","20","15","25","35","false"
"null","null","psychophysics","303","723046","0.0-3.0-1.147","","key","null","16.665999999999904","720","382","","","","","","","",""
"665.3000000044703","arrowright","psychophysics","304","723715","0.0-3.0-0.148","","key","arrowright","16.66600000000117","720","382","149","6","-1","24","35","25","35","false"
"null","null","psychophysics","305","724716","0.0-3.0-1.148","","key","null","16.665999999999904","720","382","","","","","","","",""
"787.6000000014901","arrowright","psychophysics","306","725510","0.0-3.0-0.149","","key","arrowright","16.666000000000533","720","382","150","6","1","26","35","25","35","true"
"null","null","psychophysics","307","726516","0.0-3.0-1.149","","key","null","16.66600000000188","720","382","","","","","","","",""
"670.1999999955297","arrowright","psychophysics","308","727193","0.0-3.0-0.150","","key","arrowright","16.66600000000035","720","382","151","6","1","23","15","25","35","true"
"null","null","psychophysics","309","728200","0.0-3.0-1.150","","key","null","16.665999999999904","720","382","","","","","","","",""
"723.7000000029802","arrowright","psychophysics","310","728931","0.0-3.0-0.151","","key","arrowright","16.666000000000825","720","382","152","6","1","23","15","25","35","true"
"null","null","psychophysics","311","729934","0.0-3.0-1.151","","key","null","16.665999999999904","720","382","","","","","","","",""
"532.1000000014901","arrowright","psychophysics","312","730472","0.0-3.0-0.152","","key","arrowright","16.66599999999744","720","382","153","6","1","26","15","25","35","true"
"null","null","psychophysics","313","731475","0.0-3.0-1.152","","key","null","16.665999999999904","720","382","","","","","","","",""
"761.8000000044703","arrowleft","psychophysics","314","732240","0.0-3.0-0.153","","key","arrowleft","16.67753333333207","720","382","154","6","1","23","35","25","35","false"
"null","null","psychophysics","315","733242","0.0-3.0-1.153","","key","null","16.665999999999904","720","382","","","","","","","",""
"531","arrowright","psychophysics","316","733777","0.0-3.0-0.154","","key","arrowright","16.665999999998377","720","382","155","6","-1","23","35","25","35","false"
"null","null","psychophysics","317","734783","0.0-3.0-1.154","","key","null","16.665999999999904","720","382","","","","","","","",""
"623.2999999970198","arrowright","psychophysics","318","735410","0.0-3.0-0.155","","key","arrowright","16.665999999999798","720","382","156","6","1","23","15","25","35","true"
"null","null","psychophysics","319","736416","0.0-3.0-1.155","","key","null","16.665999999999904","720","382","","","","","","","",""
"570.5","arrowright","psychophysics","320","736993","0.0-3.0-0.156","","key","arrowright","16.66599999999915","720","382","157","6","1","24","15","25","35","true"
"null","null","psychophysics","321","737999","0.0-3.0-1.156","","key","null","16.665999999999904","720","382","","","","","","","",""
"901.1000000014901","arrowleft","psychophysics","322","738907","0.0-3.0-0.157","","key","arrowleft","16.666000000000672","720","382","158","6","1","26","35","25","35","false"
"null","null","psychophysics","323","739908","0.0-3.0-1.157","","key","null","16.665999999999904","720","382","","","","","","","",""
"513.8999999985099","arrowleft","psychophysics","324","740426","0.0-3.0-0.158","","key","arrowleft","16.66599999999938","720","382","159","6","-1","27","15","25","35","true"
"null","null","psychophysics","325","741432","0.0-3.0-1.158","","key","null","16.665999999999904","720","382","","","","","","","",""
"561.2000000029802","arrowleft","psychophysics","326","742000","0.0-3.0-0.159","","key","arrowleft","16.666000000000086","720","382","160","6","-1","26","15","25","35","true"
"null","null","psychophysics","327","743002","0.0-3.0-1.159","","key","null","16.66599999999938","720","382","","","","","","","",""
"1166","arrowright","psychophysics","328","744171","0.0-3.0-0.160","","key","arrowright","16.66600000000039","720","382","161","6","1","24","35","25","35","true"
"null","null","psychophysics","329","745175","0.0-3.0-1.160","","key","null","16.665999999999904","720","382","","","","","","","",""
"681.6999999955297","arrowleft","psychophysics","330","745860","0.0-3.0-0.161","","key","arrowleft","16.66600000000035","720","382","162","6","-1","24","15","25","35","true"
"null","null","psychophysics","331","746866","0.0-3.0-1.161","","key","null","16.665999999999904","720","382","","","","","","","",""
"621.1000000014901","arrowleft","psychophysics","332","747494","0.0-3.0-0.162","","key","arrowleft","16.665999999999798","720","382","163","6","1","24","15","25","35","false"
"null","null","psychophysics","333","748499","0.0-3.0-1.162","","key","null","16.665999999999904","720","382","","","","","","","",""
"584.6000000014901","arrowleft","psychophysics","334","749090","0.0-3.0-0.163","","key","arrowleft","16.66599999999827","720","382","164","6","-1","25","15","25","35","true"
"null","null","psychophysics","335","750095","0.0-3.0-1.163","","key","null","16.665999999999904","720","382","","","","","","","",""
"1183.3999999985099","arrowleft","psychophysics","336","751282","0.0-3.0-0.164","","key","arrowleft","16.665999999999933","720","382","165","6","1","23","35","25","35","false"
"null","null","psychophysics","337","752285","0.0-3.0-1.164","","key","null","16.675233333334713","720","382","","","","","","","",""
"621.2000000029802","arrowleft","psychophysics","338","752910","0.0-3.0-0.165","","key","arrowleft","16.666000000000672","720","382","166","6","-1","24","15","25","35","true"
"null","null","psychophysics","339","753916","0.0-3.0-1.165","","key","null","16.665999999999904","720","382","","","","","","","",""
"537.4000000059605","arrowleft","psychophysics","340","754460","0.0-3.0-0.166","","key","arrowleft","16.666000000001077","720","382","167","6","-1","25","15","25","35","true"
"null","null","psychophysics","341","755466","0.0-3.0-1.166","","key","null","16.665999999999904","720","382","","","","","","","",""
"2004.2999999970198","arrowleft","psychophysics","342","757476","0.0-3.0-0.167","","key","arrowleft","16.66600000000035","720","382","168","7","1","23","15","25","35","false"
"null","null","psychophysics","343","758483","0.0-3.0-1.167","","key","null","16.665999999999904","720","382","","","","","","","",""
"2784"," ","html-keyboard-response","344","761268","0.0-3.0-2.167-0.167","<div style=""color: white; text-align: center; vertical-align: top; display: inline-block; width: 800px; margin: auto""><p>You have completed 60% of the trials. You are on block 7 of 10. <br>Good job! Take a break if you need to.</p><p>Press any key to continue the experiment.</p></div>","","","","","","","","","","","","",""
"1920.2999999970198","arrowleft","psychophysics","345","764197","0.0-3.0-0.168","","key","arrowleft","16.66478260869626","720","382","169","7","-1","30","35","25","35","true"
"null","null","psychophysics","346","765199","0.0-3.0-1.168","","key","null","16.665999999999904","720","382","","","","","","","",""
"4485","arrowleft","psychophysics","347","769690","0.0-3.0-0.169","","key","arrowleft","16.66600000000036","720","382","170","7","1","25","15","25","35","false"
"null","null","psychophysics","348","770695","0.0-3.0-1.169","","key","null","16.665999999999904","720","382","","","","","","","",""
"508.20000000298023","arrowleft","psychophysics","349","771207","0.0-3.0-0.170","","key","arrowleft","16.66599999999938","720","382","171","7","-1","30","15","25","35","true"
"null","null","psychophysics","350","772211","0.0-3.0-1.170","","key","null","16.665999999999904","720","382","","","","","","","",""
"6043","arrowleft","psychophysics","351","778258","0.0-3.0-0.171","","key","arrowleft","16.66599999999985","720","382","172","7","1","23","15","25","35","false"
"null","null","psychophysics","352","779264","0.0-3.0-1.171","","key","null","16.665999999999904","720","382","","","","","","","",""
"1278.8999999985099","arrowright","psychophysics","353","780547","0.0-3.0-0.172","","key","arrowright","16.6660000000005","720","382","173","7","1","30","35","25","35","true"
"null","null","psychophysics","354","781549","0.0-3.0-1.172","","key","null","16.665999999999904","720","382","","","","","","","",""
"499.20000000298023","arrowleft","psychophysics","355","782054","0.0-3.0-0.173","","key","arrowleft","16.66599999999938","720","382","174","7","1","23","15","25","35","false"
"null","null","psychophysics","356","783057","0.0-3.0-1.173","","key","null","16.654355932202712","720","382","","","","","","","",""
"843.5","arrowleft","psychophysics","357","783904","0.0-3.0-0.174","","key","arrowleft","16.66600000000093","720","382","175","7","1","20","35","25","35","false"
"null","null","psychophysics","358","784907","0.0-3.0-1.174","","key","null","16.665999999999904","720","382","","","","","","","",""
"686","arrowright","psychophysics","359","785596","0.0-3.0-0.175","","key","arrowright","16.66599999999744","720","382","176","7","-1","20","35","25","35","false"
"null","null","psychophysics","360","786600","0.0-3.0-1.175","","key","null","16.66599999999938","720","382","","","","","","","",""
"1185.0999999940395","arrowright","psychophysics","361","787789","0.0-3.0-0.176","","key","arrowright","16.665999999999933","720","382","177","7","1","24","15","25","35","true"
"null","null","psychophysics","362","788790","0.0-3.0-1.176","","key","null","16.665999999999904","720","382","","","","","","","",""
"686.2999999970198","arrowright","psychophysics","363","789481","0.0-3.0-0.177","","key","arrowright","16.66600000000035","720","382","178","7","1","30","35","25","35","true"
"null","null","psychophysics","364","790483","0.0-3.0-1.177","","key","null","16.66599999999938","720","382","","","","","","","",""
"374.3999999985099","arrowright","psychophysics","365","790861","0.0-3.0-0.178","","key","arrowright","16.665999999996053","720","382","179","7","1","27","35","25","35","true"
"null","null","psychophysics","366","791864","0.0-3.0-1.178","","key","null","16.665999999999904","720","382","","","","","","","",""
"817.7999999970198","arrowright","psychophysics","367","792688","0.0-3.0-0.179","","key","arrowright","16.665999999999222","720","382","180","7","1","26","15","25","35","true"
"null","null","psychophysics","368","793690","0.0-3.0-1.179","","key","null","16.665999999999904","720","382","","","","","","","",""
"633.4000000059605","arrowright","psychophysics","369","794328","0.0-3.0-0.180","","key","arrowright","16.665999999999798","720","382","181","7","-1","20","35","25","35","false"
"null","null","psychophysics","370","795331","0.0-3.0-1.180","","key","null","16.665999999999904","720","382","","","","","","","",""
"1267.8999999985099","arrowleft","psychophysics","371","796605","0.0-3.0-0.181","","key","arrowleft","16.66599999999897","720","382","182","7","1","20","15","25","35","false"
"null","null","psychophysics","372","797612","0.0-3.0-1.181","","key","null","16.66600000000188","720","382","","","","","","","",""
"474.3999999985099","arrowright","psychophysics","373","798094","0.0-3.0-0.182","","key","arrowright","16.66599999999744","720","382","183","7","-1","27","35","25","35","false"
"null","null","psychophysics","374","799098","0.0-3.0-1.182","","key","null","16.665999999999904","720","382","","","","","","","",""
"606.3999999985099","arrowleft","psychophysics","375","799711","0.0-3.0-0.183","","key","arrowleft","16.666000000000672","720","382","184","7","1","25","35","25","35","false"
"null","null","psychophysics","376","800714","0.0-3.0-1.183","","key","null","16.665999999999904","720","382","","","","","","","",""
"519.7000000029802","arrowright","psychophysics","377","801247","0.0-3.0-0.184","","key","arrowright","16.666000000002132","720","382","185","7","-1","20","15","25","35","false"
"null","null","psychophysics","378","802249","0.0-3.0-1.184","","key","null","16.66599999999938","720","382","","","","","","","",""
"887.3999999985099","arrowleft","psychophysics","379","803141","0.0-3.0-0.185","","key","arrowleft","16.667346153844846","720","382","186","7","1","23","35","25","35","false"
"null","null","psychophysics","380","804144","0.0-3.0-1.185","","key","null","16.665999999999904","720","382","","","","","","","",""
"610.5","arrowright","psychophysics","381","804758","0.0-3.0-0.186","","key","arrowright","16.666000000000672","720","382","187","7","1","27","35","25","35","true"
"null","null","psychophysics","382","805763","0.0-3.0-1.186","","key","null","16.665999999999904","720","382","","","","","","","",""
"544.2000000029802","arrowleft","psychophysics","383","806311","0.0-3.0-0.187","","key","arrowleft","16.666000000001077","720","382","188","7","-1","26","35","25","35","true"
"null","null","psychophysics","384","807314","0.0-3.0-1.187","","key","null","16.665999999999904","720","382","","","","","","","",""
"1070.3999999985099","arrowleft","psychophysics","385","808391","0.0-3.0-0.188","","key","arrowleft","16.665999999999258","720","382","189","7","1","24","35","25","35","false"
"null","null","psychophysics","386","809398","0.0-3.0-1.188","","key","null","16.66600000000132","720","382","","","","","","","",""
"924","arrowright","psychophysics","387","810324","0.0-3.0-0.189","","key","arrowright","16.665999999998515","720","382","190","7","-1","24","35","25","35","false"
"null","null","psychophysics","388","811327","0.0-3.0-1.189","","key","null","16.665999999999904","720","382","","","","","","","",""
"526.3999999985099","arrowright","psychophysics","389","811858","0.0-3.0-0.190","","key","arrowright","16.666000000002132","720","382","191","7","1","26","15","25","35","true"
"null","null","psychophysics","390","812859","0.0-3.0-1.190","","key","null","16.665999999999904","720","382","","","","","","","",""
"1028.2999999970198","arrowright","psychophysics","391","813891","0.0-3.0-0.191","","key","arrowright","16.66600000000078","720","382","192","7","1","24","15","25","35","true"
"null","null","psychophysics","392","814894","0.0-3.0-1.191","","key","null","16.665999999999904","720","382","","","","","","","",""
"2806.2000000029802","arrowleft","psychophysics","393","817705","0.0-3.0-0.192","","key","arrowleft","16.66600000000021","720","382","193","7","-1","27","15","25","35","true"
"null","null","psychophysics","394","818708","0.0-3.0-1.192","","key","null","16.665999999999904","720","382","","","","","","","",""
"562.1000000014901","arrowright","psychophysics","395","819274","0.0-3.0-0.193","","key","arrowright","16.666000000000086","720","382","194","7","1","30","15","25","35","true"
"null","null","psychophysics","396","820282","0.0-3.0-1.193","","key","null","16.66599999999938","720","382","","","","","","","",""
"539.2999999970198","arrowright","psychophysics","397","820825","0.0-3.0-0.194","","key","arrowright","16.666000000002132","720","382","195","7","1","27","15","25","35","true"
"null","null","psychophysics","398","821830","0.0-3.0-1.194","","key","null","16.665999999999904","720","382","","","","","","","",""
"1081.8000000044703","arrowleft","psychophysics","399","822924","0.0-3.0-0.195","","key","arrowleft","16.673861538462987","720","382","196","8","1","26","35","25","35","false"
"null","null","psychophysics","400","823931","0.0-3.0-1.195","","key","null","16.665999999999904","720","382","","","","","","","",""
"1289.3000000044703"," ","html-keyboard-response","401","825222","0.0-3.0-2.195-0.195","<div style=""color: white; text-align: center; vertical-align: top; display: inline-block; width: 800px; margin: auto""><p>You have completed 70% of the trials. You are on block 8 of 10. <br>Good job! Take a break if you need to.</p><p>Press any key to continue the experiment.</p></div>","","","","","","","","","","","","",""
"771.3999999985099","arrowleft","psychophysics","402","827000","0.0-3.0-0.196","","key","arrowleft","16.666000000000533","720","382","197","8","-1","27","15","25","35","true"
"null","null","psychophysics","403","828002","0.0-3.0-1.196","","key","null","16.665999999999904","720","382","","","","","","","",""
"3118.5","arrowright","psychophysics","404","831124","0.0-3.0-0.197","","key","arrowright","16.66599999999963","720","382","198","8","-1","24","15","25","35","false"
"null","null","psychophysics","405","832126","0.0-3.0-1.197","","key","null","16.665999999999904","720","382","","","","","","","",""
"771.1000000014901","arrowleft","psychophysics","406","832901","0.0-3.0-0.198","","key","arrowleft","16.666000000001237","720","382","199","8","-1","26","35","25","35","true"
"null","null","psychophysics","407","833930","0.0-3.0-1.198","","key","null","16.665999999999904","720","382","","","","","","","",""
"535.3999999985099","arrowright","psychophysics","408","834467","0.0-3.0-0.199","","key","arrowright","16.666000000001077","720","382","200","8","1","23","15","25","35","true"
"null","null","psychophysics","409","835470","0.0-3.0-1.199","","key","null","16.665999999999904","720","382","","","","","","","",""
"833.9000000059605","arrowleft","psychophysics","410","836308","0.0-3.0-0.200","","key","arrowleft","16.665999999999222","720","382","201","8","-1","26","15","25","35","true"
"null","null","psychophysics","411","837314","0.0-3.0-1.200","","key","null","16.66600000000132","720","382","","","","","","","",""
"720.2999999970198","arrowright","psychophysics","412","838038","0.0-3.0-0.201","","key","arrowright","16.665999999998824","720","382","202","8","1","25","35","25","35","true"
"null","null","psychophysics","413","839041","0.0-3.0-1.201","","key","null","16.665999999999904","720","382","","","","","","","",""
"661","arrowleft","psychophysics","414","839704","0.0-3.0-0.202","","key","arrowleft","16.66600000000117","720","382","203","8","-1","27","15","25","35","true"
"null","null","psychophysics","415","840709","0.0-3.0-1.202","","key","null","16.665999999999904","720","382","","","","","","","",""
"510.79999999701977","arrowright","psychophysics","416","841224","0.0-3.0-0.203","","key","arrowright","16.66599999999938","720","382","204","8","1","30","15","25","35","true"
"null","null","psychophysics","417","842226","0.0-3.0-1.203","","key","null","16.665999999999904","720","382","","","","","","","",""
"608.9000000059605","arrowleft","psychophysics","418","842837","0.0-3.0-0.204","","key","arrowleft","16.529999999998836","720","382","205","8","-1","30","35","25","35","true"
"null","null","psychophysics","419","843842","0.0-3.0-1.204","","key","null","16.665999999999904","720","382","","","","","","","",""
"744.5","arrowleft","psychophysics","420","844593","0.0-3.0-0.205","","key","arrowleft","16.666000000000086","720","382","206","8","-1","27","15","25","35","true"
"null","null","psychophysics","421","845594","0.0-3.0-1.205","","key","null","16.66599999999938","720","382","","","","","","","",""
"671.1999999955297","arrowleft","psychophysics","422","846269","0.0-3.0-0.206","","key","arrowleft","16.665999999998185","720","382","207","8","-1","23","15","25","35","true"
"null","null","psychophysics","423","847275","0.0-3.0-1.206","","key","null","16.665999999999904","720","382","","","","","","","",""
"514.6000000014901","arrowleft","psychophysics","424","847802","0.0-3.0-0.207","","key","arrowleft","16.665999999998377","720","382","208","8","-1","27","35","25","35","true"
"null","null","psychophysics","425","848808","0.0-3.0-1.207","","key","null","16.665999999999904","720","382","","","","","","","",""
"670.7999999970198","arrowleft","psychophysics","426","849486","0.0-3.0-0.208","","key","arrowleft","16.66600000000035","720","382","209","8","-1","30","35","25","35","true"
"null","null","psychophysics","427","850491","0.0-3.0-1.208","","key","null","16.665999999999904","720","382","","","","","","","",""
"1151.4000000059605","arrowleft","psychophysics","428","851649","0.0-3.0-0.209","","key","arrowleft","16.66600000000039","720","382","210","8","1","20","15","25","35","false"
"null","null","psychophysics","429","852651","0.0-3.0-1.209","","key","null","16.665999999999904","720","382","","","","","","","",""
"534.6000000014901","arrowright","psychophysics","430","853190","0.0-3.0-0.210","","key","arrowright","16.665999999998377","720","382","211","8","1","25","15","25","35","true"
"null","null","psychophysics","431","854194","0.0-3.0-1.210","","key","null","16.66600000000132","720","382","","","","","","","",""
"538.9000000059605","arrowright","psychophysics","432","854736","0.0-3.0-0.211","","key","arrowright","16.665999999998377","720","382","212","8","1","30","15","25","35","true"
"null","null","psychophysics","433","855742","0.0-3.0-1.211","","key","null","16.665999999999904","720","382","","","","","","","",""
"842.3999999985099","arrowleft","psychophysics","434","856591","0.0-3.0-0.212","","key","arrowleft","16.66600000000093","720","382","213","8","1","20","35","25","35","false"
"null","null","psychophysics","435","857594","0.0-3.0-1.212","","key","null","16.66599999999938","720","382","","","","","","","",""
"558.6000000014901","arrowleft","psychophysics","436","858156","0.0-3.0-0.213","","key","arrowleft","16.66599999999744","720","382","214","8","1","25","35","25","35","false"
"null","null","psychophysics","437","859158","0.0-3.0-1.213","","key","null","16.66600000000188","720","382","","","","","","","",""
"559.3000000044703","arrowleft","psychophysics","438","859720","0.0-3.0-0.214","","key","arrowleft","16.666000000000086","720","382","215","8","-1","30","15","25","35","true"
"null","null","psychophysics","439","860725","0.0-3.0-1.214","","key","null","16.665999999999904","720","382","","","","","","","",""
"1327.7999999970198","arrowleft","psychophysics","440","862059","0.0-3.0-0.215","","key","arrowleft","16.666000000000754","720","382","216","8","-1","25","35","25","35","true"
"null","null","psychophysics","441","863061","0.0-3.0-1.215","","key","null","16.67400000000101","720","382","","","","","","","",""
"653.5","arrowright","psychophysics","442","863718","0.0-3.0-0.216","","key","arrowright","16.66599999999897","720","382","217","8","-1","20","35","25","35","false"
"null","null","psychophysics","443","864720","0.0-3.0-1.216","","key","null","16.66600000000188","720","382","","","","","","","",""
"563.1000000014901","arrowleft","psychophysics","444","865286","0.0-3.0-0.217","","key","arrowleft","16.666000000000086","720","382","218","8","1","20","35","25","35","false"
"null","null","psychophysics","445","866292","0.0-3.0-1.217","","key","null","16.665999999999904","720","382","","","","","","","",""
"531","arrowright","psychophysics","446","866835","0.0-3.0-0.218","","key","arrowright","16.666000000001077","720","382","219","8","-1","24","35","25","35","false"
"null","null","psychophysics","447","867839","0.0-3.0-1.218","","key","null","16.665999999999904","720","382","","","","","","","",""
"524.2000000029802","arrowleft","psychophysics","448","868368","0.0-3.0-0.219","","key","arrowleft","16.665999999998377","720","382","220","8","-1","27","15","25","35","true"
"null","null","psychophysics","449","869370","0.0-3.0-1.219","","key","null","16.665999999999904","720","382","","","","","","","",""
"493.20000000298023","arrowright","psychophysics","450","869867","0.0-3.0-0.220","","key","arrowright","16.666000000000448","720","382","221","8","1","25","15","25","35","true"
"null","null","psychophysics","451","870869","0.0-3.0-1.220","","key","null","16.665999999999904","720","382","","","","","","","",""
"496.29999999701977","arrowright","psychophysics","452","871369","0.0-3.0-0.221","","key","arrowright","16.666000000000448","720","382","222","8","1","24","15","25","35","true"
"null","null","psychophysics","453","872375","0.0-3.0-1.221","","key","null","16.665999999999904","720","382","","","","","","","",""
"736.5999999940395","arrowleft","psychophysics","454","873118","0.0-3.0-0.222","","key","arrowleft","16.666000000000086","720","382","223","8","1","24","35","25","35","false"
"null","null","psychophysics","455","874122","0.0-3.0-1.222","","key","null","16.665999999999904","720","382","","","","","","","",""
"458.5","arrowleft","psychophysics","456","874585","0.0-3.0-0.223","","key","arrowleft","16.66600000000283","720","382","224","9","1","20","15","25","35","false"
"null","null","psychophysics","457","875591","0.0-3.0-1.223","","key","null","16.665999999999904","720","382","","","","","","","",""
"1269.6000000014901"," ","html-keyboard-response","458","876862","0.0-3.0-2.223-0.223","<div style=""color: white; text-align: center; vertical-align: top; display: inline-block; width: 800px; margin: auto""><p>You have completed 80% of the trials. You are on block 9 of 10. <br>Good job! Take a break if you need to.</p><p>Press any key to continue the experiment.</p></div>","","","","","","","","","","","","",""
"779.5999999940395","arrowleft","psychophysics","459","878652","0.0-3.0-0.224","","key","arrowleft","16.666000000000533","720","382","225","9","1","20","35","25","35","false"
"null","null","psychophysics","460","879658","0.0-3.0-1.224","","key","null","16.665999999999904","720","382","","","","","","","",""
"1041.2999999970198","arrowleft","psychophysics","461","880711","0.0-3.0-0.225","","key","arrowleft","16.665999999999748","720","382","226","9","-1","23","15","25","35","true"
"null","null","psychophysics","462","881716","0.0-3.0-1.225","","key","null","16.665999999999904","720","382","","","","","","","",""
"578.1999999955297","arrowleft","psychophysics","463","882298","0.0-3.0-0.226","","key","arrowleft","16.666000000002576","720","382","227","9","-1","23","15","25","35","true"
"null","null","psychophysics","464","883300","0.0-3.0-1.226","","key","null","16.663372881355365","720","382","","","","","","","",""
"646.6000000014901","arrowleft","psychophysics","465","883950","0.0-3.0-0.227","","key","arrowleft","16.666000000002033","720","382","228","9","1","24","35","25","35","false"
"null","null","psychophysics","466","884952","0.0-3.0-1.227","","key","null","16.665999999999904","720","382","","","","","","","",""
"1291.5","arrowleft","psychophysics","467","886248","0.0-3.0-0.228","","key","arrowleft","16.666000000000086","720","382","229","9","1","23","35","25","35","false"
"null","null","psychophysics","468","887250","0.0-3.0-1.228","","key","null","16.66600000000188","720","382","","","","","","","",""
"500.19999999552965","arrowright","psychophysics","469","887754","0.0-3.0-0.229","","key","arrowright","16.666000000000448","720","382","230","9","1","23","15","25","35","true"
"null","null","psychophysics","470","888758","0.0-3.0-1.229","","key","null","16.665999999999904","720","382","","","","","","","",""
"561.5","arrowright","psychophysics","471","889325","0.0-3.0-0.230","","key","arrowright","16.666000000002576","720","382","231","9","1","25","35","25","35","true"
"null","null","psychophysics","472","890327","0.0-3.0-1.230","","key","null","16.665999999999904","720","382","","","","","","","",""
"746","arrowright","psychophysics","473","891076","0.0-3.0-0.231","","key","arrowright","16.666000000000086","720","382","232","9","1","25","35","25","35","true"
"null","null","psychophysics","474","892082","0.0-3.0-1.231","","key","null","16.665999999999904","720","382","","","","","","","",""
"515.6999999955297","arrowleft","psychophysics","475","892601","0.0-3.0-0.232","","key","arrowleft","16.66599999999938","720","382","233","9","-1","20","15","25","35","true"
"null","null","psychophysics","476","893603","0.0-3.0-1.232","","key","null","16.665999999999904","720","382","","","","","","","",""
"457.59999999403954","arrowright","psychophysics","477","894065","0.0-3.0-0.233","","key","arrowright","16.66600000000283","720","382","234","9","1","30","15","25","35","true"
"null","null","psychophysics","478","895067","0.0-3.0-1.233","","key","null","16.665999999999904","720","382","","","","","","","",""
"599.6000000014901","arrowright","psychophysics","479","895671","0.0-3.0-0.234","","key","arrowright","16.666000000001596","720","382","235","9","1","26","35","25","35","true"
"null","null","psychophysics","480","896674","0.0-3.0-1.234","","key","null","16.665999999999904","720","382","","","","","","","",""
"570.8999999985099","arrowleft","psychophysics","481","897251","0.0-3.0-0.235","","key","arrowleft","16.666000000002576","720","382","236","9","-1","26","15","25","35","true"
"null","null","psychophysics","482","898257","0.0-3.0-1.235","","key","null","16.665999999999904","720","382","","","","","","","",""
"478.29999999701977","arrowleft","psychophysics","483","898742","0.0-3.0-0.236","","key","arrowleft","16.666000000000448","720","382","237","9","-1","26","15","25","35","true"
"null","null","psychophysics","484","899745","0.0-3.0-1.236","","key","null","16.66600000000188","720","382","","","","","","","",""
"586.3000000044703","arrowright","psychophysics","485","900334","0.0-3.0-0.237","","key","arrowright","16.66599999999915","720","382","238","9","-1","23","35","25","35","false"
"null","null","psychophysics","486","901336","0.0-3.0-1.237","","key","null","16.665999999999904","720","382","","","","","","","",""
"494.79999999701977","arrowright","psychophysics","487","901834","0.0-3.0-0.238","","key","arrowright","16.666000000000448","720","382","239","9","1","30","15","25","35","true"
"null","null","psychophysics","488","902836","0.0-3.0-1.238","","key","null","16.679406779660386","720","382","","","","","","","",""
"758.2999999970198","arrowleft","psychophysics","489","903598","0.0-3.0-0.239","","key","arrowleft","16.666000000001965","720","382","240","9","-1","23","15","25","35","true"
"null","null","psychophysics","490","904600","0.0-3.0-1.239","","key","null","16.665999999999904","720","382","","","","","","","",""
"794.2000000029802","arrowleft","psychophysics","491","905396","0.0-3.0-0.240","","key","arrowleft","16.666000000000533","720","382","241","9","-1","23","35","25","35","true"
"null","null","psychophysics","492","906399","0.0-3.0-1.240","","key","null","16.665999999999904","720","382","","","","","","","",""
"864.7000000029802","arrowright","psychophysics","493","907267","0.0-3.0-0.241","","key","arrowright","16.66599999999801","720","382","242","9","1","27","35","25","35","true"
"null","null","psychophysics","494","908273","0.0-3.0-1.241","","key","null","16.665999999999904","720","382","","","","","","","",""
"776.1000000014901","arrowleft","psychophysics","495","909051","0.0-3.0-0.242","","key","arrowleft","16.666000000001237","720","382","243","9","-1","25","15","25","35","true"
"null","null","psychophysics","496","910057","0.0-3.0-1.242","","key","null","16.665999999999904","720","382","","","","","","","",""
"2475.2999999970198","arrowleft","psychophysics","497","912539","0.0-3.0-0.243","","key","arrowleft","16.665999999999798","720","382","244","9","1","20","15","25","35","false"
"null","null","psychophysics","498","913542","0.0-3.0-1.243","","key","null","16.66599999999938","720","382","","","","","","","",""
"607.8999999985099","arrowleft","psychophysics","499","914154","0.0-3.0-0.244","","key","arrowleft","16.666000000001596","720","382","245","9","-1","26","15","25","35","true"
"null","null","psychophysics","500","915157","0.0-3.0-1.244","","key","null","16.665999999999904","720","382","","","","","","","",""
"789.3999999985099","arrowleft","psychophysics","501","915953","0.0-3.0-0.245","","key","arrowleft","16.666000000000533","720","382","246","9","-1","23","15","25","35","true"
"null","null","psychophysics","502","916957","0.0-3.0-1.245","","key","null","16.66600000000188","720","382","","","","","","","",""
"603.1999999955297","arrowleft","psychophysics","503","917567","0.0-3.0-0.246","","key","arrowleft","16.666000000000672","720","382","247","9","-1","23","15","25","35","true"
"null","null","psychophysics","504","918569","0.0-3.0-1.246","","key","null","16.665999999999904","720","382","","","","","","","",""
"557.8999999985099","arrowleft","psychophysics","505","919131","0.0-3.0-0.247","","key","arrowleft","16.666000000000086","720","382","248","9","-1","25","35","25","35","true"
"null","null","psychophysics","506","920133","0.0-3.0-1.247","","key","null","16.665999999999904","720","382","","","","","","","",""
"611.5","arrowleft","psychophysics","507","920748","0.0-3.0-0.248","","key","arrowleft","16.666000000000672","720","382","249","9","1","24","35","25","35","false"
"null","null","psychophysics","508","921749","0.0-3.0-1.248","","key","null","16.665999999999904","720","382","","","","","","","",""
"944","arrowright","psychophysics","509","922697","0.0-3.0-0.249","","key","arrowright","16.676982142856495","720","382","250","9","1","23","15","25","35","true"
"null","null","psychophysics","510","923701","0.0-3.0-1.249","","key","null","16.665999999999904","720","382","","","","","","","",""
"628.7999999970198","arrowleft","psychophysics","511","924334","0.0-3.0-0.250","","key","arrowleft","16.665999999999798","720","382","251","9","-1","23","35","25","35","true"
"null","null","psychophysics","512","925335","0.0-3.0-1.250","","key","null","16.665999999999904","720","382","","","","","","","",""
"477.69999999552965","arrowleft","psychophysics","513","925817","0.0-3.0-0.251","","key","arrowleft","16.66599999999744","720","382","252","10","1","23","35","25","35","false"
"null","null","psychophysics","514","926824","0.0-3.0-1.251","","key","null","16.665999999999904","720","382","","","","","","","",""
"1773.6000000014901"," ","html-keyboard-response","515","928599","0.0-3.0-2.251-0.251","<div style=""color: white; text-align: center; vertical-align: top; display: inline-block; width: 800px; margin: auto""><p>You have completed 90% of the trials. You are on block 10 of 10. <br>Good job! Take a break if you need to.</p><p>Press any key to continue the experiment.</p></div>","","","","","","","","","","","","",""
"1622.6000000014901","arrowright","psychophysics","516","931231","0.0-3.0-0.252","","key","arrowright","16.66600000000041","720","382","253","10","-1","20","15","25","35","false"
"null","null","psychophysics","517","932233","0.0-3.0-1.252","","key","null","16.665999999999904","720","382","","","","","","","",""
"580.0999999940395","arrowleft","psychophysics","518","932817","0.0-3.0-0.253","","key","arrowleft","16.666000000002576","720","382","254","10","-1","26","15","25","35","true"
"null","null","psychophysics","519","933821","0.0-3.0-1.253","","key","null","16.665999999999904","720","382","","","","","","","",""
"626.5","arrowright","psychophysics","520","934452","0.0-3.0-0.254","","key","arrowright","16.665999999999798","720","382","255","10","1","30","35","25","35","true"
"null","null","psychophysics","521","935457","0.0-3.0-1.254","","key","null","16.66600000000188","720","382","","","","","","","",""
"577.1000000014901","arrowright","psychophysics","522","936041","0.0-3.0-0.255","","key","arrowright","16.66599999999915","720","382","256","10","1","26","15","25","35","true"
"null","null","psychophysics","523","937044","0.0-3.0-1.255","","key","null","16.66600000000132","720","382","","","","","","","",""
"580.5","arrowleft","psychophysics","524","937628","0.0-3.0-0.256","","key","arrowleft","16.66599999999915","720","382","257","10","1","20","35","25","35","false"
"null","null","psychophysics","525","938632","0.0-3.0-1.256","","key","null","16.665999999999904","720","382","","","","","","","",""
"503.20000000298023","arrowright","psychophysics","526","939139","0.0-3.0-0.257","","key","arrowright","16.666000000000448","720","382","258","10","1","27","15","25","35","true"
"null","null","psychophysics","527","940142","0.0-3.0-1.257","","key","null","16.66599999999938","720","382","","","","","","","",""
"551.2999999970198","arrowright","psychophysics","528","940698","0.0-3.0-0.258","","key","arrowright","16.666000000001077","720","382","259","10","1","26","15","25","35","true"
"null","null","psychophysics","529","941699","0.0-3.0-1.258","","key","null","16.66600000000188","720","382","","","","","","","",""
"811","arrowright","psychophysics","530","942514","0.0-3.0-0.259","","key","arrowright","16.665999999999865","720","382","260","10","-1","20","15","25","35","false"
"null","null","psychophysics","531","943517","0.0-3.0-1.259","","key","null","16.665999999999904","720","382","","","","","","","",""
"632.2000000029802","arrowright","psychophysics","532","944153","0.0-3.0-0.260","","key","arrowright","16.665999999999798","720","382","261","10","-1","27","35","25","35","false"
"null","null","psychophysics","533","945157","0.0-3.0-1.260","","key","null","16.665999999999904","720","382","","","","","","","",""
"1520.1000000014901","arrowright","psychophysics","534","946684","0.0-3.0-0.261","","key","arrowright","16.666000000000317","720","382","262","10","-1","20","15","25","35","false"
"null","null","psychophysics","535","947686","0.0-3.0-1.261","","key","null","16.665999999999904","720","382","","","","","","","",""
"742.6999999955297","arrowright","psychophysics","536","948433","0.0-3.0-0.262","","key","arrowright","16.666000000000086","720","382","263","10","-1","27","35","25","35","false"
"null","null","psychophysics","537","949435","0.0-3.0-1.262","","key","null","16.665999999999904","720","382","","","","","","","",""
"994.1999999955297","arrowright","psychophysics","538","950433","0.0-3.0-0.263","","key","arrowright","16.665999999999904","720","382","264","10","1","26","15","25","35","true"
"null","null","psychophysics","539","951435","0.0-3.0-1.263","","key","null","16.665999999999904","720","382","","","","","","","",""
"448","arrowright","psychophysics","540","951888","0.0-3.0-0.264","","key","arrowright","16.665999999999677","720","382","265","10","1","30","15","25","35","true"
"null","null","psychophysics","541","952890","0.0-3.0-1.264","","key","null","16.665999999999904","720","382","","","","","","","",""
"603.6000000014901","arrowleft","psychophysics","542","953501","0.0-3.0-0.265","","key","arrowleft","16.66599999999744","720","382","266","10","-1","23","15","25","35","true"
"null","null","psychophysics","543","954507","0.0-3.0-1.265","","key","null","16.665999999999904","720","382","","","","","","","",""
"517.2999999970198","arrowright","psychophysics","544","955031","0.0-3.0-0.266","","key","arrowright","16.665999999998377","720","382","267","10","1","25","35","25","35","true"
"null","null","psychophysics","545","956033","0.0-3.0-1.266","","key","null","16.665999999999904","720","382","","","","","","","",""
"364.20000000298023","arrowright","psychophysics","546","956401","0.0-3.0-0.267","","key","arrowright","16.666000000001596","720","382","268","10","1","25","35","25","35","true"
"null","null","psychophysics","547","957406","0.0-3.0-1.267","","key","null","16.665999999999904","720","382","","","","","","","",""
"492.40000000596046","arrowright","psychophysics","548","957902","0.0-3.0-0.268","","key","arrowright","16.666000000000448","720","382","269","10","1","27","15","25","35","true"
"null","null","psychophysics","549","958906","0.0-3.0-1.268","","key","null","16.665999999999904","720","382","","","","","","","",""
"384.6000000014901","arrowright","psychophysics","550","959298","0.0-3.0-0.269","","key","arrowright","16.665999999998704","720","382","270","10","1","30","35","25","35","true"
"null","null","psychophysics","551","960299","0.0-3.0-1.269","","key","null","16.665999999999904","720","382","","","","","","","",""
"430.70000000298023","arrowright","psychophysics","552","960734","0.0-3.0-0.270","","key","arrowright","16.665999999996274","720","382","271","10","1","25","35","25","35","true"
"null","null","psychophysics","553","961740","0.0-3.0-1.270","","key","null","16.665999999999904","720","382","","","","","","","",""
"367.3999999985099","arrowright","psychophysics","554","962114","0.0-3.0-0.271","","key","arrowright","16.666000000000086","720","382","272","10","-1","24","35","25","35","false"
"null","null","psychophysics","555","963116","0.0-3.0-1.271","","key","null","16.675000000001184","720","382","","","","","","","",""
"331.19999999552965","arrowright","psychophysics","556","963451","0.0-3.0-0.272","","key","arrowright","16.66599999999897","720","382","273","10","-1","25","35","25","35","false"
"null","null","psychophysics","557","964457","0.0-3.0-1.272","","key","null","16.665999999999904","720","382","","","","","","","",""
"353.30000000447035","arrowright","psychophysics","558","964817","0.0-3.0-0.273","","key","arrowright","16.665999999996053","720","382","274","10","-1","25","35","25","35","false"
"null","null","psychophysics","559","965823","0.0-3.0-1.273","","key","null","16.665999999999904","720","382","","","","","","","",""
"340.29999999701977","arrowright","psychophysics","560","966170","0.0-3.0-0.274","","key","arrowright","16.66599999999744","720","382","275","10","-1","20","15","25","35","false"
"null","null","psychophysics","561","967174","0.0-3.0-1.274","","key","null","16.665999999999904","720","382","","","","","","","",""
"500.30000000447035","arrowright","psychophysics","562","967680","0.0-3.0-0.275","","key","arrowright","16.66599999999938","720","382","276","10","-1","26","35","25","35","false"
"null","null","psychophysics","563","968682","0.0-3.0-1.275","","key","null","16.665999999999904","720","382","","","","","","","",""
"297.3999999985099","arrowright","psychophysics","564","968984","0.0-3.0-0.276","","key","arrowright","16.665999999995726","720","382","277","10","-1","25","35","25","35","false"
"null","null","psychophysics","565","969989","0.0-3.0-1.276","","key","null","16.665999999999904","720","382","","","","","","","",""
"325.5","arrowright","psychophysics","566","970318","0.0-3.0-0.277","","key","arrowright","16.66599999999897","720","382","278","10","-1","20","15","25","35","false"
"null","null","psychophysics","567","971323","0.0-3.0-1.277","","key","null","16.665999999999904","720","382","","","","","","","",""
"334","arrowright","psychophysics","568","971664","0.0-3.0-0.278","","key","arrowright","16.66599999999744","720","382","279","10","-1","23","35","25","35","false"
"null","null","psychophysics","569","972670","0.0-3.0-1.278","","key","null","16.665999999999904","720","382","","","","","","","",""
"317.5","arrowright","psychophysics","570","972992","0.0-3.0-0.279","","key","arrowright","16.66599999999897","720","382","280","11","1","26","35","25","35","true"
"null","null","psychophysics","571","973998","0.0-3.0-1.279","","key","null","16.665999999999904","720","382","","","","","","","",""
