rt,response,trial_type,trial_index,time_elapsed,internal_node_id,stimulus,response_type,key_press,avg_frame_time,center_x,center_y,trial,block,test_pos,test_inner_radius,test_outer_radius,ref_inner_radius,ref_outer_radius,test_bigger
24212.3,"{""p_id"":""4733"",""age"":""19"",""handedness"":""right"",""sex"":""female"",""other_sex"":""""}",survey-html-form,0,24216,0.0-0.0,,,,,,,,,,,,,,
10849.2, ,html-keyboard-response,1,35068,0.0-1.0,"<p style=""color: white"">Welcome to the Size Judgment Experiment. <br>There will be 10 blocks in this experiment. <br>There will be 28 trials in each block. <br>You will be given a chance to take a break between blocks. <br>Press any key to start the experiment.</p>",,,,,,,,,,,,,
1734983.4,audiovolumeup,psychophysics,2,1770068,0.0-2.0,,key,audiovolumeup,16.65314714,640,304.5,,,,,,,,
1185737.9,arrowright,psychophysics,3,2955821,0.0-3.0-0.0,,key,arrowright,16.66917862,640,304.5,1,1,-1,20,15,25,35,FALSE
null,null,psychophysics,4,2956829,0.0-3.0-1.0,,key,null,16.65708475,640,304.5,,,,,,,,
8878.1,arrowright,psychophysics,5,2965716,0.0-3.0-0.1,,key,arrowright,16.65245966,640,304.5,2,1,-1,26,15,25,35,FALSE
null,null,psychophysics,6,2966721,0.0-3.0-1.1,,key,null,16.65261017,640,304.5,,,,,,,,
1376,arrowleft,psychophysics,7,2968105,0.0-3.0-0.2,,key,arrowleft,16.65280723,640,304.5,3,1,1,24,15,25,35,FALSE
null,null,psychophysics,8,2969118,0.0-3.0-1.2,,key,null,16.65384746,640,304.5,,,,,,,,
680.8,arrowleft,psychophysics,9,2969806,0.0-3.0-0.3,,key,arrowleft,16.65265854,640,304.5,4,1,1,30,15,25,35,FALSE
null,null,psychophysics,10,2970817,0.0-3.0-1.3,,key,null,16.65283051,640,304.5,,,,,,,,
3487.7,arrowleft,psychophysics,11,2974312,0.0-3.0-0.4,,key,arrowleft,16.6534689,640,304.5,5,1,-1,24,35,25,35,TRUE
null,null,psychophysics,12,2975328,0.0-3.0-1.4,,key,null,16.65465,640,304.5,,,,,,,,
1053.3,arrowright,psychophysics,13,2976389,0.0-3.0-0.5,,key,arrowright,16.6582381,640,304.5,6,1,-1,25,15,25,35,FALSE
null,null,psychophysics,14,2977396,0.0-3.0-1.5,,key,null,16.65233898,640,304.5,,,,,,,,
3133.9,arrowright,psychophysics,15,2980536,0.0-3.0-0.6,,key,arrowright,16.74164706,640,304.5,7,1,-1,30,15,25,35,FALSE
null,null,psychophysics,16,2981542,0.0-3.0-1.6,,key,null,16.65313559,640,304.5,,,,,,,,
1787.1,arrowleft,psychophysics,17,2983333,0.0-3.0-0.7,,key,arrowleft,16.97082857,640,304.5,8,1,-1,24,35,25,35,TRUE
null,null,psychophysics,18,2984340,0.0-3.0-1.7,,key,null,16.65411864,640,304.5,,,,,,,,
912.3,arrowright,psychophysics,19,2985259,0.0-3.0-0.8,,key,arrowright,16.65401818,640,304.5,9,1,-1,24,15,25,35,FALSE
null,null,psychophysics,20,2986271,0.0-3.0-1.8,,key,null,16.6519661,640,304.5,,,,,,,,
747.2,arrowleft,psychophysics,21,2987025,0.0-3.0-0.9,,key,arrowleft,16.65548889,640,304.5,10,1,1,20,15,25,35,FALSE
null,null,psychophysics,22,2988037,0.0-3.0-1.9,,key,null,16.65230508,640,304.5,,,,,,,,
24319.5,arrowleft,psychophysics,23,3012362,0.0-3.0-0.10,,key,arrowleft,16.65296781,640,304.5,11,1,-1,30,35,25,35,TRUE
null,null,psychophysics,24,3013366,0.0-3.0-1.10,,key,null,16.65294915,640,304.5,,,,,,,,
828.3,arrowleft,psychophysics,25,3014201,0.0-3.0-0.11,,key,arrowleft,16.65496,640,304.5,12,1,-1,30,35,25,35,TRUE
null,null,psychophysics,26,3015214,0.0-3.0-1.11,,key,null,16.65279661,640,304.5,,,,,,,,
720.8,arrowleft,psychophysics,27,3015942,0.0-3.0-0.12,,key,arrowleft,16.65346512,640,304.5,13,1,1,20,15,25,35,FALSE
null,null,psychophysics,28,3016946,0.0-3.0-1.12,,key,null,16.65289831,640,304.5,,,,,,,,
1193.2,arrowleft,psychophysics,29,3018157,0.0-3.0-0.13,,key,arrowleft,16.65188889,640,304.5,14,1,1,24,35,25,35,FALSE
null,null,psychophysics,30,3019161,0.0-3.0-1.13,,key,null,16.65189831,640,304.5,,,,,,,,
796,arrowleft,psychophysics,31,3019964,0.0-3.0-0.14,,key,arrowleft,16.65272917,640,304.5,15,1,1,20,15,25,35,FALSE
null,null,psychophysics,32,3020976,0.0-3.0-1.14,,key,null,16.65181356,640,304.5,,,,,,,,
578.5,arrowleft,psychophysics,33,3021562,0.0-3.0-0.15,,key,arrowleft,16.65637143,640,304.5,16,1,1,24,35,25,35,FALSE
null,null,psychophysics,34,3022575,0.0-3.0-1.15,,key,null,16.65338983,640,304.5,,,,,,,,
368.2,arrowleft,psychophysics,35,3022951,0.0-3.0-0.16,,key,arrowleft,16.65186364,640,304.5,17,1,1,30,15,25,35,FALSE
null,null,psychophysics,36,3023957,0.0-3.0-1.16,,key,null,16.65427119,640,304.5,,,,,,,,
1962.6,arrowleft,psychophysics,37,3025935,0.0-3.0-0.17,,key,arrowleft,16.65329661,640,304.5,18,1,-1,27,15,25,35,TRUE
null,null,psychophysics,38,3026938,0.0-3.0-1.17,,key,null,16.65469492,640,304.5,,,,,,,,
693.6,arrowright,psychophysics,39,3027639,0.0-3.0-0.18,,key,arrowright,16.64957143,640,304.5,19,1,-1,27,15,25,35,FALSE
null,null,psychophysics,40,3028653,0.0-3.0-1.18,,key,null,16.65581356,640,304.5,,,,,,,,
1696.4,arrowleft,psychophysics,41,3030357,0.0-3.0-0.19,,key,arrowleft,16.65312745,640,304.5,20,1,1,26,15,25,35,FALSE
null,null,psychophysics,42,3031367,0.0-3.0-1.19,,key,null,16.65308475,640,304.5,,,,,,,,
53926.4,arrowleft,psychophysics,43,3085300,0.0-3.0-0.20,,key,arrowleft,16.65298703,640,304.5,21,1,1,26,35,25,35,FALSE
null,null,psychophysics,44,3086305,0.0-3.0-1.20,,key,null,16.6550339,640,304.5,,,,,,,,
812.1,arrowleft,psychophysics,45,3087124,0.0-3.0-0.21,,key,arrowleft,16.64959184,640,304.5,22,1,1,27,15,25,35,FALSE
null,null,psychophysics,46,3088133,0.0-3.0-1.21,,key,null,16.65262712,640,304.5,,,,,,,,
879.5,arrowright,psychophysics,47,3089017,0.0-3.0-0.22,,key,arrowright,16.65886538,640,304.5,23,1,1,30,35,25,35,TRUE
null,null,psychophysics,48,3090020,0.0-3.0-1.22,,key,null,16.65535,640,304.5,,,,,,,,
699.1,arrowright,psychophysics,49,3090723,0.0-3.0-0.23,,key,arrowright,16.65321951,640,304.5,24,1,1,24,35,25,35,TRUE
null,null,psychophysics,50,3091734,0.0-3.0-1.23,,key,null,16.65218644,640,304.5,,,,,,,,
37059.9,arrowleft,psychophysics,51,3128801,0.0-3.0-0.24,,key,arrowleft,16.65289798,640,304.5,25,1,-1,25,15,25,35,TRUE
null,null,psychophysics,52,3129805,0.0-3.0-1.24,,key,null,16.65775,640,304.5,,,,,,,,
2990.1,arrowleft,psychophysics,53,3132799,0.0-3.0-0.25,,key,arrowleft,16.65258427,640,304.5,26,1,-1,26,15,25,35,TRUE
null,null,psychophysics,54,3133813,0.0-3.0-1.25,,key,null,16.65515,640,304.5,,,,,,,,
1405.8,arrowright,psychophysics,55,3135222,0.0-3.0-0.26,,key,arrowright,16.65488095,640,304.5,27,1,1,26,35,25,35,TRUE
null,null,psychophysics,56,3136229,0.0-3.0-1.26,,key,null,16.65338983,640,304.5,,,,,,,,
2278.7,arrowright,psychophysics,57,3138517,0.0-3.0-0.27,,key,arrowright,16.65243066,640,304.5,28,2,1,26,15,25,35,TRUE
null,null,psychophysics,58,3139524,0.0-3.0-1.27,,key,null,16.65149153,640,304.5,,,,,,,,
109.8,arrowdown,html-keyboard-response,59,3139635,0.0-3.0-2.27-0.27,"<div style=""color: white; text-align: center; vertical-align: top; display: inline-block; width: 800px; margin: auto""><p>You have completed 10% of the trials. You are on block 2 of 10. <br>Good job! Take a break if you need to.</p><p>Press any key to continue the experiment.</p></div>",,,,,,,,,,,,,
1745.5,arrowleft,psychophysics,60,3142410,0.0-3.0-0.28,,key,arrowleft,16.65450476,640,304.5,29,2,1,20,15,25,35,FALSE
null,null,psychophysics,61,3143424,0.0-3.0-1.28,,key,null,16.65508475,640,304.5,,,,,,,,
989.4,arrowright,psychophysics,62,3144420,0.0-3.0-0.29,,key,arrowright,16.65284746,640,304.5,30,2,-1,30,15,25,35,FALSE
null,null,psychophysics,63,3145423,0.0-3.0-1.29,,key,null,16.65640678,640,304.5,,,,,,,,
890.2,arrowleft,psychophysics,64,3146321,0.0-3.0-0.30,,key,arrowleft,16.65260377,640,304.5,31,2,1,20,35,25,35,FALSE
null,null,psychophysics,65,3147323,0.0-3.0-1.30,,key,null,16.65753333,640,304.5,,,,,,,,
1520.6,arrowright,psychophysics,66,3148848,0.0-3.0-0.31,,key,arrowright,16.65288889,640,304.5,32,2,1,26,15,25,35,TRUE
null,null,psychophysics,67,3149852,0.0-3.0-1.31,,key,null,16.65316949,640,304.5,,,,,,,,
1222.1,arrowright,psychophysics,68,3151081,0.0-3.0-0.32,,key,arrowright,16.6530411,640,304.5,33,2,-1,24,15,25,35,FALSE
null,null,psychophysics,69,3152084,0.0-3.0-1.32,,key,null,16.65732203,640,304.5,,,,,,,,
898.8,arrowleft,psychophysics,70,3152990,0.0-3.0-0.33,,key,arrowleft,16.65025926,640,304.5,34,2,-1,25,15,25,35,TRUE
null,null,psychophysics,71,3153999,0.0-3.0-1.33,,key,null,16.65481356,640,304.5,,,,,,,,
1055.2,arrowright,psychophysics,72,3155061,0.0-3.0-0.34,,key,arrowright,16.65339683,640,304.5,35,2,1,30,15,25,35,TRUE
null,null,psychophysics,73,3156065,0.0-3.0-1.34,,key,null,16.65550847,640,304.5,,,,,,,,
736.6,arrowleft,psychophysics,74,3156809,0.0-3.0-0.35,,key,arrowleft,16.65265909,640,304.5,36,2,-1,27,15,25,35,TRUE
null,null,psychophysics,75,3157814,0.0-3.0-1.35,,key,null,16.65310169,640,304.5,,,,,,,,
1050.8,arrowright,psychophysics,76,3158871,0.0-3.0-0.36,,key,arrowright,16.65311111,640,304.5,37,2,1,26,15,25,35,TRUE
null,null,psychophysics,77,3159879,0.0-3.0-1.36,,key,null,16.65345763,640,304.5,,,,,,,,
750.1,arrowleft,psychophysics,78,3160636,0.0-3.0-0.37,,key,arrowleft,16.65271111,640,304.5,38,2,-1,26,15,25,35,TRUE
null,null,psychophysics,79,3161644,0.0-3.0-1.37,,key,null,16.65518644,640,304.5,,,,,,,,
994.4,arrowright,psychophysics,80,3162645,0.0-3.0-0.38,,key,arrowright,16.64905,640,304.5,39,2,-1,20,15,25,35,FALSE
null,null,psychophysics,81,3163659,0.0-3.0-1.38,,key,null,16.6529661,640,304.5,,,,,,,,
1400.5,arrowright,psychophysics,82,3165065,0.0-3.0-0.39,,key,arrowright,16.65304762,640,304.5,40,2,1,25,15,25,35,TRUE
null,null,psychophysics,83,3166073,0.0-3.0-1.39,,key,null,16.65327119,640,304.5,,,,,,,,
3548.6,arrowleft,psychophysics,84,3169629,0.0-3.0-0.40,,key,arrowleft,16.65295305,640,304.5,41,2,1,20,35,25,35,FALSE
null,null,psychophysics,85,3170637,0.0-3.0-1.40,,key,null,16.65318644,640,304.5,,,,,,,,
1448.6,arrowleft,psychophysics,86,3172092,0.0-3.0-0.41,,key,arrowleft,16.65328736,640,304.5,42,2,-1,27,15,25,35,TRUE
null,null,psychophysics,87,3173101,0.0-3.0-1.41,,key,null,16.65315254,640,304.5,,,,,,,,
915.1,arrowleft,psychophysics,88,3174023,0.0-3.0-0.42,,key,arrowleft,16.65312727,640,304.5,43,2,-1,23,35,25,35,TRUE
null,null,psychophysics,89,3175033,0.0-3.0-1.42,,key,null,16.6529661,640,304.5,,,,,,,,
1871,arrowleft,psychophysics,90,3176911,0.0-3.0-0.43,,key,arrowleft,16.65308929,640,304.5,44,2,1,27,35,25,35,FALSE
null,null,psychophysics,91,3177914,0.0-3.0-1.43,,key,null,16.65616949,640,304.5,,,,,,,,
1397.1,arrowright,psychophysics,92,3179318,0.0-3.0-0.44,,key,arrowright,16.6530119,640,304.5,45,2,1,23,15,25,35,TRUE
null,null,psychophysics,93,3180328,0.0-3.0-1.44,,key,null,16.65284746,640,304.5,,,,,,,,
2314.9,arrowright,psychophysics,94,3182650,0.0-3.0-0.45,,key,arrowright,16.65207194,640,304.5,46,2,1,24,15,25,35,TRUE
null,null,psychophysics,95,3183659,0.0-3.0-1.45,,key,null,16.65530508,640,304.5,,,,,,,,
1015.5,arrowright,psychophysics,96,3184681,0.0-3.0-0.46,,key,arrowright,16.65280328,640,304.5,47,2,-1,20,15,25,35,FALSE
null,null,psychophysics,97,3185691,0.0-3.0-1.46,,key,null,16.65310169,640,304.5,,,,,,,,
1136,arrowleft,psychophysics,98,3186834,0.0-3.0-0.47,,key,arrowleft,16.65247059,640,304.5,48,2,1,23,15,25,35,FALSE
null,null,psychophysics,99,3187839,0.0-3.0-1.47,,key,null,16.65388136,640,304.5,,,,,,,,
3131.7,arrowright,psychophysics,100,3190977,0.0-3.0-0.48,,key,arrowright,16.65291489,640,304.5,49,2,1,26,15,25,35,TRUE
null,null,psychophysics,101,3191985,0.0-3.0-1.48,,key,null,16.65386441,640,304.5,,,,,,,,
941,arrowright,psychophysics,102,3192933,0.0-3.0-0.49,,key,arrowright,16.65310714,640,304.5,50,2,-1,23,35,25,35,FALSE
null,null,psychophysics,103,3193936,0.0-3.0-1.49,,key,null,16.65821667,640,304.5,,,,,,,,
598.4,arrowleft,psychophysics,104,3194540,0.0-3.0-0.50,,key,arrowleft,16.65188571,640,304.5,51,2,1,20,35,25,35,FALSE
null,null,psychophysics,105,3195549,0.0-3.0-1.50,,key,null,16.65283051,640,304.5,,,,,,,,
997,arrowleft,psychophysics,106,3196552,0.0-3.0-0.51,,key,arrowleft,16.6527,640,304.5,52,2,1,24,15,25,35,FALSE
null,null,psychophysics,107,3197564,0.0-3.0-1.51,,key,null,16.6530339,640,304.5,,,,,,,,
884.1,arrowright,psychophysics,108,3198455,0.0-3.0-0.52,,key,arrowright,16.6524717,640,304.5,53,2,1,25,15,25,35,TRUE
null,null,psychophysics,109,3199462,0.0-3.0-1.52,,key,null,16.65261017,640,304.5,,,,,,,,
630.5,arrowright,psychophysics,110,3200099,0.0-3.0-0.53,,key,arrowright,16.64826316,640,304.5,54,2,1,25,35,25,35,TRUE
null,null,psychophysics,111,3201102,0.0-3.0-1.53,,key,null,16.65247458,640,304.5,,,,,,,,
894.9,arrowright,psychophysics,112,3202001,0.0-3.0-0.54,,key,arrowright,16.65326415,640,304.5,55,2,1,23,15,25,35,TRUE
null,null,psychophysics,113,3203010,0.0-3.0-1.54,,key,null,16.65266102,640,304.5,,,,,,,,
550.5,arrowright,psychophysics,114,3203567,0.0-3.0-0.55,,key,arrowright,16.65345455,640,304.5,56,3,-1,20,15,25,35,FALSE
null,null,psychophysics,115,3204575,0.0-3.0-1.55,,key,null,16.65571186,640,304.5,,,,,,,,
2476.3,arrowdown,html-keyboard-response,116,3207054,0.0-3.0-2.55-0.55,"<div style=""color: white; text-align: center; vertical-align: top; display: inline-block; width: 800px; margin: auto""><p>You have completed 20% of the trials. You are on block 3 of 10. <br>Good job! Take a break if you need to.</p><p>Press any key to continue the experiment.</p></div>",,,,,,,,,,,,,
2168.9,arrowleft,psychophysics,117,3210242,0.0-3.0-0.56,,key,arrowleft,16.65345802,640,304.5,57,3,1,20,15,25,35,FALSE
null,null,psychophysics,118,3211253,0.0-3.0-1.56,,key,null,16.6479661,640,304.5,,,,,,,,
3203,arrowright,psychophysics,119,3214463,0.0-3.0-0.57,,key,arrowright,16.65290625,640,304.5,58,3,-1,25,15,25,35,FALSE
null,null,psychophysics,120,3215467,0.0-3.0-1.57,,key,null,16.65833898,640,304.5,,,,,,,,
1637.5,arrowright,psychophysics,121,3217112,0.0-3.0-0.58,,key,arrowright,16.65246939,640,304.5,59,3,1,30,15,25,35,TRUE
null,null,psychophysics,122,3218115,0.0-3.0-1.58,,key,null,16.65744068,640,304.5,,,,,,,,
3934.7,arrowright,psychophysics,123,3222058,0.0-3.0-0.59,,key,arrowright,16.65291525,640,304.5,60,3,-1,25,15,25,35,FALSE
null,null,psychophysics,124,3223061,0.0-3.0-1.59,,key,null,16.65679661,640,304.5,,,,,,,,
1109.9,arrowleft,psychophysics,125,3224180,0.0-3.0-0.60,,key,arrowleft,16.65291045,640,304.5,61,3,-1,26,35,25,35,TRUE
null,null,psychophysics,126,3225192,0.0-3.0-1.60,,key,null,16.65238983,640,304.5,,,,,,,,
806.4,arrowright,psychophysics,127,3226004,0.0-3.0-0.61,,key,arrowright,16.65308333,640,304.5,62,3,-1,23,35,25,35,FALSE
null,null,psychophysics,128,3227008,0.0-3.0-1.61,,key,null,16.65549153,640,304.5,,,,,,,,
762.8,arrowleft,psychophysics,129,3227778,0.0-3.0-0.62,,key,arrowleft,16.65241304,640,304.5,63,3,-1,24,35,25,35,TRUE
null,null,psychophysics,130,3228789,0.0-3.0-1.62,,key,null,16.65535593,640,304.5,,,,,,,,
3665.7,arrowright,psychophysics,131,3232463,0.0-3.0-0.63,,key,arrowright,16.65317273,640,304.5,64,3,1,23,35,25,35,TRUE
null,null,psychophysics,132,3233469,0.0-3.0-1.63,,key,null,16.65322034,640,304.5,,,,,,,,
1016.9,arrowleft,psychophysics,133,3234493,0.0-3.0-0.64,,key,arrowleft,16.65086885,640,304.5,65,3,-1,26,35,25,35,TRUE
null,null,psychophysics,134,3235501,0.0-3.0-1.64,,key,null,16.65301695,640,304.5,,,,,,,,
1432.4,arrowright,psychophysics,135,3236942,0.0-3.0-0.65,,key,arrowright,16.65269767,640,304.5,66,3,1,23,35,25,35,TRUE
null,null,psychophysics,136,3237949,0.0-3.0-1.65,,key,null,16.653,640,304.5,,,,,,,,
1228.6,arrowright,psychophysics,137,3239184,0.0-3.0-0.66,,key,arrowright,16.65627027,640,304.5,67,3,1,23,35,25,35,TRUE
null,null,psychophysics,138,3240197,0.0-3.0-1.66,,key,null,16.65316949,640,304.5,,,,,,,,
751.4,arrowright,psychophysics,139,3240958,0.0-3.0-0.67,,key,arrowright,16.65273333,640,304.5,68,3,-1,24,15,25,35,FALSE
null,null,psychophysics,140,3241962,0.0-3.0-1.67,,key,null,16.65720339,640,304.5,,,,,,,,
697.4,arrowright,psychophysics,141,3242667,0.0-3.0-0.68,,key,arrowright,16.65642857,640,304.5,69,3,-1,23,15,25,35,FALSE
null,null,psychophysics,142,3243677,0.0-3.0-1.68,,key,null,16.65289831,640,304.5,,,,,,,,
611.5,arrowleft,psychophysics,143,3244297,0.0-3.0-0.69,,key,arrowleft,16.65289189,640,304.5,70,3,1,25,15,25,35,FALSE
null,null,psychophysics,144,3245309,0.0-3.0-1.69,,key,null,16.65335593,640,304.5,,,,,,,,
1429.2,arrowleft,psychophysics,145,3246746,0.0-3.0-0.70,,key,arrowleft,16.65273256,640,304.5,71,3,1,26,15,25,35,FALSE
null,null,psychophysics,146,3247757,0.0-3.0-1.70,,key,null,16.65310169,640,304.5,,,,,,,,
533.4,arrowright,psychophysics,147,3248299,0.0-3.0-0.71,,key,arrowright,16.65228125,640,304.5,72,3,-1,27,35,25,35,FALSE
null,null,psychophysics,148,3249306,0.0-3.0-1.71,,key,null,16.65408475,640,304.5,,,,,,,,
671.7,arrowright,psychophysics,149,3249986,0.0-3.0-0.72,,key,arrowright,16.654975,640,304.5,73,3,1,25,35,25,35,TRUE
null,null,psychophysics,150,3250988,0.0-3.0-1.72,,key,null,16.65711864,640,304.5,,,,,,,,
412.7,arrowright,psychophysics,151,3251407,0.0-3.0-0.73,,key,arrowright,16.65276,640,304.5,74,3,-1,20,35,25,35,FALSE
null,null,psychophysics,152,3252420,0.0-3.0-1.73,,key,null,16.65315254,640,304.5,,,,,,,,
485.4,arrowleft,psychophysics,153,3252912,0.0-3.0-0.74,,key,arrowleft,16.65324138,640,304.5,75,3,1,27,15,25,35,FALSE
null,null,psychophysics,154,3253919,0.0-3.0-1.74,,key,null,16.65361017,640,304.5,,,,,,,,
607.4,arrowright,psychophysics,155,3254533,0.0-3.0-0.75,,key,arrowright,16.65213889,640,304.5,76,3,1,30,35,25,35,TRUE
null,null,psychophysics,156,3255536,0.0-3.0-1.75,,key,null,16.65801667,640,304.5,,,,,,,,
439.4,arrowright,psychophysics,157,3255980,0.0-3.0-0.76,,key,arrowright,16.654,640,304.5,77,3,1,27,15,25,35,TRUE
null,null,psychophysics,158,3256983,0.0-3.0-1.76,,key,null,16.65616949,640,304.5,,,,,,,,
328.6,arrowright,psychophysics,159,3257319,0.0-3.0-0.77,,key,arrowright,16.6523,640,304.5,78,3,-1,30,15,25,35,FALSE
null,null,psychophysics,160,3258332,0.0-3.0-1.77,,key,null,16.65335593,640,304.5,,,,,,,,
783.7,arrowleft,psychophysics,161,3259123,0.0-3.0-0.78,,key,arrowleft,16.65246809,640,304.5,79,3,-1,26,15,25,35,TRUE
null,null,psychophysics,162,3260130,0.0-3.0-1.78,,key,null,16.64811864,640,304.5,,,,,,,,
1021.3,arrowright,psychophysics,163,3261156,0.0-3.0-0.79,,key,arrowright,16.65316393,640,304.5,80,3,-1,23,35,25,35,FALSE
null,null,psychophysics,164,3262162,0.0-3.0-1.79,,key,null,16.65801695,640,304.5,,,,,,,,
584,arrowright,psychophysics,165,3262755,0.0-3.0-0.80,,key,arrowright,16.65222857,640,304.5,81,3,-1,27,35,25,35,FALSE
null,null,psychophysics,166,3263761,0.0-3.0-1.80,,key,null,16.65254237,640,304.5,,,,,,,,
520.1,arrowright,psychophysics,167,3264289,0.0-3.0-0.81,,key,arrowright,16.6526129,640,304.5,82,3,1,27,35,25,35,TRUE
null,null,psychophysics,168,3265293,0.0-3.0-1.81,,key,null,16.6530339,640,304.5,,,,,,,,
411.4,arrowright,psychophysics,169,3265712,0.0-3.0-0.82,,key,arrowright,16.66016,640,304.5,83,3,1,24,35,25,35,TRUE
null,null,psychophysics,170,3266725,0.0-3.0-1.82,,key,null,16.65316949,640,304.5,,,,,,,,
386.8,arrowright,psychophysics,171,3267119,0.0-3.0-0.83,,key,arrowright,16.65226087,640,304.5,84,4,-1,26,15,25,35,FALSE
null,null,psychophysics,172,3268124,0.0-3.0-1.83,,key,null,16.65350847,640,304.5,,,,,,,,
1692,arrowdown,html-keyboard-response,173,3269819,0.0-3.0-2.83-0.83,"<div style=""color: white; text-align: center; vertical-align: top; display: inline-block; width: 800px; margin: auto""><p>You have completed 30% of the trials. You are on block 4 of 10. <br>Good job! Take a break if you need to.</p><p>Press any key to continue the experiment.</p></div>",,,,,,,,,,,,,
1239.2,arrowleft,psychophysics,174,3272074,0.0-3.0-0.84,,key,arrowleft,16.65244,640,304.5,85,4,-1,30,35,25,35,TRUE
null,null,psychophysics,175,3273088,0.0-3.0-1.84,,key,null,16.65275,640,304.5,,,,,,,,
2921.4,arrowright,psychophysics,176,3276011,0.0-3.0-0.85,,key,arrowright,16.65291379,640,304.5,86,4,-1,23,15,25,35,FALSE
null,null,psychophysics,177,3277015,0.0-3.0-1.85,,key,null,16.65484746,640,304.5,,,,,,,,
705.1,arrowright,psychophysics,178,3277726,0.0-3.0-0.86,,key,arrowright,16.6535,640,304.5,87,4,-1,26,35,25,35,FALSE
null,null,psychophysics,179,3278732,0.0-3.0-1.86,,key,null,16.65273333,640,304.5,,,,,,,,
839.9,arrowleft,psychophysics,180,3279575,0.0-3.0-0.87,,key,arrowleft,16.65277551,640,304.5,88,4,1,24,15,25,35,FALSE
null,null,psychophysics,181,3280580,0.0-3.0-1.87,,key,null,16.65278333,640,304.5,,,,,,,,
1384.9,arrowright,psychophysics,182,3281969,0.0-3.0-0.88,,key,arrowright,16.65273171,640,304.5,89,4,-1,30,35,25,35,FALSE
null,null,psychophysics,183,3282978,0.0-3.0-1.88,,key,null,16.65115,640,304.5,,,,,,,,
1066,arrowright,psychophysics,184,3284048,0.0-3.0-0.89,,key,arrowright,16.65249206,640,304.5,90,4,1,26,15,25,35,TRUE
null,null,psychophysics,185,3285060,0.0-3.0-1.89,,key,null,16.65268333,640,304.5,,,,,,,,
721.7,arrowright,psychophysics,186,3285786,0.0-3.0-0.90,,key,arrowright,16.65330952,640,304.5,91,4,-1,26,35,25,35,FALSE
null,null,psychophysics,187,3286792,0.0-3.0-1.90,,key,null,16.65275,640,304.5,,,,,,,,
2072.1,arrowleft,psychophysics,188,3288868,0.0-3.0-0.91,,key,arrowleft,16.65313821,640,304.5,92,4,-1,30,15,25,35,TRUE
null,null,psychophysics,189,3289873,0.0-3.0-1.91,,key,null,16.65445,640,304.5,,,,,,,,
986.8,arrowright,psychophysics,190,3290863,0.0-3.0-0.92,,key,arrowright,16.65234483,640,304.5,93,4,1,30,15,25,35,TRUE
null,null,psychophysics,191,3291869,0.0-3.0-1.92,,key,null,16.65315254,640,304.5,,,,,,,,
15.80000001,arrowleft,psychophysics,192,3291892,0.0-3.0-0.93,,key,arrowleft,16.689,640,304.5,94,4,-1,27,15,25,35,TRUE
null,null,psychophysics,193,3292903,0.0-3.0-1.93,,key,null,16.65278333,640,304.5,,,,,,,,
1023.1,arrowleft,psychophysics,194,3293930,0.0-3.0-0.94,,key,arrowleft,16.653,640,304.5,95,4,1,23,15,25,35,FALSE
null,null,psychophysics,195,3294935,0.0-3.0-1.94,,key,null,16.65543333,640,304.5,,,,,,,,
949.9,arrowleft,psychophysics,196,3295889,0.0-3.0-0.95,,key,arrowleft,16.65239286,640,304.5,96,4,1,23,35,25,35,FALSE
null,null,psychophysics,197,3296900,0.0-3.0-1.95,,key,null,16.65265,640,304.5,,,,,,,,
672.7,arrowright,psychophysics,198,3297577,0.0-3.0-0.96,,key,arrowright,16.64951282,640,304.5,97,4,1,25,35,25,35,TRUE
null,null,psychophysics,199,3298582,0.0-3.0-1.96,,key,null,16.65266667,640,304.5,,,,,,,,
678,arrowright,psychophysics,200,3299273,0.0-3.0-0.97,,key,arrowright,16.6574,640,304.5,98,4,-1,27,35,25,35,FALSE
null,null,psychophysics,201,3300280,0.0-3.0-1.97,,key,null,16.65245,640,304.5,,,,,,,,
1806.1,arrowleft,psychophysics,202,3302090,0.0-3.0-0.98,,key,arrowleft,16.65309346,640,304.5,99,4,-1,27,35,25,35,TRUE
null,null,psychophysics,203,3303096,0.0-3.0-1.98,,key,null,16.65293333,640,304.5,,,,,,,,
2412.7,arrowleft,psychophysics,204,3305512,0.0-3.0-0.99,,key,arrowleft,16.65479861,640,304.5,100,4,1,25,35,25,35,FALSE
null,null,psychophysics,205,3306524,0.0-3.0-1.99,,key,null,16.65223729,640,304.5,,,,,,,,
723.8,arrowleft,psychophysics,206,3307255,0.0-3.0-0.100,,key,arrowleft,16.6532093,640,304.5,101,4,1,30,35,25,35,FALSE
null,null,psychophysics,207,3308258,0.0-3.0-1.100,,key,null,16.65825,640,304.5,,,,,,,,
964.4,arrowleft,psychophysics,208,3309226,0.0-3.0-0.101,,key,arrowleft,16.65263158,640,304.5,102,4,1,24,35,25,35,FALSE
null,null,psychophysics,209,3310239,0.0-3.0-1.101,,key,null,16.65351667,640,304.5,,,,,,,,
1312.5,arrowleft,psychophysics,210,3311555,0.0-3.0-0.102,,key,arrowleft,16.64939744,640,304.5,103,4,1,24,15,25,35,FALSE
null,null,psychophysics,211,3312569,0.0-3.0-1.102,,key,null,16.65259322,640,304.5,,,,,,,,
5796.6,arrowright,psychophysics,212,3318373,0.0-3.0-0.103,,key,arrowright,16.65300287,640,304.5,104,4,-1,26,35,25,35,FALSE
null,null,psychophysics,213,3319382,0.0-3.0-1.103,,key,null,16.65431667,640,304.5,,,,,,,,
534.6,arrowright,psychophysics,214,3319921,0.0-3.0-0.104,,key,arrowright,16.65274194,640,304.5,105,4,-1,20,35,25,35,FALSE
null,null,psychophysics,215,3320929,0.0-3.0-1.104,,key,null,16.65244068,640,304.5,,,,,,,,
2063.8,arrowright,psychophysics,216,3323009,0.0-3.0-0.105,,key,arrowright,16.65279032,640,304.5,106,4,1,27,15,25,35,TRUE
null,null,psychophysics,217,3324012,0.0-3.0-1.105,,key,null,16.65708333,640,304.5,,,,,,,,
1341.2,arrowright,psychophysics,218,3325357,0.0-3.0-0.106,,key,arrowright,16.65294937,640,304.5,107,4,1,30,35,25,35,TRUE
null,null,psychophysics,219,3326360,0.0-3.0-1.106,,key,null,16.657,640,304.5,,,,,,,,
2255.2,arrowright,psychophysics,220,3328619,0.0-3.0-0.107,,key,arrowright,16.65285075,640,304.5,108,4,-1,26,15,25,35,FALSE
null,null,psychophysics,221,3329622,0.0-3.0-1.107,,key,null,16.65576271,640,304.5,,,,,,,,
1954,arrowright,psychophysics,222,3331583,0.0-3.0-0.108,,key,arrowright,16.65299145,640,304.5,109,4,-1,30,35,25,35,FALSE
null,null,psychophysics,223,3332586,0.0-3.0-1.108,,key,null,16.65494915,640,304.5,,,,,,,,
869.8,arrowright,psychophysics,224,3333462,0.0-3.0-0.109,,key,arrowright,16.65303846,640,304.5,110,4,1,26,15,25,35,TRUE
null,null,psychophysics,225,3334469,0.0-3.0-1.109,,key,null,16.65451667,640,304.5,,,,,,,,
552,arrowright,psychophysics,226,3335025,0.0-3.0-0.110,,key,arrowright,16.6529375,640,304.5,111,4,1,27,35,25,35,TRUE
null,null,psychophysics,227,3336036,0.0-3.0-1.110,,key,null,16.65288333,640,304.5,,,,,,,,
958.4,arrowright,psychophysics,228,3336998,0.0-3.0-0.111,,key,arrowright,16.65294643,640,304.5,112,5,1,27,35,25,35,TRUE
null,null,psychophysics,229,3338001,0.0-3.0-1.111,,key,null,16.65666667,640,304.5,,,,,,,,
1314.8, ,html-keyboard-response,230,3339318,0.0-3.0-2.111-0.111,"<div style=""color: white; text-align: center; vertical-align: top; display: inline-block; width: 800px; margin: auto""><p>You have completed 40% of the trials. You are on block 5 of 10. <br>Good job! Take a break if you need to.</p><p>Press any key to continue the experiment.</p></div>",,,,,,,,,,,,,
743.4,arrowright,psychophysics,231,3341085,0.0-3.0-0.112,,key,arrowright,16.65913333,640,304.5,113,5,1,27,35,25,35,TRUE
null,null,psychophysics,232,3342095,0.0-3.0-1.112,,key,null,16.65215254,640,304.5,,,,,,,,
925.8,arrowleft,psychophysics,233,3343024,0.0-3.0-0.113,,key,arrowleft,16.65867273,640,304.5,114,5,1,20,15,25,35,FALSE
null,null,psychophysics,234,3344028,0.0-3.0-1.113,,key,null,16.65576271,640,304.5,,,,,,,,
545.5,arrowright,psychophysics,235,3344580,0.0-3.0-0.114,,key,arrowright,16.65533333,640,304.5,115,5,-1,23,15,25,35,FALSE
null,null,psychophysics,236,3345593,0.0-3.0-1.114,,key,null,16.65316949,640,304.5,,,,,,,,
622.4,arrowright,psychophysics,237,3346222,0.0-3.0-0.115,,key,arrowright,16.65345946,640,304.5,116,5,-1,23,15,25,35,FALSE
null,null,psychophysics,238,3347225,0.0-3.0-1.115,,key,null,16.65586441,640,304.5,,,,,,,,
629.4,arrowright,psychophysics,239,3347860,0.0-3.0-0.116,,key,arrowright,16.64547368,640,304.5,117,5,-1,27,15,25,35,FALSE
null,null,psychophysics,240,3348875,0.0-3.0-1.116,,key,null,16.65545763,640,304.5,,,,,,,,
1140.8,arrowright,psychophysics,241,3350021,0.0-3.0-0.117,,key,arrowright,16.62686765,640,304.5,118,5,1,25,15,25,35,TRUE
null,null,psychophysics,242,3351024,0.0-3.0-1.117,,key,null,16.65701667,640,304.5,,,,,,,,
1088.3,arrowright,psychophysics,243,3352117,0.0-3.0-0.118,,key,arrowright,16.65317187,640,304.5,119,5,1,25,35,25,35,TRUE
null,null,psychophysics,244,3353122,0.0-3.0-1.118,,key,null,16.6554,640,304.5,,,,,,,,
1056.6,arrowright,psychophysics,245,3354184,0.0-3.0-0.119,,key,arrowright,16.65332258,640,304.5,120,5,-1,20,15,25,35,FALSE
null,null,psychophysics,246,3355188,0.0-3.0-1.119,,key,null,16.65708333,640,304.5,,,,,,,,
962.5,arrowright,psychophysics,247,3356154,0.0-3.0-0.120,,key,arrowright,16.65701754,640,304.5,121,5,1,30,15,25,35,TRUE
null,null,psychophysics,248,3357167,0.0-3.0-1.120,,key,null,16.65301695,640,304.5,,,,,,,,
1501.3,arrowright,psychophysics,249,3358676,0.0-3.0-0.121,,key,arrowright,16.65371111,640,304.5,122,5,-1,24,35,25,35,FALSE
null,null,psychophysics,250,3359683,0.0-3.0-1.121,,key,null,16.65479661,640,304.5,,,,,,,,
989,arrowright,psychophysics,251,3360680,0.0-3.0-0.122,,key,arrowright,16.64852542,640,304.5,123,5,1,30,15,25,35,TRUE
null,null,psychophysics,252,3361683,0.0-3.0-1.122,,key,null,16.65781667,640,304.5,,,,,,,,
1157.5,arrowright,psychophysics,253,3362845,0.0-3.0-0.123,,key,arrowright,16.65286765,640,304.5,124,5,1,30,35,25,35,TRUE
null,null,psychophysics,254,3363849,0.0-3.0-1.123,,key,null,16.65858333,640,304.5,,,,,,,,
779.2,arrowright,psychophysics,255,3364632,0.0-3.0-0.124,,key,arrowright,16.65263043,640,304.5,125,5,1,30,35,25,35,TRUE
null,null,psychophysics,256,3365643,0.0-3.0-1.124,,key,null,16.65277966,640,304.5,,,,,,,,
727.6,arrowright,psychophysics,257,3366379,0.0-3.0-0.125,,key,arrowright,16.64795455,640,304.5,126,5,1,30,15,25,35,TRUE
null,null,psychophysics,258,3367392,0.0-3.0-1.125,,key,null,16.65330508,640,304.5,,,,,,,,
3109.4,arrowright,psychophysics,259,3370509,0.0-3.0-0.126,,key,arrowright,16.65292513,640,304.5,127,5,1,23,35,25,35,TRUE
null,null,psychophysics,260,3371522,0.0-3.0-1.126,,key,null,16.65237288,640,304.5,,,,,,,,
1522.9,arrowright,psychophysics,261,3373053,0.0-3.0-0.127,,key,arrowright,16.65274725,640,304.5,128,5,-1,26,35,25,35,FALSE
null,null,psychophysics,262,3374056,0.0-3.0-1.127,,key,null,16.65661667,640,304.5,,,,,,,,
4177,arrowleft,psychophysics,263,3378238,0.0-3.0-0.128,,key,arrowleft,16.6532,640,304.5,129,5,1,20,35,25,35,FALSE
null,null,psychophysics,264,3379249,0.0-3.0-1.128,,key,null,16.65315254,640,304.5,,,,,,,,
728.5,arrowright,psychophysics,265,3379985,0.0-3.0-0.129,,key,arrowright,16.65620455,640,304.5,130,5,1,25,15,25,35,TRUE
null,null,psychophysics,266,3380997,0.0-3.0-1.129,,key,null,16.64747458,640,304.5,,,,,,,,
718.4,arrowleft,psychophysics,267,3381719,0.0-3.0-0.130,,key,arrowleft,16.65281395,640,304.5,131,5,1,20,35,25,35,FALSE
null,null,psychophysics,268,3382729,0.0-3.0-1.130,,key,null,16.65781356,640,304.5,,,,,,,,
2579.9,arrowright,psychophysics,269,3385323,0.0-3.0-0.131,,key,arrowright,16.65350968,640,304.5,132,5,-1,24,35,25,35,FALSE
null,null,psychophysics,270,3386327,0.0-3.0-1.131,,key,null,16.65618644,640,304.5,,,,,,,,
1181.5,arrowright,psychophysics,271,3387516,0.0-3.0-0.132,,key,arrowright,16.65349296,640,304.5,133,5,-1,25,35,25,35,FALSE
null,null,psychophysics,272,3388525,0.0-3.0-1.132,,key,null,16.65266102,640,304.5,,,,,,,,
2513.7,arrowright,psychophysics,273,3391045,0.0-3.0-0.133,,key,arrowright,16.65310596,640,304.5,134,5,-1,23,35,25,35,FALSE
null,null,psychophysics,274,3392055,0.0-3.0-1.133,,key,null,16.65286441,640,304.5,,,,,,,,
766.7,arrowright,psychophysics,275,3392829,0.0-3.0-0.134,,key,arrowright,16.65041304,640,304.5,135,5,1,27,15,25,35,TRUE
null,null,psychophysics,276,3393839,0.0-3.0-1.134,,key,null,16.65328333,640,304.5,,,,,,,,
1398.5,arrowright,psychophysics,277,3395241,0.0-3.0-0.135,,key,arrowright,16.65308434,640,304.5,136,5,-1,24,35,25,35,FALSE
null,null,psychophysics,278,3396250,0.0-3.0-1.135,,key,null,16.65320339,640,304.5,,,,,,,,
868.6,arrowright,psychophysics,279,3397126,0.0-3.0-0.136,,key,arrowright,16.65223077,640,304.5,137,5,1,25,15,25,35,TRUE
null,null,psychophysics,280,3398134,0.0-3.0-1.136,,key,null,16.65473333,640,304.5,,,,,,,,
1248.4,arrowright,psychophysics,281,3399387,0.0-3.0-0.137,,key,arrowright,16.65264865,640,304.5,138,5,-1,26,35,25,35,FALSE
null,null,psychophysics,282,3400396,0.0-3.0-1.137,,key,null,16.65327119,640,304.5,,,,,,,,
744.8,arrowright,psychophysics,283,3401149,0.0-3.0-0.138,,key,arrowright,16.65864444,640,304.5,139,5,-1,24,15,25,35,FALSE
null,null,psychophysics,284,3402161,0.0-3.0-1.138,,key,null,16.65305085,640,304.5,,,,,,,,
612.6,arrowright,psychophysics,285,3402781,0.0-3.0-0.139,,key,arrowright,16.66078378,640,304.5,140,6,1,25,35,25,35,TRUE
null,null,psychophysics,286,3403793,0.0-3.0-1.139,,key,null,16.65561017,640,304.5,,,,,,,,
2968.2, ,html-keyboard-response,287,3406764,0.0-3.0-2.139-0.139,"<div style=""color: white; text-align: center; vertical-align: top; display: inline-block; width: 800px; margin: auto""><p>You have completed 50% of the trials. You are on block 6 of 10. <br>Good job! Take a break if you need to.</p><p>Press any key to continue the experiment.</p></div>",,,,,,,,,,,,,
1342.4,arrowright,psychophysics,288,3409126,0.0-3.0-0.140,,key,arrowright,16.65049383,640,304.5,141,6,1,24,15,25,35,TRUE
null,null,psychophysics,289,3410138,0.0-3.0-1.140,,key,null,16.65254237,640,304.5,,,,,,,,
762.9,arrowright,psychophysics,290,3410908,0.0-3.0-0.141,,key,arrowright,16.65519565,640,304.5,142,6,1,26,35,25,35,TRUE
null,null,psychophysics,291,3411920,0.0-3.0-1.141,,key,null,16.65286441,640,304.5,,,,,,,,
548.6,arrowright,psychophysics,292,3412476,0.0-3.0-0.142,,key,arrowright,16.65348485,640,304.5,143,6,1,27,35,25,35,TRUE
null,null,psychophysics,293,3413485,0.0-3.0-1.142,,key,null,16.65277966,640,304.5,,,,,,,,
758.9,arrowright,psychophysics,294,3414251,0.0-3.0-0.143,,key,arrowright,16.65264444,640,304.5,144,6,-1,24,35,25,35,FALSE
null,null,psychophysics,295,3415254,0.0-3.0-1.143,,key,null,16.6552,640,304.5,,,,,,,,
653.7,arrowright,psychophysics,296,3415913,0.0-3.0-0.144,,key,arrowright,16.68207895,640,304.5,145,6,1,27,15,25,35,TRUE
null,null,psychophysics,297,3416916,0.0-3.0-1.144,,key,null,16.65667797,640,304.5,,,,,,,,
786.6,arrowright,psychophysics,298,3417710,0.0-3.0-0.145,,key,arrowright,16.65314894,640,304.5,146,6,1,20,35,25,35,TRUE
null,null,psychophysics,299,3418717,0.0-3.0-1.145,,key,null,16.65336667,640,304.5,,,,,,,,
729.1,arrowright,psychophysics,300,3419450,0.0-3.0-0.146,,key,arrowright,16.65276744,640,304.5,147,6,-1,24,35,25,35,FALSE
null,null,psychophysics,301,3420463,0.0-3.0-1.146,,key,null,16.65588136,640,304.5,,,,,,,,
473.9,arrowleft,psychophysics,302,3420944,0.0-3.0-0.147,,key,arrowleft,16.65060714,640,304.5,148,6,1,26,35,25,35,FALSE
null,null,psychophysics,303,3421947,0.0-3.0-1.147,,key,null,16.6575,640,304.5,,,,,,,,
1835.4,arrowright,psychophysics,304,3423788,0.0-3.0-0.148,,key,arrowright,16.65301835,640,304.5,149,6,-1,24,15,25,35,FALSE
null,null,psychophysics,305,3424793,0.0-3.0-1.148,,key,null,16.65294915,640,304.5,,,,,,,,
1019.5,arrowright,psychophysics,306,3425819,0.0-3.0-0.149,,key,arrowright,16.65380328,640,304.5,150,6,-1,20,15,25,35,FALSE
null,null,psychophysics,307,3426825,0.0-3.0-1.149,,key,null,16.6530339,640,304.5,,,,,,,,
606.5,arrowleft,psychophysics,308,3427448,0.0-3.0-0.150,,key,arrowleft,16.64535135,640,304.5,151,6,1,23,15,25,35,FALSE
null,null,psychophysics,309,3428456,0.0-3.0-1.150,,key,null,16.65181356,640,304.5,,,,,,,,
310.6,arrowright,psychophysics,310,3428771,0.0-3.0-0.151,,key,arrowright,16.65344444,640,304.5,152,6,1,23,15,25,35,TRUE
null,null,psychophysics,311,3429773,0.0-3.0-1.151,,key,null,16.65285,640,304.5,,,,,,,,
765.1,arrowleft,psychophysics,312,3430541,0.0-3.0-0.152,,key,arrowleft,16.65275556,640,304.5,153,6,-1,30,35,25,35,TRUE
null,null,psychophysics,313,3431553,0.0-3.0-1.152,,key,null,16.65223729,640,304.5,,,,,,,,
594.1,arrowright,psychophysics,314,3432152,0.0-3.0-0.153,,key,arrowright,16.653,640,304.5,154,6,-1,26,35,25,35,FALSE
null,null,psychophysics,315,3433169,0.0-3.0-1.153,,key,null,16.65371667,640,304.5,,,,,,,,
1914,arrowright,psychophysics,316,3435088,0.0-3.0-0.154,,key,arrowright,16.65383478,640,304.5,155,6,1,24,15,25,35,TRUE
null,null,psychophysics,317,3436100,0.0-3.0-1.154,,key,null,16.65284746,640,304.5,,,,,,,,
512.9,arrowright,psychophysics,318,3436619,0.0-3.0-0.155,,key,arrowright,16.65406452,640,304.5,156,6,1,27,35,25,35,TRUE
null,null,psychophysics,319,3437632,0.0-3.0-1.155,,key,null,16.65311864,640,304.5,,,,,,,,
371.7,arrowright,psychophysics,320,3438008,0.0-3.0-0.156,,key,arrowright,16.65413636,640,304.5,157,6,-1,27,35,25,35,FALSE
null,null,psychophysics,321,3439014,0.0-3.0-1.156,,key,null,16.65774576,640,304.5,,,,,,,,
273.2,arrowright,psychophysics,322,3439294,0.0-3.0-0.157,,key,arrowright,16.6551875,640,304.5,158,6,1,20,35,25,35,TRUE
null,null,psychophysics,323,3440297,0.0-3.0-1.157,,key,null,16.65713559,640,304.5,,,,,,,,
525,arrowleft,psychophysics,324,3440828,0.0-3.0-0.158,,key,arrowleft,16.65332258,640,304.5,159,6,1,24,15,25,35,FALSE
null,null,psychophysics,325,3441846,0.0-3.0-1.158,,key,null,16.65798333,640,304.5,,,,,,,,
537.3,arrowright,psychophysics,326,3442391,0.0-3.0-0.159,,key,arrowright,16.65209375,640,304.5,160,6,-1,20,15,25,35,FALSE
null,null,psychophysics,327,3443394,0.0-3.0-1.159,,key,null,16.6559322,640,304.5,,,,,,,,
570.4,arrowleft,psychophysics,328,3443972,0.0-3.0-0.160,,key,arrowleft,16.65305882,640,304.5,161,6,-1,23,15,25,35,TRUE
null,null,psychophysics,329,3444976,0.0-3.0-1.160,,key,null,16.65311864,640,304.5,,,,,,,,
232,arrowright,psychophysics,330,3445216,0.0-3.0-0.161,,key,arrowright,16.65142857,640,304.5,162,6,1,23,15,25,35,TRUE
null,null,psychophysics,331,3446225,0.0-3.0-1.161,,key,null,16.653,640,304.5,,,,,,,,
543.8,arrowright,psychophysics,332,3446777,0.0-3.0-0.162,,key,arrowright,16.64472727,640,304.5,163,6,-1,23,15,25,35,FALSE
null,null,psychophysics,333,3447784,0.0-3.0-1.162,,key,null,16.65359322,640,304.5,,,,,,,,
531.3,arrowleft,psychophysics,334,3448319,0.0-3.0-0.163,,key,arrowleft,16.65303226,640,304.5,164,6,-1,30,15,25,35,TRUE
null,null,psychophysics,335,3449323,0.0-3.0-1.163,,key,null,16.65523729,640,304.5,,,,,,,,
815.4,arrowleft,psychophysics,336,3450146,0.0-3.0-0.164,,key,arrowleft,16.6534898,640,304.5,165,6,1,23,15,25,35,FALSE
null,null,psychophysics,337,3451155,0.0-3.0-1.164,,key,null,16.65216949,640,304.5,,,,,,,,
395.6,arrowleft,psychophysics,338,3451558,0.0-3.0-0.165,,key,arrowleft,16.65454167,640,304.5,166,6,1,25,35,25,35,FALSE
null,null,psychophysics,339,3452570,0.0-3.0-1.165,,key,null,16.65125424,640,304.5,,,,,,,,
242.1,arrowleft,psychophysics,340,3452819,0.0-3.0-0.166,,key,arrowleft,16.65607143,640,304.5,167,6,1,23,15,25,35,FALSE
null,null,psychophysics,341,3453821,0.0-3.0-1.166,,key,null,16.65795,640,304.5,,,,,,,,
588.2,arrowright,psychophysics,342,3454414,0.0-3.0-0.167,,key,arrowright,16.65170588,640,304.5,168,7,-1,25,15,25,35,FALSE
null,null,psychophysics,343,3455421,0.0-3.0-1.167,,key,null,16.65481356,640,304.5,,,,,,,,
2447.3, ,html-keyboard-response,344,3457871,0.0-3.0-2.167-0.167,"<div style=""color: white; text-align: center; vertical-align: top; display: inline-block; width: 800px; margin: auto""><p>You have completed 60% of the trials. You are on block 7 of 10. <br>Good job! Take a break if you need to.</p><p>Press any key to continue the experiment.</p></div>",,,,,,,,,,,,,
626.1,arrowright,psychophysics,345,3459524,0.0-3.0-0.168,,key,arrowright,16.65544737,640,304.5,169,7,1,26,35,25,35,TRUE
null,null,psychophysics,346,3460533,0.0-3.0-1.168,,key,null,16.65720339,640,304.5,,,,,,,,
407.6,arrowright,psychophysics,347,3460949,0.0-3.0-0.169,,key,arrowright,16.65295833,640,304.5,170,7,-1,27,35,25,35,FALSE
null,null,psychophysics,348,3461951,0.0-3.0-1.169,,key,null,16.65801667,640,304.5,,,,,,,,
754.7,arrowright,psychophysics,349,3462710,0.0-3.0-0.170,,key,arrowright,16.64538636,640,304.5,171,7,-1,26,35,25,35,FALSE
null,null,psychophysics,350,3463715,0.0-3.0-1.170,,key,null,16.65256667,640,304.5,,,,,,,,
373.6,arrowright,psychophysics,351,3464091,0.0-3.0-0.171,,key,arrowright,16.65990476,640,304.5,172,7,1,25,35,25,35,TRUE
null,null,psychophysics,352,3465096,0.0-3.0-1.171,,key,null,16.65349153,640,304.5,,,,,,,,
546.6,arrowright,psychophysics,353,3465658,0.0-3.0-0.172,,key,arrowright,16.652,640,304.5,173,7,-1,27,15,25,35,FALSE
null,null,psychophysics,354,3466663,0.0-3.0-1.172,,key,null,16.65586667,640,304.5,,,,,,,,
821.7,arrowright,psychophysics,355,3467489,0.0-3.0-0.173,,key,arrowright,16.65233333,640,304.5,174,7,-1,27,35,25,35,FALSE
null,null,psychophysics,356,3468495,0.0-3.0-1.173,,key,null,16.65283333,640,304.5,,,,,,,,
625.3,arrowright,psychophysics,357,3469124,0.0-3.0-0.174,,key,arrowright,16.64841667,640,304.5,175,7,-1,26,15,25,35,FALSE
null,null,psychophysics,358,3470127,0.0-3.0-1.174,,key,null,16.65681667,640,304.5,,,,,,,,
837.5,arrowright,psychophysics,359,3470969,0.0-3.0-0.175,,key,arrowright,16.65279592,640,304.5,176,7,-1,26,35,25,35,FALSE
null,null,psychophysics,360,3471976,0.0-3.0-1.175,,key,null,16.65255,640,304.5,,,,,,,,
305.3,arrowright,psychophysics,361,3472286,0.0-3.0-0.176,,key,arrowright,16.65211765,640,304.5,177,7,-1,20,35,25,35,FALSE
null,null,psychophysics,362,3473291,0.0-3.0-1.176,,key,null,16.65575,640,304.5,,,,,,,,
490.2,arrowright,psychophysics,363,3473785,0.0-3.0-0.177,,key,arrowright,16.65392857,640,304.5,178,7,1,30,35,25,35,TRUE
null,null,psychophysics,364,3474790,0.0-3.0-1.177,,key,null,16.65721667,640,304.5,,,,,,,,
772.9,arrowright,psychophysics,365,3475567,0.0-3.0-0.178,,key,arrowright,16.65284444,640,304.5,179,7,-1,24,35,25,35,FALSE
null,null,psychophysics,366,3476571,0.0-3.0-1.178,,key,null,16.6549,640,304.5,,,,,,,,
419.4,arrowright,psychophysics,367,3476995,0.0-3.0-0.179,,key,arrowright,16.65220833,640,304.5,180,7,-1,30,15,25,35,FALSE
null,null,psychophysics,368,3478003,0.0-3.0-1.179,,key,null,16.65496667,640,304.5,,,,,,,,
731.5,arrowright,psychophysics,369,3478739,0.0-3.0-0.180,,key,arrowright,16.65934884,640,304.5,181,7,-1,24,35,25,35,FALSE
null,null,psychophysics,370,3479752,0.0-3.0-1.180,,key,null,16.6527,640,304.5,,,,,,,,
769.3,arrowright,psychophysics,371,3480525,0.0-3.0-0.181,,key,arrowright,16.65308889,640,304.5,182,7,-1,20,35,25,35,FALSE
null,null,psychophysics,372,3481534,0.0-3.0-1.181,,key,null,16.65283333,640,304.5,,,,,,,,
673.1,arrowright,psychophysics,373,3482211,0.0-3.0-0.182,,key,arrowright,16.65315385,640,304.5,183,7,-1,27,35,25,35,FALSE
null,null,psychophysics,374,3483216,0.0-3.0-1.182,,key,null,16.65268333,640,304.5,,,,,,,,
531.6,arrowright,psychophysics,375,3483753,0.0-3.0-0.183,,key,arrowright,16.65093548,640,304.5,184,7,1,26,35,25,35,TRUE
null,null,psychophysics,376,3484765,0.0-3.0-1.183,,key,null,16.65291667,640,304.5,,,,,,,,
412.8,arrowright,psychophysics,377,3485182,0.0-3.0-0.184,,key,arrowright,16.64445833,640,304.5,185,7,-1,25,15,25,35,FALSE
null,null,psychophysics,378,3486197,0.0-3.0-1.184,,key,null,16.65281667,640,304.5,,,,,,,,
718.9,arrowright,psychophysics,379,3486920,0.0-3.0-0.185,,key,arrowright,16.65230952,640,304.5,186,7,1,27,35,25,35,TRUE
null,null,psychophysics,380,3487928,0.0-3.0-1.185,,key,null,16.65251667,640,304.5,,,,,,,,
329.4,arrowright,psychophysics,381,3488262,0.0-3.0-0.186,,key,arrowright,16.63936842,640,304.5,187,7,1,26,35,25,35,TRUE
null,null,psychophysics,382,3489278,0.0-3.0-1.186,,key,null,16.65316667,640,304.5,,,,,,,,
319.5,arrowright,psychophysics,383,3489601,0.0-3.0-0.187,,key,arrowright,16.65372222,640,304.5,188,7,-1,30,15,25,35,FALSE
null,null,psychophysics,384,3490610,0.0-3.0-1.187,,key,null,16.65271667,640,304.5,,,,,,,,
666.7,arrowright,psychophysics,385,3491281,0.0-3.0-0.188,,key,arrowright,16.65194872,640,304.5,189,7,-1,24,15,25,35,FALSE
null,null,psychophysics,386,3492292,0.0-3.0-1.188,,key,null,16.65295,640,304.5,,,,,,,,
475.5,arrowleft,psychophysics,387,3492772,0.0-3.0-0.189,,key,arrowleft,16.65277778,640,304.5,190,7,1,25,15,25,35,FALSE
null,null,psychophysics,388,3493774,0.0-3.0-1.189,,key,null,16.65725,640,304.5,,,,,,,,
544.5,arrowleft,psychophysics,389,3494322,0.0-3.0-0.190,,key,arrowleft,16.65048387,640,304.5,191,7,-1,25,35,25,35,TRUE
null,null,psychophysics,390,3495339,0.0-3.0-1.190,,key,null,16.6577541,640,304.5,,,,,,,,
705,arrowleft,psychophysics,391,3496050,0.0-3.0-0.191,,key,arrowleft,16.6522439,640,304.5,192,7,-1,25,15,25,35,TRUE
null,null,psychophysics,392,3497055,0.0-3.0-1.191,,key,null,16.65486667,640,304.5,,,,,,,,
867.6,arrowleft,psychophysics,393,3497926,0.0-3.0-0.192,,key,arrowleft,16.65298039,640,304.5,193,7,1,20,15,25,35,FALSE
null,null,psychophysics,394,3498936,0.0-3.0-1.192,,key,null,16.65295,640,304.5,,,,,,,,
666.3,arrowleft,psychophysics,395,3499607,0.0-3.0-0.193,,key,arrowleft,16.65310256,640,304.5,194,7,1,27,35,25,35,FALSE
null,null,psychophysics,396,3500617,0.0-3.0-1.193,,key,null,16.65277966,640,304.5,,,,,,,,
880.1,arrowleft,psychophysics,397,3501503,0.0-3.0-0.194,,key,arrowleft,16.65158491,640,304.5,195,7,-1,26,15,25,35,TRUE
null,null,psychophysics,398,3502516,0.0-3.0-1.194,,key,null,16.65708333,640,304.5,,,,,,,,
599,arrowleft,psychophysics,399,3503119,0.0-3.0-0.195,,key,arrowleft,16.65268571,640,304.5,196,8,-1,25,35,25,35,TRUE
null,null,psychophysics,400,3504132,0.0-3.0-1.195,,key,null,16.65428333,640,304.5,,,,,,,,
1214.2, ,html-keyboard-response,401,3505349,0.0-3.0-2.195-0.195,"<div style=""color: white; text-align: center; vertical-align: top; display: inline-block; width: 800px; margin: auto""><p>You have completed 70% of the trials. You are on block 8 of 10. <br>Good job! Take a break if you need to.</p><p>Press any key to continue the experiment.</p></div>",,,,,,,,,,,,,
155.8,arrowright,psychophysics,402,3506517,0.0-3.0-0.196,,key,arrowright,16.6559,640,304.5,197,8,1,27,15,25,35,TRUE
null,null,psychophysics,403,3507530,0.0-3.0-1.196,,key,null,16.65275,640,304.5,,,,,,,,
612.3,arrowright,psychophysics,404,3508146,0.0-3.0-0.197,,key,arrowright,16.64716667,640,304.5,198,8,-1,25,15,25,35,FALSE
null,null,psychophysics,405,3509162,0.0-3.0-1.197,,key,null,16.65258333,640,304.5,,,,,,,,
622.4,arrowright,psychophysics,406,3509797,0.0-3.0-0.198,,key,arrowright,16.65624324,640,304.5,199,8,-1,20,35,25,35,FALSE
null,null,psychophysics,407,3510808,0.0-3.0-1.198,,key,null,16.65361017,640,304.5,,,,,,,,
735.5,arrowright,psychophysics,408,3511551,0.0-3.0-0.199,,key,arrowright,16.65306818,640,304.5,200,8,1,27,15,25,35,TRUE
null,null,psychophysics,409,3512559,0.0-3.0-1.199,,key,null,16.65216667,640,304.5,,,,,,,,
347.6,arrowright,psychophysics,410,3512910,0.0-3.0-0.200,,key,arrowright,16.6548,640,304.5,201,8,1,24,35,25,35,TRUE
null,null,psychophysics,411,3513924,0.0-3.0-1.200,,key,null,16.65615,640,304.5,,,,,,,,
266.6,arrowright,psychophysics,412,3514195,0.0-3.0-0.201,,key,arrowright,16.6542,640,304.5,202,8,-1,27,35,25,35,FALSE
null,null,psychophysics,413,3515207,0.0-3.0-1.201,,key,null,16.65291667,640,304.5,,,,,,,,
336.5,arrowright,psychophysics,414,3515546,0.0-3.0-0.202,,key,arrowright,16.65163158,640,304.5,203,8,-1,23,15,25,35,FALSE
null,null,psychophysics,415,3516553,0.0-3.0-1.202,,key,null,16.6548,640,304.5,,,,,,,,
335.7,arrowright,psychophysics,416,3516893,0.0-3.0-0.203,,key,arrowright,16.65152632,640,304.5,204,8,1,20,15,25,35,TRUE
null,null,psychophysics,417,3517917,0.0-3.0-1.203,,key,null,16.6578,640,304.5,,,,,,,,
413.5,arrowleft,psychophysics,418,3518337,0.0-3.0-0.204,,key,arrowleft,16.64968,640,304.5,205,8,1,25,15,25,35,FALSE
null,null,psychophysics,419,3519351,0.0-3.0-1.204,,key,null,16.65513333,640,304.5,,,,,,,,
485,arrowleft,psychophysics,420,3519840,0.0-3.0-0.205,,key,arrowleft,16.66017857,640,304.5,206,8,1,23,35,25,35,FALSE
null,null,psychophysics,421,3520850,0.0-3.0-1.205,,key,null,16.65286667,640,304.5,,,,,,,,
418.2,arrowleft,psychophysics,422,3521272,0.0-3.0-0.206,,key,arrowleft,16.65208333,640,304.5,207,8,1,20,35,25,35,FALSE
null,null,psychophysics,423,3522282,0.0-3.0-1.206,,key,null,16.65261667,640,304.5,,,,,,,,
456.7,arrowleft,psychophysics,424,3522743,0.0-3.0-0.207,,key,arrowleft,16.65203846,640,304.5,208,8,1,20,35,25,35,FALSE
null,null,psychophysics,425,3523746,0.0-3.0-1.207,,key,null,16.65813559,640,304.5,,,,,,,,
697.5,arrowleft,psychophysics,426,3524451,0.0-3.0-0.208,,key,arrowleft,16.6522619,640,304.5,209,8,-1,25,35,25,35,TRUE
null,null,psychophysics,427,3525462,0.0-3.0-1.208,,key,null,16.65296667,640,304.5,,,,,,,,
551.8,arrowleft,psychophysics,428,3526018,0.0-3.0-0.209,,key,arrowleft,16.65715625,640,304.5,210,8,-1,30,35,25,35,TRUE
null,null,psychophysics,429,3527028,0.0-3.0-1.209,,key,null,16.65256667,640,304.5,,,,,,,,
316.1,arrowleft,psychophysics,430,3527348,0.0-3.0-0.210,,key,arrowleft,16.65294444,640,304.5,211,8,1,26,15,25,35,FALSE
null,null,psychophysics,431,3528360,0.0-3.0-1.210,,key,null,16.65288333,640,304.5,,,,,,,,
266.4,arrowleft,psychophysics,432,3528631,0.0-3.0-0.211,,key,arrowleft,16.65186667,640,304.5,212,8,1,30,35,25,35,FALSE
null,null,psychophysics,433,3529643,0.0-3.0-1.211,,key,null,16.65261667,640,304.5,,,,,,,,
184.8,arrowleft,psychophysics,434,3529831,0.0-3.0-0.212,,key,arrowleft,16.653,640,304.5,213,8,1,23,35,25,35,FALSE
null,null,psychophysics,435,3530840,0.0-3.0-1.212,,key,null,16.65311864,640,304.5,,,,,,,,
96.09999996,arrowleft,psychophysics,436,3530942,0.0-3.0-0.213,,key,arrowleft,16.65,640,304.5,214,8,-1,23,15,25,35,TRUE
null,null,psychophysics,437,3531958,0.0-3.0-1.213,,key,null,16.65116667,640,304.5,,,,,,,,
547.2,arrowleft,psychophysics,438,3532509,0.0-3.0-0.214,,key,arrowleft,16.65221875,640,304.5,215,8,-1,25,35,25,35,TRUE
null,null,psychophysics,439,3533522,0.0-3.0-1.214,,key,null,16.65253333,640,304.5,,,,,,,,
326.2,arrowleft,psychophysics,440,3533852,0.0-3.0-0.215,,key,arrowleft,16.65344444,640,304.5,216,8,-1,23,15,25,35,TRUE
null,null,psychophysics,441,3534854,0.0-3.0-1.215,,key,null,16.65835,640,304.5,,,,,,,,
578.9,arrowleft,psychophysics,442,3535438,0.0-3.0-0.216,,key,arrowleft,16.64402941,640,304.5,217,8,1,24,35,25,35,FALSE
null,null,psychophysics,443,3536454,0.0-3.0-1.216,,key,null,16.65326667,640,304.5,,,,,,,,
298.3,arrowright,psychophysics,444,3536757,0.0-3.0-0.217,,key,arrowright,16.65223529,640,304.5,218,8,1,26,35,25,35,TRUE
null,null,psychophysics,445,3537769,0.0-3.0-1.217,,key,null,16.65251667,640,304.5,,,,,,,,
304.8,arrowright,psychophysics,446,3538077,0.0-3.0-0.218,,key,arrowright,16.65111765,640,304.5,219,8,-1,20,35,25,35,FALSE
null,null,psychophysics,447,3539085,0.0-3.0-1.218,,key,null,16.65811667,640,304.5,,,,,,,,
795.5,arrowleft,psychophysics,448,3539885,0.0-3.0-0.219,,key,arrowleft,16.649,640,304.5,220,8,1,20,15,25,35,FALSE
null,null,psychophysics,449,3540900,0.0-3.0-1.219,,key,null,16.65298333,640,304.5,,,,,,,,
570.4,arrowleft,psychophysics,450,3541474,0.0-3.0-0.220,,key,arrowleft,16.65339394,640,304.5,221,8,-1,23,35,25,35,TRUE
null,null,psychophysics,451,3542482,0.0-3.0-1.220,,key,null,16.6527,640,304.5,,,,,,,,
553.4,arrowright,psychophysics,452,3543040,0.0-3.0-0.221,,key,arrowright,16.65259375,640,304.5,222,8,-1,20,35,25,35,FALSE
null,null,psychophysics,453,3544047,0.0-3.0-1.221,,key,null,16.65288333,640,304.5,,,,,,,,
746,arrowright,psychophysics,454,3544797,0.0-3.0-0.222,,key,arrowright,16.65813636,640,304.5,223,8,1,26,15,25,35,TRUE
null,null,psychophysics,455,3545813,0.0-3.0-1.222,,key,null,16.65393333,640,304.5,,,,,,,,
295.5,arrowright,psychophysics,456,3546113,0.0-3.0-0.223,,key,arrowright,16.66029412,640,304.5,224,9,-1,20,35,25,35,FALSE
null,null,psychophysics,457,3547128,0.0-3.0-1.223,,key,null,16.65315,640,304.5,,,,,,,,
97.10000002,arrowright,html-keyboard-response,458,3547227,0.0-3.0-2.223-0.223,"<div style=""color: white; text-align: center; vertical-align: top; display: inline-block; width: 800px; margin: auto""><p>You have completed 80% of the trials. You are on block 9 of 10. <br>Good job! Take a break if you need to.</p><p>Press any key to continue the experiment.</p></div>",,,,,,,,,,,,,
814,arrowleft,psychophysics,459,3549057,0.0-3.0-0.224,,key,arrowleft,16.65312766,640,304.5,225,9,1,25,15,25,35,FALSE
null,null,psychophysics,460,3550059,0.0-3.0-1.224,,key,null,16.65821667,640,304.5,,,,,,,,
679.7,arrowright,psychophysics,461,3550743,0.0-3.0-0.225,,key,arrowright,16.65865,640,304.5,226,9,-1,23,35,25,35,FALSE
null,null,psychophysics,462,3551756,0.0-3.0-1.225,,key,null,16.65159322,640,304.5,,,,,,,,
698.4,arrowright,psychophysics,463,3552460,0.0-3.0-0.226,,key,arrowright,16.6537381,640,304.5,227,9,-1,20,15,25,35,FALSE
null,null,psychophysics,464,3553471,0.0-3.0-1.226,,key,null,16.65272881,640,304.5,,,,,,,,
45.20000005,arrowright,psychophysics,465,3553523,0.0-3.0-0.227,,key,arrowright,16.58033333,640,304.5,228,9,-1,24,15,25,35,FALSE
null,null,psychophysics,466,3554537,0.0-3.0-1.227,,key,null,16.653,640,304.5,,,,,,,,
467.6,arrowright,psychophysics,467,3555011,0.0-3.0-0.228,,key,arrowright,16.65707143,640,304.5,229,9,-1,20,35,25,35,FALSE
null,null,psychophysics,468,3556019,0.0-3.0-1.228,,key,null,16.6549322,640,304.5,,,,,,,,
298.5,arrowright,psychophysics,469,3556325,0.0-3.0-0.229,,key,arrowright,16.65394444,640,304.5,230,9,-1,24,15,25,35,FALSE
null,null,psychophysics,470,3557334,0.0-3.0-1.229,,key,null,16.65328814,640,304.5,,,,,,,,
83.30000001,arrowright,psychophysics,471,3557425,0.0-3.0-0.230,,key,arrowright,16.6542,640,304.5,231,9,1,30,35,25,35,TRUE
null,null,psychophysics,472,3558433,0.0-3.0-1.230,,key,null,16.65061017,640,304.5,,,,,,,,
745.1,arrowright,psychophysics,473,3559186,0.0-3.0-0.231,,key,arrowright,16.65097778,640,304.5,232,9,1,24,35,25,35,TRUE
null,null,psychophysics,474,3560199,0.0-3.0-1.231,,key,null,16.65252542,640,304.5,,,,,,,,
160.7,arrowright,psychophysics,475,3560368,0.0-3.0-0.232,,key,arrowright,16.6323,640,304.5,233,9,-1,30,35,25,35,FALSE
null,null,psychophysics,476,3561381,0.0-3.0-1.232,,key,null,16.65322034,640,304.5,,,,,,,,
415.2,arrowright,psychophysics,477,3561804,0.0-3.0-0.233,,key,arrowright,16.64344,640,304.5,234,9,-1,30,35,25,35,FALSE
null,null,psychophysics,478,3562813,0.0-3.0-1.233,,key,null,16.65266102,640,304.5,,,,,,,,
547.5,arrowright,psychophysics,479,3563368,0.0-3.0-0.234,,key,arrowright,16.65169697,640,304.5,235,9,-1,24,15,25,35,FALSE
null,null,psychophysics,480,3564379,0.0-3.0-1.234,,key,null,16.65254237,640,304.5,,,,,,,,
374.4,arrowright,psychophysics,481,3564760,0.0-3.0-0.235,,key,arrowright,16.65404545,640,304.5,236,9,1,24,15,25,35,TRUE
null,null,psychophysics,482,3565763,0.0-3.0-1.235,,key,null,16.65738333,640,304.5,,,,,,,,
566.8,arrowright,psychophysics,483,3566335,0.0-3.0-0.236,,key,arrowright,16.65309091,640,304.5,237,9,-1,25,35,25,35,FALSE
null,null,psychophysics,484,3567343,0.0-3.0-1.236,,key,null,16.65247458,640,304.5,,,,,,,,
511.6,arrowright,psychophysics,485,3567862,0.0-3.0-0.237,,key,arrowright,16.64606452,640,304.5,238,9,-1,25,35,25,35,FALSE
null,null,psychophysics,486,3568875,0.0-3.0-1.237,,key,null,16.65288136,640,304.5,,,,,,,,
553.3,arrowright,psychophysics,487,3569435,0.0-3.0-0.238,,key,arrowright,16.65212121,640,304.5,239,9,1,25,35,25,35,TRUE
null,null,psychophysics,488,3570441,0.0-3.0-1.238,,key,null,16.65264407,640,304.5,,,,,,,,
1301.2,arrowleft,psychophysics,489,3571750,0.0-3.0-0.239,,key,arrowleft,16.65288462,640,304.5,240,9,-1,27,15,25,35,TRUE
null,null,psychophysics,490,3572757,0.0-3.0-1.239,,key,null,16.65341667,640,304.5,,,,,,,,
474.8,arrowright,psychophysics,491,3573237,0.0-3.0-0.240,,key,arrowright,16.64355556,640,304.5,241,9,1,26,35,25,35,TRUE
null,null,psychophysics,492,3574240,0.0-3.0-1.240,,key,null,16.65781667,640,304.5,,,,,,,,
645.9,arrowright,psychophysics,493,3574890,0.0-3.0-0.241,,key,arrowright,16.64931579,640,304.5,242,9,1,25,35,25,35,TRUE
null,null,psychophysics,494,3575903,0.0-3.0-1.241,,key,null,16.65286441,640,304.5,,,,,,,,
698.3,arrowleft,psychophysics,495,3576609,0.0-3.0-0.242,,key,arrowleft,16.65321429,640,304.5,243,9,-1,26,15,25,35,TRUE
null,null,psychophysics,496,3577617,0.0-3.0-1.242,,key,null,16.65433898,640,304.5,,,,,,,,
612.2,arrowleft,psychophysics,497,3578237,0.0-3.0-0.243,,key,arrowleft,16.65727027,640,304.5,244,9,-1,25,35,25,35,TRUE
null,null,psychophysics,498,3579250,0.0-3.0-1.243,,key,null,16.65276271,640,304.5,,,,,,,,
515.8,arrowleft,psychophysics,499,3579773,0.0-3.0-0.244,,key,arrowleft,16.65619355,640,304.5,245,9,1,23,15,25,35,FALSE
null,null,psychophysics,500,3580782,0.0-3.0-1.244,,key,null,16.65308475,640,304.5,,,,,,,,
287.2,arrowleft,psychophysics,501,3581075,0.0-3.0-0.245,,key,arrowleft,16.65241176,640,304.5,246,9,1,24,35,25,35,FALSE
null,null,psychophysics,502,3582080,0.0-3.0-1.245,,key,null,16.6500678,640,304.5,,,,,,,,
167.3,arrowright,psychophysics,503,3582255,0.0-3.0-0.246,,key,arrowright,16.6456,640,304.5,247,9,1,26,35,25,35,TRUE
null,null,psychophysics,504,3583262,0.0-3.0-1.246,,key,null,16.65269492,640,304.5,,,,,,,,
431.3,arrowleft,psychophysics,505,3583698,0.0-3.0-0.247,,key,arrowleft,16.656,640,304.5,248,9,1,24,35,25,35,FALSE
null,null,psychophysics,506,3584712,0.0-3.0-1.247,,key,null,16.65257627,640,304.5,,,,,,,,
65.10000002,arrowleft,psychophysics,507,3584784,0.0-3.0-0.248,,key,arrowleft,16.6565,640,304.5,249,9,-1,23,35,25,35,TRUE
null,null,psychophysics,508,3585794,0.0-3.0-1.248,,key,null,16.65298305,640,304.5,,,,,,,,
271.8,arrowleft,psychophysics,509,3586073,0.0-3.0-0.249,,key,arrowleft,16.653,640,304.5,250,9,1,30,15,25,35,FALSE
null,null,psychophysics,510,3587077,0.0-3.0-1.249,,key,null,16.6579322,640,304.5,,,,,,,,
670.3,arrowright,psychophysics,511,3587754,0.0-3.0-0.250,,key,arrowright,16.652075,640,304.5,251,9,1,25,15,25,35,TRUE
null,null,psychophysics,512,3588759,0.0-3.0-1.250,,key,null,16.65311864,640,304.5,,,,,,,,
464.7,arrowright,psychophysics,513,3589231,0.0-3.0-0.251,,key,arrowright,16.65435714,640,304.5,252,10,-1,23,35,25,35,FALSE
null,null,psychophysics,514,3590243,0.0-3.0-1.251,,key,null,16.65261667,640,304.5,,,,,,,,
1713.6, ,html-keyboard-response,515,3591959,0.0-3.0-2.251-0.251,"<div style=""color: white; text-align: center; vertical-align: top; display: inline-block; width: 800px; margin: auto""><p>You have completed 90% of the trials. You are on block 10 of 10. <br>Good job! Take a break if you need to.</p><p>Press any key to continue the experiment.</p></div>",,,,,,,,,,,,,
2231.7,arrowright,psychophysics,516,3595222,0.0-3.0-0.252,,key,arrowright,16.65163704,640,304.5,253,10,1,27,15,25,35,TRUE
null,null,psychophysics,517,3596236,0.0-3.0-1.252,,key,null,16.65315254,640,304.5,,,,,,,,
362.3,arrowright,psychophysics,518,3596604,0.0-3.0-0.253,,key,arrowright,16.66327273,640,304.5,254,10,1,20,15,25,35,TRUE
null,null,psychophysics,519,3597618,0.0-3.0-1.253,,key,null,16.65316949,640,304.5,,,,,,,,
1188.1,arrowleft,psychophysics,520,3598813,0.0-3.0-0.254,,key,arrowleft,16.65243662,640,304.5,255,10,-1,24,15,25,35,TRUE
null,null,psychophysics,521,3599818,0.0-3.0-1.254,,key,null,16.65748333,640,304.5,,,,,,,,
797.8,arrowleft,psychophysics,522,3600621,0.0-3.0-0.255,,key,arrowleft,16.65255319,640,304.5,256,10,1,23,35,25,35,FALSE
null,null,psychophysics,523,3601631,0.0-3.0-1.255,,key,null,16.65327119,640,304.5,,,,,,,,
510.8,arrowleft,psychophysics,524,3602150,0.0-3.0-0.256,,key,arrowleft,16.65180645,640,304.5,257,10,-1,23,35,25,35,TRUE
null,null,psychophysics,525,3603163,0.0-3.0-1.256,,key,null,16.65320339,640,304.5,,,,,,,,
564.7,arrowleft,psychophysics,526,3603735,0.0-3.0-0.257,,key,arrowleft,16.65273529,640,304.5,258,10,-1,30,15,25,35,TRUE
null,null,psychophysics,527,3604745,0.0-3.0-1.257,,key,null,16.65277966,640,304.5,,,,,,,,
613.1,arrowleft,psychophysics,528,3605365,0.0-3.0-0.258,,key,arrowleft,16.65259459,640,304.5,259,10,1,23,35,25,35,FALSE
null,null,psychophysics,529,3606377,0.0-3.0-1.258,,key,null,16.65861017,640,304.5,,,,,,,,
464.7,arrowleft,psychophysics,530,3606850,0.0-3.0-0.259,,key,arrowleft,16.65235714,640,304.5,260,10,1,20,35,25,35,FALSE
null,null,psychophysics,531,3607859,0.0-3.0-1.259,,key,null,16.65264407,640,304.5,,,,,,,,
577.9,arrowleft,psychophysics,532,3608446,0.0-3.0-0.260,,key,arrowleft,16.65211429,640,304.5,261,10,1,27,15,25,35,FALSE
null,null,psychophysics,533,3609458,0.0-3.0-1.260,,key,null,16.65323729,640,304.5,,,,,,,,
719.8,arrowleft,psychophysics,534,3610185,0.0-3.0-0.261,,key,arrowleft,16.65260465,640,304.5,262,10,1,30,15,25,35,FALSE
null,null,psychophysics,535,3611190,0.0-3.0-1.261,,key,null,16.6529322,640,304.5,,,,,,,,
835.9,arrowright,psychophysics,536,3612034,0.0-3.0-0.262,,key,arrowright,16.65278,640,304.5,263,10,-1,25,35,25,35,FALSE
null,null,psychophysics,537,3613038,0.0-3.0-1.262,,key,null,16.65276271,640,304.5,,,,,,,,
1039.7,arrowright,psychophysics,538,3614086,0.0-3.0-0.263,,key,arrowright,16.65267742,640,304.5,264,10,-1,27,35,25,35,FALSE
null,null,psychophysics,539,3615103,0.0-3.0-1.263,,key,null,16.65751667,640,304.5,,,,,,,,
444.4,arrowright,psychophysics,540,3615555,0.0-3.0-0.264,,key,arrowright,16.64944444,640,304.5,265,10,1,27,35,25,35,TRUE
null,null,psychophysics,541,3616569,0.0-3.0-1.264,,key,null,16.65269492,640,304.5,,,,,,,,
321,arrowright,psychophysics,542,3616898,0.0-3.0-0.265,,key,arrowright,16.65294737,640,304.5,266,10,-1,27,15,25,35,FALSE
null,null,psychophysics,543,3617901,0.0-3.0-1.265,,key,null,16.65528814,640,304.5,,,,,,,,
702.2,arrowright,psychophysics,544,3618611,0.0-3.0-0.266,,key,arrowright,16.65261905,640,304.5,267,10,-1,23,15,25,35,FALSE
null,null,psychophysics,545,3619615,0.0-3.0-1.266,,key,null,16.65389831,640,304.5,,,,,,,,
555.7,arrowright,psychophysics,546,3620179,0.0-3.0-0.267,,key,arrowright,16.66081818,640,304.5,268,10,-1,20,15,25,35,FALSE
null,null,psychophysics,547,3621181,0.0-3.0-1.267,,key,null,16.65313559,640,304.5,,,,,,,,
303.6,arrowright,psychophysics,548,3621491,0.0-3.0-0.268,,key,arrowright,16.67094444,640,304.5,269,10,-1,30,15,25,35,FALSE
null,null,psychophysics,549,3622496,0.0-3.0-1.268,,key,null,16.6529661,640,304.5,,,,,,,,
536.8,arrowright,psychophysics,550,3623043,0.0-3.0-0.269,,key,arrowright,16.65528125,640,304.5,270,10,-1,27,15,25,35,FALSE
null,null,psychophysics,551,3624046,0.0-3.0-1.269,,key,null,16.6520678,640,304.5,,,,,,,,
572,arrowleft,psychophysics,552,3624622,0.0-3.0-0.270,,key,arrowleft,16.66085294,640,304.5,271,10,-1,30,35,25,35,TRUE
null,null,psychophysics,553,3625628,0.0-3.0-1.270,,key,null,16.65276271,640,304.5,,,,,,,,
446,arrowleft,psychophysics,554,3626082,0.0-3.0-0.271,,key,arrowleft,16.65251852,640,304.5,272,10,-1,25,15,25,35,TRUE
null,null,psychophysics,555,3627093,0.0-3.0-1.271,,key,null,16.65298305,640,304.5,,,,,,,,
1139.9,arrowleft,psychophysics,556,3628241,0.0-3.0-0.272,,key,arrowleft,16.65289706,640,304.5,273,10,1,24,15,25,35,FALSE
null,null,psychophysics,557,3629258,0.0-3.0-1.272,,key,null,16.65773333,640,304.5,,,,,,,,
422.3,arrowleft,psychophysics,558,3629687,0.0-3.0-0.273,,key,arrowleft,16.65392,640,304.5,274,10,1,30,35,25,35,FALSE
null,null,psychophysics,559,3630691,0.0-3.0-1.273,,key,null,16.65711864,640,304.5,,,,,,,,
270.8,arrowleft,psychophysics,560,3630969,0.0-3.0-0.274,,key,arrowleft,16.6529375,640,304.5,275,10,-1,20,35,25,35,TRUE
null,null,psychophysics,561,3631973,0.0-3.0-1.274,,key,null,16.65505085,640,304.5,,,,,,,,
850.8,arrowright,psychophysics,562,3632831,0.0-3.0-0.275,,key,arrowright,16.65511765,640,304.5,276,10,-1,26,15,25,35,FALSE
null,null,psychophysics,563,3633838,0.0-3.0-1.275,,key,null,16.65315254,640,304.5,,,,,,,,
1297.4,arrowright,psychophysics,564,3635144,0.0-3.0-0.276,,key,arrowright,16.6524359,640,304.5,277,10,-1,30,15,25,35,FALSE
null,null,psychophysics,565,3636140,0.0-3.0-1.276,,key,null,16.65283051,640,304.5,,,,,,,,
556.8,arrowright,psychophysics,566,3636704,0.0-3.0-0.277,,key,arrowright,16.65054545,640,304.5,278,10,-1,20,15,25,35,FALSE
null,null,psychophysics,567,3637707,0.0-3.0-1.277,,key,null,16.6579,640,304.5,,,,,,,,
233.3,arrowright,psychophysics,568,3637945,0.0-3.0-0.278,,key,arrowright,16.64892308,640,304.5,279,10,-1,25,35,25,35,FALSE
null,null,psychophysics,569,3638956,0.0-3.0-1.278,,key,null,16.65715,640,304.5,,,,,,,,
757.2,arrowleft,psychophysics,570,3639719,0.0-3.0-0.279,,key,arrowleft,16.65336364,640,304.5,280,11,1,23,35,25,35,FALSE
null,null,psychophysics,571,3640736,0.0-3.0-1.279,,key,null,16.65663333,640,304.5,,,,,,,,
