"rt","response","trial_type","trial_index","time_elapsed","internal_node_id","stimulus","response_type","key_press","avg_frame_time","center_x","center_y","trial","block","test_pos","test_inner_radius","test_outer_radius","ref_inner_radius","ref_outer_radius","test_bigger"
"6605.000000000001","{""p_id"":""9172"",""age"":""19"",""handedness"":""right"",""sex"":""female"",""other_sex"":""""}","survey-html-form","0","6610","0.0-0.0","","","","","","","","","","","","","",""
"6951","\","html-keyboard-response","1","13563","0.0-1.0","<p style=""color: white"">Welcome to the Size Judgment Experiment. <br>There will be 10 blocks in this experiment. <br>There will be 28 trials in each block. <br>You will be given a chance to take a break between blocks. <br>Press any key to start the experiment.</p>","","","","","","","","","","","","",""
"3080.999999999998","enter","psychophysics","2","16651","0.0-2.0","","key","enter","16.668478260869566","499","487.5","","","","","","","",""
"866","arrowleft","psychophysics","3","17522","0.0-3.0-0.0","","key","arrowleft","16.666666666666668","499","487.5","1","1","-1","26","15","25","35","true"
"null","null","psychophysics","4","18525","0.0-3.0-1.0","","key","null","16.677966101694917","499","487.5","","","","","","","",""
"355.00000000000364","arrowleft","psychophysics","5","18886","0.0-3.0-0.1","","key","arrowleft","16.428571428571427","499","487.5","2","1","1","25","15","25","35","false"
"null","null","psychophysics","6","19889","0.0-3.0-1.1","","key","null","16.677966101694917","499","487.5","","","","","","","",""
"421.99999999999636","arrowright","psychophysics","7","20316","0.0-3.0-0.2","","key","arrowright","16.52","499","487.5","3","1","-1","26","15","25","35","false"
"null","null","psychophysics","8","21318","0.0-3.0-1.2","","key","null","16.661016949152543","499","487.5","","","","","","","",""
"373","arrowright","psychophysics","9","21695","0.0-3.0-0.3","","key","arrowright","16.636363636363637","499","487.5","4","1","-1","25","15","25","35","false"
"null","null","psychophysics","10","22697","0.0-3.0-1.3","","key","null","16.661016949152543","499","487.5","","","","","","","",""
"260","arrowright","psychophysics","11","22961","0.0-3.0-0.4","","key","arrowright","16.6","499","487.5","5","1","-1","27","15","25","35","false"
"null","null","psychophysics","12","23963","0.0-3.0-1.4","","key","null","16.64406779661017","499","487.5","","","","","","","",""
"471","arrowright","psychophysics","13","24436","0.0-3.0-0.5","","key","arrowright","16.666666666666668","499","487.5","6","1","-1","20","35","25","35","false"
"null","null","psychophysics","14","25438","0.0-3.0-1.5","","key","null","16.661016949152543","499","487.5","","","","","","","",""
"404","arrowleft","psychophysics","15","25847","0.0-3.0-0.6","","key","arrowleft","16.541666666666668","499","487.5","7","1","-1","30","15","25","35","true"
"null","null","psychophysics","16","26848","0.0-3.0-1.6","","key","null","16.677966101694917","499","487.5","","","","","","","",""
"474.00000000000364","arrowright","psychophysics","17","27327","0.0-3.0-0.7","","key","arrowright","16.678571428571427","499","487.5","8","1","1","30","35","25","35","true"
"null","null","psychophysics","18","28328","0.0-3.0-1.7","","key","null","16.661016949152543","499","487.5","","","","","","","",""
"370","arrowright","psychophysics","19","28701","0.0-3.0-0.8","","key","arrowright","16.666666666666668","499","487.5","9","1","-1","23","15","25","35","false"
"null","null","psychophysics","20","29703","0.0-3.0-1.8","","key","null","16.64406779661017","499","487.5","","","","","","","",""
"707","arrowleft","psychophysics","21","30414","0.0-3.0-0.9","","key","arrowleft","16.642857142857142","499","487.5","10","1","-1","27","15","25","35","true"
"null","null","psychophysics","22","31415","0.0-3.0-1.9","","key","null","16.677966101694917","499","487.5","","","","","","","",""
"399.99999999999636","arrowright","psychophysics","23","31820","0.0-3.0-0.10","","key","arrowright","16.652173913043477","499","487.5","11","1","-1","20","15","25","35","false"
"null","null","psychophysics","24","32824","0.0-3.0-1.10","","key","null","16.65","499","487.5","","","","","","","",""
"324","arrowleft","psychophysics","25","33152","0.0-3.0-0.11","","key","arrowleft","16.666666666666668","499","487.5","12","1","-1","25","35","25","35","true"
"null","null","psychophysics","26","34155","0.0-3.0-1.11","","key","null","16.661016949152543","499","487.5","","","","","","","",""
"447.0000000000073","arrowright","psychophysics","27","34604","0.0-3.0-0.12","","key","arrowright","16.5","499","487.5","13","1","-1","26","35","25","35","false"
"null","null","psychophysics","28","35608","0.0-3.0-1.12","","key","null","16.633333333333333","499","487.5","","","","","","","",""
"1149","arrowright","psychophysics","29","36759","0.0-3.0-0.13","","key","arrowright","16.66176470588235","499","487.5","14","1","1","20","15","25","35","true"
"null","null","psychophysics","30","37760","0.0-3.0-1.13","","key","null","16.71186440677966","499","487.5","","","","","","","",""
"431","arrowleft","psychophysics","31","38194","0.0-3.0-0.14","","key","arrowleft","16.64","499","487.5","15","1","-1","26","35","25","35","true"
"null","null","psychophysics","32","39196","0.0-3.0-1.14","","key","null","16.71186440677966","499","487.5","","","","","","","",""
"387","arrowright","psychophysics","33","39589","0.0-3.0-0.15","","key","arrowright","16.608695652173914","499","487.5","16","1","-1","20","35","25","35","false"
"null","null","psychophysics","34","40592","0.0-3.0-1.15","","key","null","16.661016949152543","499","487.5","","","","","","","",""
"625.9999999999927","arrowright","psychophysics","35","41221","0.0-3.0-0.16","","key","arrowright","16.62162162162162","499","487.5","17","1","-1","26","35","25","35","false"
"null","null","psychophysics","36","42222","0.0-3.0-1.16","","key","null","16.661016949152543","499","487.5","","","","","","","",""
"413","arrowleft","psychophysics","37","42638","0.0-3.0-0.17","","key","arrowleft","16.666666666666668","499","487.5","18","1","1","25","15","25","35","false"
"null","null","psychophysics","38","43640","0.0-3.0-1.17","","key","null","16.661016949152543","499","487.5","","","","","","","",""
"794","arrowleft","psychophysics","39","44438","0.0-3.0-0.18","","key","arrowleft","16.659574468085108","499","487.5","19","1","1","20","35","25","35","false"
"null","null","psychophysics","40","45439","0.0-3.0-1.18","","key","null","16.661016949152543","499","487.5","","","","","","","",""
"550","arrowleft","psychophysics","41","45992","0.0-3.0-0.19","","key","arrowleft","16.6875","499","487.5","20","1","1","24","35","25","35","false"
"null","null","psychophysics","42","46995","0.0-3.0-1.19","","key","null","16.677966101694917","499","487.5","","","","","","","",""
"575","arrowright","psychophysics","43","47575","0.0-3.0-0.20","","key","arrowright","16.676470588235293","499","487.5","21","1","1","30","35","25","35","true"
"null","null","psychophysics","44","48577","0.0-3.0-1.20","","key","null","16.677966101694917","499","487.5","","","","","","","",""
"643","arrowright","psychophysics","45","49224","0.0-3.0-0.21","","key","arrowright","16.63157894736842","499","487.5","22","1","-1","26","15","25","35","false"
"null","null","psychophysics","46","50226","0.0-3.0-1.21","","key","null","16.661016949152543","499","487.5","","","","","","","",""
"495.0000000000073","arrowleft","psychophysics","47","50725","0.0-3.0-0.22","","key","arrowleft","16.689655172413794","499","487.5","23","1","-1","30","35","25","35","true"
"null","null","psychophysics","48","51727","0.0-3.0-1.22","","key","null","16.64406779661017","499","487.5","","","","","","","",""
"586.9999999999927","arrowright","psychophysics","49","52319","0.0-3.0-0.23","","key","arrowright","16.685714285714287","499","487.5","24","1","1","27","15","25","35","true"
"null","null","psychophysics","50","53320","0.0-3.0-1.23","","key","null","16.661016949152543","499","487.5","","","","","","","",""
"578","arrowleft","psychophysics","51","53901","0.0-3.0-0.24","","key","arrowleft","16.647058823529413","499","487.5","25","1","-1","25","15","25","35","true"
"null","null","psychophysics","52","54903","0.0-3.0-1.24","","key","null","16.661016949152543","499","487.5","","","","","","","",""
"644","arrowleft","psychophysics","53","55551","0.0-3.0-0.25","","key","arrowleft","16.657894736842106","499","487.5","26","1","-1","24","15","25","35","true"
"null","null","psychophysics","54","56552","0.0-3.0-1.25","","key","null","16.661016949152543","499","487.5","","","","","","","",""
"573","arrowleft","psychophysics","55","57128","0.0-3.0-0.26","","key","arrowleft","16.666666666666668","499","487.5","27","1","-1","27","15","25","35","true"
"null","null","psychophysics","56","58129","0.0-3.0-1.26","","key","null","16.661016949152543","499","487.5","","","","","","","",""
"546","arrowleft","psychophysics","57","58677","0.0-3.0-0.27","","key","arrowleft","16.625","499","487.5","28","2","-1","27","35","25","35","true"
"null","null","psychophysics","58","59679","0.0-3.0-1.27","","key","null","16.677966101694917","499","487.5","","","","","","","",""
"759","arrowleft","html-keyboard-response","59","60441","0.0-3.0-2.27-0.27","<div style=""color: white; text-align: center; vertical-align: top; display: inline-block; width: 800px; margin: auto""><p>You have completed 10% of the trials. You are on block 2 of 10. <br>Good job! Take a break if you need to.</p><p>Press any key to continue the experiment.</p></div>","","","","","","","","","","","","",""
"584","arrowright","psychophysics","60","62026","0.0-3.0-0.28","","key","arrowright","16.696969696969695","499","487.5","29","2","1","23","15","25","35","true"
"null","null","psychophysics","61","63032","0.0-3.0-1.28","","key","null","16.633333333333333","499","487.5","","","","","","","",""
"475","arrowright","psychophysics","62","63510","0.0-3.0-0.29","","key","arrowright","16.62962962962963","499","487.5","30","2","-1","20","15","25","35","false"
"null","null","psychophysics","63","64515","0.0-3.0-1.29","","key","null","16.65","499","487.5","","","","","","","",""
"518.9999999999927","arrowleft","psychophysics","64","65037","0.0-3.0-0.30","","key","arrowleft","16.666666666666668","499","487.5","31","2","-1","27","15","25","35","true"
"null","null","psychophysics","65","66039","0.0-3.0-1.30","","key","null","16.64406779661017","499","487.5","","","","","","","",""
"574","arrowleft","psychophysics","66","66616","0.0-3.0-0.31","","key","arrowleft","16.647058823529413","499","487.5","32","2","-1","26","15","25","35","true"
"null","null","psychophysics","67","67618","0.0-3.0-1.31","","key","null","16.661016949152543","499","487.5","","","","","","","",""
"533.0000000000146","arrowright","psychophysics","68","68153","0.0-3.0-0.32","","key","arrowright","16.677419354838708","499","487.5","33","2","1","30","15","25","35","true"
"null","null","psychophysics","69","69156","0.0-3.0-1.32","","key","null","16.677966101694917","499","487.5","","","","","","","",""
"529","arrowleft","psychophysics","70","69688","0.0-3.0-0.33","","key","arrowleft","16.677419354838708","499","487.5","34","2","-1","23","15","25","35","true"
"null","null","psychophysics","71","70690","0.0-3.0-1.33","","key","null","16.677966101694917","499","487.5","","","","","","","",""
"552","arrowright","psychophysics","72","71256","0.0-3.0-0.34","","key","arrowright","16.575757575757574","499","487.5","35","2","1","26","15","25","35","true"
"null","null","psychophysics","73","72258","0.0-3.0-1.34","","key","null","16.677966101694917","499","487.5","","","","","","","",""
"623","arrowleft","psychophysics","74","72884","0.0-3.0-0.35","","key","arrowleft","16.594594594594593","499","487.5","36","2","1","23","35","25","35","false"
"null","null","psychophysics","75","73886","0.0-3.0-1.35","","key","null","16.677966101694917","499","487.5","","","","","","","",""
"551","arrowleft","psychophysics","76","74439","0.0-3.0-0.36","","key","arrowleft","16.65625","499","487.5","37","2","-1","24","15","25","35","true"
"null","null","psychophysics","77","75445","0.0-3.0-1.36","","key","null","16.666666666666668","499","487.5","","","","","","","",""
"531","arrowright","psychophysics","78","75978","0.0-3.0-0.37","","key","arrowright","16.677419354838708","499","487.5","38","2","-1","20","35","25","35","false"
"null","null","psychophysics","79","76980","0.0-3.0-1.37","","key","null","16.661016949152543","499","487.5","","","","","","","",""
"636","arrowleft","psychophysics","80","77618","0.0-3.0-0.38","","key","arrowleft","16.675675675675677","499","487.5","39","2","-1","25","15","25","35","true"
"null","null","psychophysics","81","78620","0.0-3.0-1.38","","key","null","16.64406779661017","499","487.5","","","","","","","",""
"1006","arrowright","psychophysics","82","79630","0.0-3.0-0.39","","key","arrowright","16.65","499","487.5","40","2","1","26","15","25","35","true"
"null","null","psychophysics","83","80632","0.0-3.0-1.39","","key","null","16.661016949152543","499","487.5","","","","","","","",""
"602.9999999999854","arrowright","psychophysics","84","81238","0.0-3.0-0.40","","key","arrowright","16.62857142857143","499","487.5","41","2","1","25","35","25","35","true"
"null","null","psychophysics","85","82242","0.0-3.0-1.40","","key","null","16.633333333333333","499","487.5","","","","","","","",""
"586","arrowright","psychophysics","86","82831","0.0-3.0-0.41","","key","arrowright","16.647058823529413","499","487.5","42","2","-1","20","35","25","35","false"
"null","null","psychophysics","87","83834","0.0-3.0-1.41","","key","null","16.677966101694917","499","487.5","","","","","","","",""
"736","arrowright","psychophysics","88","84575","0.0-3.0-0.42","","key","arrowright","16.613636363636363","499","487.5","43","2","-1","20","15","25","35","false"
"null","null","psychophysics","89","85577","0.0-3.0-1.42","","key","null","16.661016949152543","499","487.5","","","","","","","",""
"745","arrowright","psychophysics","90","86325","0.0-3.0-0.43","","key","arrowright","16.681818181818183","499","487.5","44","2","1","23","15","25","35","true"
"null","null","psychophysics","91","87326","0.0-3.0-1.43","","key","null","16.64406779661017","499","487.5","","","","","","","",""
"431","arrowleft","psychophysics","92","87760","0.0-3.0-0.44","","key","arrowleft","16.64","499","487.5","45","2","1","23","15","25","35","false"
"null","null","psychophysics","93","88763","0.0-3.0-1.44","","key","null","16.677966101694917","499","487.5","","","","","","","",""
"574","arrowright","psychophysics","94","89341","0.0-3.0-0.45","","key","arrowright","16.647058823529413","499","487.5","46","2","1","30","35","25","35","true"
"null","null","psychophysics","95","90343","0.0-3.0-1.45","","key","null","16.677966101694917","499","487.5","","","","","","","",""
"545.0000000000146","arrowleft","psychophysics","96","90890","0.0-3.0-0.46","","key","arrowleft","16.65625","499","487.5","47","2","-1","26","15","25","35","true"
"null","null","psychophysics","97","91892","0.0-3.0-1.46","","key","null","16.677966101694917","499","487.5","","","","","","","",""
"896.9999999999854","arrowright","psychophysics","98","92789","0.0-3.0-0.47","","key","arrowright","16.660377358490567","499","487.5","48","2","1","23","15","25","35","true"
"null","null","psychophysics","99","93791","0.0-3.0-1.47","","key","null","16.661016949152543","499","487.5","","","","","","","",""
"551","arrowleft","psychophysics","100","94345","0.0-3.0-0.48","","key","arrowleft","16.6875","499","487.5","49","2","-1","26","15","25","35","true"
"null","null","psychophysics","101","95347","0.0-3.0-1.48","","key","null","16.677966101694917","499","487.5","","","","","","","",""
"609","arrowright","psychophysics","102","95960","0.0-3.0-0.49","","key","arrowright","16.63888888888889","499","487.5","50","2","1","30","15","25","35","true"
"null","null","psychophysics","103","96962","0.0-3.0-1.49","","key","null","16.661016949152543","499","487.5","","","","","","","",""
"582","arrowleft","psychophysics","104","97547","0.0-3.0-0.50","","key","arrowleft","16.647058823529413","499","487.5","51","2","-1","23","15","25","35","true"
"null","null","psychophysics","105","98549","0.0-3.0-1.50","","key","null","16.661016949152543","499","487.5","","","","","","","",""
"462","arrowleft","psychophysics","106","99013","0.0-3.0-0.51","","key","arrowleft","16.59259259259259","499","487.5","52","2","-1","30","15","25","35","true"
"null","null","psychophysics","107","100015","0.0-3.0-1.51","","key","null","16.677966101694917","499","487.5","","","","","","","",""
"489.00000000001455","arrowleft","psychophysics","108","100509","0.0-3.0-0.52","","key","arrowleft","16.586206896551722","499","487.5","53","2","1","27","35","25","35","false"
"null","null","psychophysics","109","101511","0.0-3.0-1.52","","key","null","16.661016949152543","499","487.5","","","","","","","",""
"577","arrowright","psychophysics","110","102089","0.0-3.0-0.53","","key","arrowright","16.676470588235293","499","487.5","54","2","1","30","15","25","35","true"
"null","null","psychophysics","111","103091","0.0-3.0-1.53","","key","null","16.661016949152543","499","487.5","","","","","","","",""
"927","arrowleft","psychophysics","112","104019","0.0-3.0-0.54","","key","arrowleft","16.672727272727272","499","487.5","55","2","-1","25","15","25","35","true"
"null","null","psychophysics","113","105021","0.0-3.0-1.54","","key","null","16.677966101694917","499","487.5","","","","","","","",""
"677","arrowleft","psychophysics","114","105702","0.0-3.0-0.55","","key","arrowleft","16.675","499","487.5","56","3","1","23","35","25","35","false"
"null","null","psychophysics","115","106705","0.0-3.0-1.55","","key","null","16.661016949152543","499","487.5","","","","","","","",""
"535","arrowright","html-keyboard-response","116","107241","0.0-3.0-2.55-0.55","<div style=""color: white; text-align: center; vertical-align: top; display: inline-block; width: 800px; margin: auto""><p>You have completed 20% of the trials. You are on block 3 of 10. <br>Good job! Take a break if you need to.</p><p>Press any key to continue the experiment.</p></div>","","","","","","","","","","","","",""
"564.9999999999854","arrowleft","psychophysics","117","108811","0.0-3.0-0.56","","key","arrowleft","16.625","499","487.5","57","3","-1","30","35","25","35","true"
"null","null","psychophysics","118","109814","0.0-3.0-1.56","","key","null","16.661016949152543","499","487.5","","","","","","","",""
"637","arrowright","psychophysics","119","110455","0.0-3.0-0.57","","key","arrowright","16.5","499","487.5","58","3","1","24","15","25","35","true"
"null","null","psychophysics","120","111457","0.0-3.0-1.57","","key","null","16.677966101694917","499","487.5","","","","","","","",""
"599","arrowleft","psychophysics","121","112059","0.0-3.0-0.58","","key","arrowleft","16.65714285714286","499","487.5","59","3","-1","25","35","25","35","true"
"null","null","psychophysics","122","113061","0.0-3.0-1.58","","key","null","16.677966101694917","499","487.5","","","","","","","",""
"591","arrowright","psychophysics","123","113655","0.0-3.0-0.59","","key","arrowright","16.62857142857143","499","487.5","60","3","-1","23","35","25","35","false"
"null","null","psychophysics","124","114658","0.0-3.0-1.59","","key","null","16.677966101694917","499","487.5","","","","","","","",""
"641","arrowleft","psychophysics","125","115302","0.0-3.0-0.60","","key","arrowleft","16.68421052631579","499","487.5","61","3","1","20","35","25","35","false"
"null","null","psychophysics","126","116304","0.0-3.0-1.60","","key","null","16.661016949152543","499","487.5","","","","","","","",""
"526","arrowleft","psychophysics","127","116833","0.0-3.0-0.61","","key","arrowleft","16.64516129032258","499","487.5","62","3","-1","25","35","25","35","true"
"null","null","psychophysics","128","117834","0.0-3.0-1.61","","key","null","16.677966101694917","499","487.5","","","","","","","",""
"679","arrowleft","psychophysics","129","118515","0.0-3.0-0.62","","key","arrowleft","16.65","499","487.5","63","3","-1","27","15","25","35","true"
"null","null","psychophysics","130","119517","0.0-3.0-1.62","","key","null","16.677966101694917","499","487.5","","","","","","","",""
"423","arrowleft","psychophysics","131","119941","0.0-3.0-0.63","","key","arrowleft","16.666666666666668","499","487.5","64","3","1","25","15","25","35","false"
"null","null","psychophysics","132","120943","0.0-3.0-1.63","","key","null","16.677966101694917","499","487.5","","","","","","","",""
"680","arrowleft","psychophysics","133","121631","0.0-3.0-0.64","","key","arrowleft","16.609756097560975","499","487.5","65","3","-1","23","15","25","35","true"
"null","null","psychophysics","134","122633","0.0-3.0-1.64","","key","null","16.677966101694917","499","487.5","","","","","","","",""
"498","arrowleft","psychophysics","135","123131","0.0-3.0-0.65","","key","arrowleft","16.620689655172413","499","487.5","66","3","-1","30","35","25","35","true"
"null","null","psychophysics","136","124132","0.0-3.0-1.65","","key","null","16.677966101694917","499","487.5","","","","","","","",""
"549","arrowleft","psychophysics","137","124682","0.0-3.0-0.66","","key","arrowleft","16.65625","499","487.5","67","3","-1","26","15","25","35","true"
"null","null","psychophysics","138","125684","0.0-3.0-1.66","","key","null","16.677966101694917","499","487.5","","","","","","","",""
"763","arrowleft","psychophysics","139","126449","0.0-3.0-0.67","","key","arrowleft","16.666666666666668","499","487.5","68","3","-1","25","15","25","35","true"
"null","null","psychophysics","140","127451","0.0-3.0-1.67","","key","null","16.661016949152543","499","487.5","","","","","","","",""
"759.0000000000146","arrowleft","psychophysics","141","128213","0.0-3.0-0.68","","key","arrowleft","16.666666666666668","499","487.5","69","3","1","20","15","25","35","false"
"null","null","psychophysics","142","129215","0.0-3.0-1.68","","key","null","16.661016949152543","499","487.5","","","","","","","",""
"531.9999999999854","arrowright","psychophysics","143","129750","0.0-3.0-0.69","","key","arrowright","16.70967741935484","499","487.5","70","3","-1","26","35","25","35","false"
"null","null","psychophysics","144","130753","0.0-3.0-1.69","","key","null","16.677966101694917","499","487.5","","","","","","","",""
"496","arrowright","psychophysics","145","131255","0.0-3.0-0.70","","key","arrowright","16.620689655172413","499","487.5","71","3","1","27","15","25","35","true"
"null","null","psychophysics","146","132260","0.0-3.0-1.70","","key","null","16.666666666666668","499","487.5","","","","","","","",""
"565","arrowright","psychophysics","147","132826","0.0-3.0-0.71","","key","arrowright","16.636363636363637","499","487.5","72","3","-1","27","35","25","35","false"
"null","null","psychophysics","148","133827","0.0-3.0-1.71","","key","null","16.64406779661017","499","487.5","","","","","","","",""
"632","arrowleft","psychophysics","149","134462","0.0-3.0-0.72","","key","arrowleft","16.7027027027027","499","487.5","73","3","1","27","35","25","35","false"
"null","null","psychophysics","150","135464","0.0-3.0-1.72","","key","null","16.661016949152543","499","487.5","","","","","","","",""
"480.0000000000291","arrowright","psychophysics","151","135946","0.0-3.0-0.73","","key","arrowright","16.678571428571427","499","487.5","74","3","-1","20","35","25","35","false"
"null","null","psychophysics","152","136948","0.0-3.0-1.73","","key","null","16.661016949152543","499","487.5","","","","","","","",""
"603","arrowleft","psychophysics","153","137552","0.0-3.0-0.74","","key","arrowleft","16.685714285714287","499","487.5","75","3","1","20","35","25","35","false"
"null","null","psychophysics","154","138557","0.0-3.0-1.74","","key","null","16.666666666666668","499","487.5","","","","","","","",""
"817","arrowleft","psychophysics","155","139376","0.0-3.0-0.75","","key","arrowleft","16.666666666666668","499","487.5","76","3","-1","30","15","25","35","true"
"null","null","psychophysics","156","140378","0.0-3.0-1.75","","key","null","16.661016949152543","499","487.5","","","","","","","",""
"548","arrowleft","psychophysics","157","140929","0.0-3.0-0.76","","key","arrowleft","16.65625","499","487.5","77","3","-1","30","35","25","35","true"
"null","null","psychophysics","158","141931","0.0-3.0-1.76","","key","null","16.661016949152543","499","487.5","","","","","","","",""
"883","arrowright","psychophysics","159","142816","0.0-3.0-0.77","","key","arrowright","16.653846153846153","499","487.5","78","3","1","23","35","25","35","true"
"null","null","psychophysics","160","143817","0.0-3.0-1.77","","key","null","16.661016949152543","499","487.5","","","","","","","",""
"515","arrowright","psychophysics","161","144343","0.0-3.0-0.78","","key","arrowright","16.64516129032258","499","487.5","79","3","1","30","15","25","35","true"
"null","null","psychophysics","162","145345","0.0-3.0-1.78","","key","null","16.677966101694917","499","487.5","","","","","","","",""
"493","arrowleft","psychophysics","163","145842","0.0-3.0-0.79","","key","arrowleft","16.620689655172413","499","487.5","80","3","-1","26","15","25","35","true"
"null","null","psychophysics","164","146845","0.0-3.0-1.79","","key","null","16.677966101694917","499","487.5","","","","","","","",""
"466.0000000000291","arrowright","psychophysics","165","147315","0.0-3.0-0.80","","key","arrowright","16.666666666666668","499","487.5","81","3","-1","24","35","25","35","false"
"null","null","psychophysics","166","148317","0.0-3.0-1.80","","key","null","16.661016949152543","499","487.5","","","","","","","",""
"618.0000000000291","arrowleft","psychophysics","167","148939","0.0-3.0-0.81","","key","arrowleft","16.56756756756757","499","487.5","82","3","1","20","35","25","35","false"
"null","null","psychophysics","168","149942","0.0-3.0-1.81","","key","null","16.677966101694917","499","487.5","","","","","","","",""
"531.0000000000291","arrowright","psychophysics","169","150475","0.0-3.0-0.82","","key","arrowright","16.64516129032258","499","487.5","83","3","1","26","35","25","35","true"
"null","null","psychophysics","170","151477","0.0-3.0-1.82","","key","null","16.661016949152543","499","487.5","","","","","","","",""
"506","arrowleft","psychophysics","171","151986","0.0-3.0-0.83","","key","arrowleft","16.633333333333333","499","487.5","84","4","1","25","35","25","35","false"
"null","null","psychophysics","172","152989","0.0-3.0-1.83","","key","null","16.661016949152543","499","487.5","","","","","","","",""
"579","arrowup","html-keyboard-response","173","153569","0.0-3.0-2.83-0.83","<div style=""color: white; text-align: center; vertical-align: top; display: inline-block; width: 800px; margin: auto""><p>You have completed 30% of the trials. You are on block 4 of 10. <br>Good job! Take a break if you need to.</p><p>Press any key to continue the experiment.</p></div>","","","","","","","","","","","","",""
"581","arrowright","psychophysics","174","155153","0.0-3.0-0.84","","key","arrowright","16.647058823529413","499","487.5","85","4","1","30","15","25","35","true"
"null","null","psychophysics","175","156154","0.0-3.0-1.84","","key","null","16.661016949152543","499","487.5","","","","","","","",""
"475","arrowleft","psychophysics","176","156630","0.0-3.0-0.85","","key","arrowleft","16.666666666666668","499","487.5","86","4","-1","26","35","25","35","true"
"null","null","psychophysics","177","157635","0.0-3.0-1.85","","key","null","16.633333333333333","499","487.5","","","","","","","",""
"423","arrowright","psychophysics","178","158060","0.0-3.0-0.86","","key","arrowright","16.625","499","487.5","87","4","-1","20","15","25","35","false"
"null","null","psychophysics","179","159062","0.0-3.0-1.86","","key","null","16.661016949152543","499","487.5","","","","","","","",""
"536","arrowright","psychophysics","180","159601","0.0-3.0-0.87","","key","arrowright","16.625","499","487.5","88","4","1","27","35","25","35","true"
"null","null","psychophysics","181","160602","0.0-3.0-1.87","","key","null","16.677966101694917","499","487.5","","","","","","","",""
"801","arrowright","psychophysics","182","161406","0.0-3.0-0.88","","key","arrowright","16.638297872340427","499","487.5","89","4","1","24","35","25","35","true"
"null","null","psychophysics","183","162408","0.0-3.0-1.88","","key","null","16.661016949152543","499","487.5","","","","","","","",""
"428.0000000000291","arrowleft","psychophysics","184","162838","0.0-3.0-0.89","","key","arrowleft","16.64","499","487.5","90","4","1","20","15","25","35","false"
"null","null","psychophysics","185","163840","0.0-3.0-1.89","","key","null","16.661016949152543","499","487.5","","","","","","","",""
"401","arrowleft","psychophysics","186","164244","0.0-3.0-0.90","","key","arrowleft","16.695652173913043","499","487.5","91","4","1","20","15","25","35","false"
"null","null","psychophysics","187","165246","0.0-3.0-1.90","","key","null","16.661016949152543","499","487.5","","","","","","","",""
"554","arrowleft","psychophysics","188","165804","0.0-3.0-0.91","","key","arrowleft","16.636363636363637","499","487.5","92","4","1","25","35","25","35","false"
"null","null","psychophysics","189","166806","0.0-3.0-1.91","","key","null","16.677966101694917","499","487.5","","","","","","","",""
"539","arrowright","psychophysics","190","167352","0.0-3.0-0.92","","key","arrowright","16.625","499","487.5","93","4","1","26","35","25","35","true"
"null","null","psychophysics","191","168354","0.0-3.0-1.92","","key","null","16.694915254237287","499","487.5","","","","","","","",""
"386","arrowleft","psychophysics","192","168744","0.0-3.0-0.93","","key","arrowleft","16.636363636363637","499","487.5","94","4","-1","25","35","25","35","true"
"null","null","psychophysics","193","169749","0.0-3.0-1.93","","key","null","16.616666666666667","499","487.5","","","","","","","",""
"457","arrowright","psychophysics","194","170209","0.0-3.0-0.94","","key","arrowright","16.692307692307693","499","487.5","95","4","-1","24","15","25","35","false"
"null","null","psychophysics","195","171215","0.0-3.0-1.94","","key","null","16.65","499","487.5","","","","","","","",""
"500","arrowleft","psychophysics","196","171718","0.0-3.0-0.95","","key","arrowleft","16.655172413793103","499","487.5","96","4","-1","25","35","25","35","true"
"null","null","psychophysics","197","172719","0.0-3.0-1.95","","key","null","16.661016949152543","499","487.5","","","","","","","",""
"445","arrowright","psychophysics","198","173167","0.0-3.0-0.96","","key","arrowright","16.653846153846153","499","487.5","97","4","1","27","35","25","35","true"
"null","null","psychophysics","199","174169","0.0-3.0-1.96","","key","null","16.677966101694917","499","487.5","","","","","","","",""
"393","arrowleft","psychophysics","200","174565","0.0-3.0-0.97","","key","arrowleft","16.652173913043477","499","487.5","98","4","1","23","35","25","35","false"
"null","null","psychophysics","201","175566","0.0-3.0-1.97","","key","null","16.677966101694917","499","487.5","","","","","","","",""
"454.9999999999709","arrowleft","psychophysics","202","176024","0.0-3.0-0.98","","key","arrowleft","16.692307692307693","499","487.5","99","4","-1","23","35","25","35","true"
"null","null","psychophysics","203","177029","0.0-3.0-1.98","","key","null","16.633333333333333","499","487.5","","","","","","","",""
"726","arrowright","psychophysics","204","177757","0.0-3.0-0.99","","key","arrowright","16.69047619047619","499","487.5","100","4","1","23","15","25","35","true"
"null","null","psychophysics","205","178761","0.0-3.0-1.99","","key","null","16.65","499","487.5","","","","","","","",""
"698.0000000000291","arrowleft","psychophysics","206","179462","0.0-3.0-0.100","","key","arrowleft","16.682926829268293","499","487.5","101","4","-1","23","15","25","35","true"
"null","null","psychophysics","207","180463","0.0-3.0-1.100","","key","null","16.677966101694917","499","487.5","","","","","","","",""
"587","arrowleft","psychophysics","208","181053","0.0-3.0-0.101","","key","arrowleft","16.647058823529413","499","487.5","102","4","-1","26","15","25","35","true"
"null","null","psychophysics","209","182055","0.0-3.0-1.101","","key","null","16.677966101694917","499","487.5","","","","","","","",""
"641","arrowright","psychophysics","210","182699","0.0-3.0-0.102","","key","arrowright","16.657894736842106","499","487.5","103","4","-1","25","35","25","35","false"
"null","null","psychophysics","211","183701","0.0-3.0-1.102","","key","null","16.661016949152543","499","487.5","","","","","","","",""
"782","arrowright","psychophysics","212","184485","0.0-3.0-0.103","","key","arrowright","16.67391304347826","499","487.5","104","4","1","25","15","25","35","true"
"null","null","psychophysics","213","185486","0.0-3.0-1.103","","key","null","16.64406779661017","499","487.5","","","","","","","",""
"1140.000000000029","arrowright","psychophysics","214","186628","0.0-3.0-0.104","","key","arrowright","16.66176470588235","499","487.5","105","4","1","30","35","25","35","true"
"null","null","psychophysics","215","187631","0.0-3.0-1.104","","key","null","16.677966101694917","499","487.5","","","","","","","",""
"1470","arrowright","psychophysics","216","189105","0.0-3.0-0.105","","key","arrowright","16.666666666666668","499","487.5","106","4","-1","20","15","25","35","false"
"null","null","psychophysics","217","190108","0.0-3.0-1.105","","key","null","16.633333333333333","499","487.5","","","","","","","",""
"768","arrowright","psychophysics","218","190878","0.0-3.0-0.106","","key","arrowright","16.68888888888889","499","487.5","107","4","-1","24","35","25","35","false"
"null","null","psychophysics","219","191881","0.0-3.0-1.106","","key","null","16.661016949152543","499","487.5","","","","","","","",""
"543.9999999999709","arrowleft","psychophysics","220","192429","0.0-3.0-0.107","","key","arrowleft","16.65625","499","487.5","108","4","-1","27","15","25","35","true"
"null","null","psychophysics","221","193430","0.0-3.0-1.107","","key","null","16.661016949152543","499","487.5","","","","","","","",""
"676","arrowleft","psychophysics","222","194109","0.0-3.0-0.108","","key","arrowleft","16.65","499","487.5","109","4","-1","23","35","25","35","true"
"null","null","psychophysics","223","195111","0.0-3.0-1.108","","key","null","16.64406779661017","499","487.5","","","","","","","",""
"667","arrowleft","psychophysics","224","195780","0.0-3.0-0.109","","key","arrowleft","16.666666666666668","499","487.5","110","4","1","27","35","25","35","false"
"null","null","psychophysics","225","196783","0.0-3.0-1.109","","key","null","16.677966101694917","499","487.5","","","","","","","",""
"613","arrowleft","psychophysics","226","197400","0.0-3.0-0.110","","key","arrowleft","16.61111111111111","499","487.5","111","4","-1","23","15","25","35","true"
"null","null","psychophysics","227","198402","0.0-3.0-1.110","","key","null","16.661016949152543","499","487.5","","","","","","","",""
"1301","arrowright","psychophysics","228","199705","0.0-3.0-0.111","","key","arrowright","16.628205128205128","499","487.5","112","5","1","23","15","25","35","true"
"null","null","psychophysics","229","200707","0.0-3.0-1.111","","key","null","16.677966101694917","499","487.5","","","","","","","",""
"568","arrowright","html-keyboard-response","230","201276","0.0-3.0-2.111-0.111","<div style=""color: white; text-align: center; vertical-align: top; display: inline-block; width: 800px; margin: auto""><p>You have completed 40% of the trials. You are on block 5 of 10. <br>Good job! Take a break if you need to.</p><p>Press any key to continue the experiment.</p></div>","","","","","","","","","","","","",""
"677","arrowright","psychophysics","231","202955","0.0-3.0-0.112","","key","arrowright","16.7","499","487.5","113","5","1","24","35","25","35","true"
"null","null","psychophysics","232","203958","0.0-3.0-1.112","","key","null","16.661016949152543","499","487.5","","","","","","","",""
"326.9999999999709","arrowright","psychophysics","233","204288","0.0-3.0-0.113","","key","arrowright","16.68421052631579","499","487.5","114","5","-1","27","35","25","35","false"
"null","null","psychophysics","234","205289","0.0-3.0-1.113","","key","null","16.677966101694917","499","487.5","","","","","","","",""
"715","arrowleft","psychophysics","235","206008","0.0-3.0-0.114","","key","arrowleft","16.666666666666668","499","487.5","115","5","1","20","15","25","35","false"
"null","null","psychophysics","236","207011","0.0-3.0-1.114","","key","null","16.661016949152543","499","487.5","","","","","","","",""
"674.9999999999709","arrowright","psychophysics","237","207689","0.0-3.0-0.115","","key","arrowright","16.65","499","487.5","116","5","-1","26","35","25","35","false"
"null","null","psychophysics","238","208692","0.0-3.0-1.115","","key","null","16.661016949152543","499","487.5","","","","","","","",""
"363","arrowleft","psychophysics","239","209060","0.0-3.0-0.116","","key","arrowleft","16.666666666666668","499","487.5","117","5","-1","25","35","25","35","true"
"null","null","psychophysics","240","210063","0.0-3.0-1.116","","key","null","16.64406779661017","499","487.5","","","","","","","",""
"552","arrowright","psychophysics","241","210617","0.0-3.0-0.117","","key","arrowright","16.636363636363637","499","487.5","118","5","1","24","15","25","35","true"
"null","null","psychophysics","242","211618","0.0-3.0-1.117","","key","null","16.661016949152543","499","487.5","","","","","","","",""
"417","arrowleft","psychophysics","243","212037","0.0-3.0-0.118","","key","arrowleft","16.666666666666668","499","487.5","119","5","1","23","15","25","35","false"
"null","null","psychophysics","244","213038","0.0-3.0-1.118","","key","null","16.661016949152543","499","487.5","","","","","","","",""
"397","arrowleft","psychophysics","245","213437","0.0-3.0-0.119","","key","arrowleft","16.608695652173914","499","487.5","120","5","-1","30","35","25","35","true"
"null","null","psychophysics","246","214438","0.0-3.0-1.119","","key","null","16.64406779661017","499","487.5","","","","","","","",""
"388","arrowleft","psychophysics","247","214828","0.0-3.0-0.120","","key","arrowleft","16.636363636363637","499","487.5","121","5","1","23","15","25","35","false"
"null","null","psychophysics","248","215830","0.0-3.0-1.120","","key","null","16.661016949152543","499","487.5","","","","","","","",""
"503.0000000000291","arrowright","psychophysics","249","216335","0.0-3.0-0.121","","key","arrowright","16.566666666666666","499","487.5","122","5","1","24","35","25","35","true"
"null","null","psychophysics","250","217337","0.0-3.0-1.121","","key","null","16.661016949152543","499","487.5","","","","","","","",""
"548","arrowleft","psychophysics","251","217887","0.0-3.0-0.122","","key","arrowleft","16.6875","499","487.5","123","5","-1","30","15","25","35","true"
"null","null","psychophysics","252","218889","0.0-3.0-1.122","","key","null","16.677966101694917","499","487.5","","","","","","","",""
"941","arrowleft","psychophysics","253","219833","0.0-3.0-0.123","","key","arrowleft","16.642857142857142","499","487.5","124","5","-1","25","15","25","35","true"
"null","null","psychophysics","254","220834","0.0-3.0-1.123","","key","null","16.677966101694917","499","487.5","","","","","","","",""
"647.0000000000291","arrowright","psychophysics","255","221484","0.0-3.0-0.124","","key","arrowright","16.68421052631579","499","487.5","125","5","1","27","15","25","35","true"
"null","null","psychophysics","256","222486","0.0-3.0-1.124","","key","null","16.661016949152543","499","487.5","","","","","","","",""
"430","arrowleft","psychophysics","257","222919","0.0-3.0-0.125","","key","arrowleft","16.72","499","487.5","126","5","-1","30","15","25","35","true"
"null","null","psychophysics","258","223922","0.0-3.0-1.125","","key","null","16.64406779661017","499","487.5","","","","","","","",""
"530","arrowleft","psychophysics","259","224453","0.0-3.0-0.126","","key","arrowleft","16.677419354838708","499","487.5","127","5","-1","23","35","25","35","true"
"null","null","psychophysics","260","225455","0.0-3.0-1.126","","key","null","16.677966101694917","499","487.5","","","","","","","",""
"564","arrowright","psychophysics","261","226023","0.0-3.0-0.127","","key","arrowright","16.696969696969695","499","487.5","128","5","-1","26","35","25","35","false"
"null","null","psychophysics","262","227026","0.0-3.0-1.127","","key","null","16.677966101694917","499","487.5","","","","","","","",""
"497.0000000000291","arrowright","psychophysics","263","227526","0.0-3.0-0.128","","key","arrowright","16.586206896551722","499","487.5","129","5","1","27","35","25","35","true"
"null","null","psychophysics","264","228530","0.0-3.0-1.128","","key","null","16.633333333333333","499","487.5","","","","","","","",""
"420.9999999999709","arrowright","psychophysics","265","228952","0.0-3.0-0.129","","key","arrowright","16.666666666666668","499","487.5","130","5","1","23","35","25","35","true"
"null","null","psychophysics","266","229956","0.0-3.0-1.129","","key","null","16.677966101694917","499","487.5","","","","","","","",""
"522.0000000000291","arrowright","psychophysics","267","230484","0.0-3.0-0.130","","key","arrowright","16.548387096774192","499","487.5","131","5","1","24","35","25","35","true"
"null","null","psychophysics","268","231488","0.0-3.0-1.130","","key","null","16.677966101694917","499","487.5","","","","","","","",""
"624","arrowleft","psychophysics","269","232116","0.0-3.0-0.131","","key","arrowleft","16.62162162162162","499","487.5","132","5","-1","25","15","25","35","true"
"null","null","psychophysics","270","233118","0.0-3.0-1.131","","key","null","16.677966101694917","499","487.5","","","","","","","",""
"275.9999999999709","arrowright","psychophysics","271","233396","0.0-3.0-0.132","","key","arrowright","16.625","499","487.5","133","5","1","25","35","25","35","true"
"null","null","psychophysics","272","234399","0.0-3.0-1.132","","key","null","16.677966101694917","499","487.5","","","","","","","",""
"449","arrowleft","psychophysics","273","234851","0.0-3.0-0.133","","key","arrowleft","16.73076923076923","499","487.5","134","5","1","26","35","25","35","false"
"null","null","psychophysics","274","235853","0.0-3.0-1.133","","key","null","16.661016949152543","499","487.5","","","","","","","",""
"710","arrowright","psychophysics","275","236566","0.0-3.0-0.134","","key","arrowright","16.666666666666668","499","487.5","135","5","-1","20","15","25","35","false"
"null","null","psychophysics","276","237568","0.0-3.0-1.134","","key","null","16.677966101694917","499","487.5","","","","","","","",""
"405","arrowleft","psychophysics","277","237977","0.0-3.0-0.135","","key","arrowleft","16.666666666666668","499","487.5","136","5","-1","23","35","25","35","true"
"null","null","psychophysics","278","238978","0.0-3.0-1.135","","key","null","16.677966101694917","499","487.5","","","","","","","",""
"521.0000000000291","arrowright","psychophysics","279","239501","0.0-3.0-0.136","","key","arrowright","16.633333333333333","499","487.5","137","5","1","24","35","25","35","true"
"null","null","psychophysics","280","240502","0.0-3.0-1.136","","key","null","16.677966101694917","499","487.5","","","","","","","",""
"444","arrowleft","psychophysics","281","240950","0.0-3.0-0.137","","key","arrowleft","16.615384615384617","499","487.5","138","5","1","20","15","25","35","false"
"null","null","psychophysics","282","241952","0.0-3.0-1.137","","key","null","16.661016949152543","499","487.5","","","","","","","",""
"678.0000000000291","arrowleft","psychophysics","283","242632","0.0-3.0-0.138","","key","arrowleft","16.675","499","487.5","139","5","-1","23","35","25","35","true"
"null","null","psychophysics","284","243635","0.0-3.0-1.138","","key","null","16.661016949152543","499","487.5","","","","","","","",""
"573.9999999999709","arrowright","psychophysics","285","244212","0.0-3.0-0.139","","key","arrowright","16.676470588235293","499","487.5","140","6","1","24","15","25","35","true"
"null","null","psychophysics","286","245214","0.0-3.0-1.139","","key","null","16.694915254237287","499","487.5","","","","","","","",""
"1312","arrowright","html-keyboard-response","287","246528","0.0-3.0-2.139-0.139","<div style=""color: white; text-align: center; vertical-align: top; display: inline-block; width: 800px; margin: auto""><p>You have completed 50% of the trials. You are on block 6 of 10. <br>Good job! Take a break if you need to.</p><p>Press any key to continue the experiment.</p></div>","","","","","","","","","","","","",""
"794.9999999999709","arrowright","psychophysics","288","248325","0.0-3.0-0.140","","key","arrowright","16.659574468085108","499","487.5","141","6","1","30","35","25","35","true"
"null","null","psychophysics","289","249327","0.0-3.0-1.140","","key","null","16.64406779661017","499","487.5","","","","","","","",""
"665.0000000000291","arrowright","psychophysics","290","249994","0.0-3.0-0.141","","key","arrowright","16.641025641025642","499","487.5","142","6","1","26","15","25","35","true"
"null","null","psychophysics","291","250996","0.0-3.0-1.141","","key","null","16.677966101694917","499","487.5","","","","","","","",""
"491","arrowright","psychophysics","292","251489","0.0-3.0-0.142","","key","arrowright","16.655172413793103","499","487.5","143","6","1","30","15","25","35","true"
"null","null","psychophysics","293","252492","0.0-3.0-1.142","","key","null","16.661016949152543","499","487.5","","","","","","","",""
"771.9999999999709","arrowleft","psychophysics","294","253267","0.0-3.0-0.143","","key","arrowleft","16.666666666666668","499","487.5","144","6","1","23","15","25","35","false"
"null","null","psychophysics","295","254272","0.0-3.0-1.143","","key","null","16.65","499","487.5","","","","","","","",""
"683","arrowleft","psychophysics","296","254960","0.0-3.0-0.144","","key","arrowleft","16.65","499","487.5","145","6","1","20","35","25","35","false"
"null","null","psychophysics","297","255962","0.0-3.0-1.144","","key","null","16.64406779661017","499","487.5","","","","","","","",""
"531","arrowright","psychophysics","298","256495","0.0-3.0-0.145","","key","arrowright","16.70967741935484","499","487.5","146","6","1","30","35","25","35","true"
"null","null","psychophysics","299","257497","0.0-3.0-1.145","","key","null","16.677966101694917","499","487.5","","","","","","","",""
"559.0000000000291","arrowleft","psychophysics","300","258058","0.0-3.0-0.146","","key","arrowleft","16.666666666666668","499","487.5","147","6","-1","25","15","25","35","true"
"null","null","psychophysics","301","259060","0.0-3.0-1.146","","key","null","16.677966101694917","499","487.5","","","","","","","",""
"524.9999999999709","arrowleft","psychophysics","302","259588","0.0-3.0-0.147","","key","arrowleft","16.677419354838708","499","487.5","148","6","-1","23","35","25","35","true"
"null","null","psychophysics","303","260592","0.0-3.0-1.147","","key","null","16.661016949152543","499","487.5","","","","","","","",""
"562","arrowright","psychophysics","304","261157","0.0-3.0-0.148","","key","arrowright","16.696969696969695","499","487.5","149","6","1","23","35","25","35","true"
"null","null","psychophysics","305","262160","0.0-3.0-1.148","","key","null","16.661016949152543","499","487.5","","","","","","","",""
"476","arrowright","psychophysics","306","262639","0.0-3.0-0.149","","key","arrowright","16.642857142857142","499","487.5","150","6","-1","24","35","25","35","false"
"null","null","psychophysics","307","263641","0.0-3.0-1.149","","key","null","16.661016949152543","499","487.5","","","","","","","",""
"687","arrowleft","psychophysics","308","264329","0.0-3.0-0.150","","key","arrowleft","16.65","499","487.5","151","6","-1","23","15","25","35","true"
"null","null","psychophysics","309","265330","0.0-3.0-1.150","","key","null","16.64406779661017","499","487.5","","","","","","","",""
"540","arrowright","psychophysics","310","265877","0.0-3.0-0.151","","key","arrowright","16.625","499","487.5","152","6","1","30","35","25","35","true"
"null","null","psychophysics","311","266878","0.0-3.0-1.151","","key","null","16.677966101694917","499","487.5","","","","","","","",""
"607","arrowleft","psychophysics","312","267487","0.0-3.0-0.152","","key","arrowleft","16.666666666666668","499","487.5","153","6","-1","27","35","25","35","true"
"null","null","psychophysics","313","268488","0.0-3.0-1.152","","key","null","16.677966101694917","499","487.5","","","","","","","",""
"711","arrowright","psychophysics","314","269201","0.0-3.0-0.153","","key","arrowright","16.666666666666668","499","487.5","154","6","-1","20","15","25","35","false"
"null","null","psychophysics","315","270203","0.0-3.0-1.153","","key","null","16.661016949152543","499","487.5","","","","","","","",""
"555","arrowleft","psychophysics","316","270763","0.0-3.0-0.154","","key","arrowleft","16.6875","499","487.5","155","6","1","26","35","25","35","false"
"null","null","psychophysics","317","271765","0.0-3.0-1.154","","key","null","16.633333333333333","499","487.5","","","","","","","",""
"723","arrowleft","psychophysics","318","272491","0.0-3.0-0.155","","key","arrowleft","16.666666666666668","499","487.5","156","6","-1","20","15","25","35","true"
"null","null","psychophysics","319","273493","0.0-3.0-1.155","","key","null","16.677966101694917","499","487.5","","","","","","","",""
"455","arrowright","psychophysics","320","273953","0.0-3.0-0.156","","key","arrowright","16.59259259259259","499","487.5","157","6","1","30","15","25","35","true"
"null","null","psychophysics","321","274955","0.0-3.0-1.156","","key","null","16.661016949152543","499","487.5","","","","","","","",""
"567","arrowleft","psychophysics","322","275525","0.0-3.0-0.157","","key","arrowleft","16.636363636363637","499","487.5","158","6","-1","26","35","25","35","true"
"null","null","psychophysics","323","276528","0.0-3.0-1.157","","key","null","16.661016949152543","499","487.5","","","","","","","",""
"565","arrowleft","psychophysics","324","277103","0.0-3.0-0.158","","key","arrowleft","16.58823529411765","499","487.5","159","6","-1","25","15","25","35","true"
"null","null","psychophysics","325","278106","0.0-3.0-1.158","","key","null","16.661016949152543","499","487.5","","","","","","","",""
"560.9999999999418","arrowleft","psychophysics","326","278670","0.0-3.0-0.159","","key","arrowleft","16.696969696969695","499","487.5","160","6","-1","30","15","25","35","true"
"null","null","psychophysics","327","279673","0.0-3.0-1.159","","key","null","16.677966101694917","499","487.5","","","","","","","",""
"546.0000000000582","arrowleft","psychophysics","328","280222","0.0-3.0-0.160","","key","arrowleft","16.6875","499","487.5","161","6","-1","27","15","25","35","true"
"null","null","psychophysics","329","281225","0.0-3.0-1.160","","key","null","16.677966101694917","499","487.5","","","","","","","",""
"530","arrowright","psychophysics","330","281766","0.0-3.0-0.161","","key","arrowright","16.59375","499","487.5","162","6","1","30","15","25","35","true"
"null","null","psychophysics","331","282769","0.0-3.0-1.161","","key","null","16.661016949152543","499","487.5","","","","","","","",""
"552.0000000000582","arrowleft","psychophysics","332","283323","0.0-3.0-0.162","","key","arrowleft","16.6875","499","487.5","163","6","1","24","35","25","35","false"
"null","null","psychophysics","333","284326","0.0-3.0-1.162","","key","null","16.677966101694917","499","487.5","","","","","","","",""
"898.0000000000582","arrowright","psychophysics","334","285234","0.0-3.0-0.163","","key","arrowright","16.59259259259259","499","487.5","164","6","-1","24","35","25","35","false"
"null","null","psychophysics","335","286237","0.0-3.0-1.163","","key","null","16.677966101694917","499","487.5","","","","","","","",""
"532","arrowright","psychophysics","336","286772","0.0-3.0-0.164","","key","arrowright","16.677419354838708","499","487.5","165","6","1","26","35","25","35","true"
"null","null","psychophysics","337","287774","0.0-3.0-1.164","","key","null","16.677966101694917","499","487.5","","","","","","","",""
"397","arrowleft","psychophysics","338","288182","0.0-3.0-0.165","","key","arrowleft","16.583333333333332","499","487.5","166","6","1","27","15","25","35","false"
"null","null","psychophysics","339","289184","0.0-3.0-1.165","","key","null","16.661016949152543","499","487.5","","","","","","","",""
"526","arrowright","psychophysics","340","289714","0.0-3.0-0.166","","key","arrowright","16.64516129032258","499","487.5","167","6","1","30","35","25","35","true"
"null","null","psychophysics","341","290715","0.0-3.0-1.166","","key","null","16.661016949152543","499","487.5","","","","","","","",""
"559","arrowright","psychophysics","342","291277","0.0-3.0-0.167","","key","arrowright","16.666666666666668","499","487.5","168","7","1","26","15","25","35","true"
"null","null","psychophysics","343","292279","0.0-3.0-1.167","","key","null","16.661016949152543","499","487.5","","","","","","","",""
"586.9999999999418","arrowup","html-keyboard-response","344","292868","0.0-3.0-2.167-0.167","<div style=""color: white; text-align: center; vertical-align: top; display: inline-block; width: 800px; margin: auto""><p>You have completed 60% of the trials. You are on block 7 of 10. <br>Good job! Take a break if you need to.</p><p>Press any key to continue the experiment.</p></div>","","","","","","","","","","","","",""
"554","arrowright","psychophysics","345","294427","0.0-3.0-0.168","","key","arrowright","16.65625","499","487.5","169","7","1","26","15","25","35","true"
"null","null","psychophysics","346","295430","0.0-3.0-1.168","","key","null","16.661016949152543","499","487.5","","","","","","","",""
"759","arrowleft","psychophysics","347","296193","0.0-3.0-0.169","","key","arrowleft","16.644444444444446","499","487.5","170","7","-1","23","35","25","35","true"
"null","null","psychophysics","348","297196","0.0-3.0-1.169","","key","null","16.677966101694917","499","487.5","","","","","","","",""
"546.0000000000582","arrowright","psychophysics","349","297746","0.0-3.0-0.170","","key","arrowright","16.6875","499","487.5","171","7","1","25","15","25","35","true"
"null","null","psychophysics","350","298748","0.0-3.0-1.170","","key","null","16.677966101694917","499","487.5","","","","","","","",""
"662","arrowright","psychophysics","351","299415","0.0-3.0-0.171","","key","arrowright","16.692307692307693","499","487.5","172","7","-1","27","35","25","35","false"
"null","null","psychophysics","352","300417","0.0-3.0-1.171","","key","null","16.677966101694917","499","487.5","","","","","","","",""
"507","arrowright","psychophysics","353","300927","0.0-3.0-0.172","","key","arrowright","16.633333333333333","499","487.5","173","7","-1","27","35","25","35","false"
"null","null","psychophysics","354","301929","0.0-3.0-1.172","","key","null","16.677966101694917","499","487.5","","","","","","","",""
"611.0000000000582","arrowright","psychophysics","355","302543","0.0-3.0-0.173","","key","arrowright","16.666666666666668","499","487.5","174","7","-1","24","35","25","35","false"
"null","null","psychophysics","356","303545","0.0-3.0-1.173","","key","null","16.661016949152543","499","487.5","","","","","","","",""
"525","arrowleft","psychophysics","357","304073","0.0-3.0-0.174","","key","arrowleft","16.64516129032258","499","487.5","175","7","-1","30","15","25","35","true"
"null","null","psychophysics","358","305074","0.0-3.0-1.174","","key","null","16.64406779661017","499","487.5","","","","","","","",""
"496.0000000000582","arrowright","psychophysics","359","305572","0.0-3.0-0.175","","key","arrowright","16.655172413793103","499","487.5","176","7","-1","20","35","25","35","false"
"null","null","psychophysics","360","306574","0.0-3.0-1.175","","key","null","16.661016949152543","499","487.5","","","","","","","",""
"714","arrowright","psychophysics","361","307289","0.0-3.0-0.176","","key","arrowright","16.666666666666668","499","487.5","177","7","1","24","15","25","35","true"
"null","null","psychophysics","362","308291","0.0-3.0-1.176","","key","null","16.661016949152543","499","487.5","","","","","","","",""
"815","arrowleft","psychophysics","363","309108","0.0-3.0-0.177","","key","arrowleft","16.666666666666668","499","487.5","178","7","1","24","35","25","35","false"
"null","null","psychophysics","364","310111","0.0-3.0-1.177","","key","null","16.661016949152543","499","487.5","","","","","","","",""
"547","arrowright","psychophysics","365","310660","0.0-3.0-0.178","","key","arrowright","16.65625","499","487.5","179","7","1","27","35","25","35","true"
"null","null","psychophysics","366","311663","0.0-3.0-1.178","","key","null","16.677966101694917","499","487.5","","","","","","","",""
"809","arrowleft","psychophysics","367","312476","0.0-3.0-0.179","","key","arrowleft","16.645833333333332","499","487.5","180","7","1","23","35","25","35","false"
"null","null","psychophysics","368","313478","0.0-3.0-1.179","","key","null","16.694915254237287","499","487.5","","","","","","","",""
"595","arrowleft","psychophysics","369","314076","0.0-3.0-0.180","","key","arrowleft","16.685714285714287","499","487.5","181","7","-1","27","35","25","35","true"
"null","null","psychophysics","370","315078","0.0-3.0-1.180","","key","null","16.677966101694917","499","487.5","","","","","","","",""
"446","arrowleft","psychophysics","371","315527","0.0-3.0-0.181","","key","arrowleft","16.653846153846153","499","487.5","182","7","1","23","35","25","35","false"
"null","null","psychophysics","372","316529","0.0-3.0-1.181","","key","null","16.661016949152543","499","487.5","","","","","","","",""
"508","arrowright","psychophysics","373","317042","0.0-3.0-0.182","","key","arrowright","16.6","499","487.5","183","7","1","25","15","25","35","true"
"null","null","psychophysics","374","318046","0.0-3.0-1.182","","key","null","16.661016949152543","499","487.5","","","","","","","",""
"706","arrowleft","psychophysics","375","318757","0.0-3.0-0.183","","key","arrowleft","16.595238095238095","499","487.5","184","7","-1","26","35","25","35","true"
"null","null","psychophysics","376","319761","0.0-3.0-1.183","","key","null","16.661016949152543","499","487.5","","","","","","","",""
"408","arrowright","psychophysics","377","320173","0.0-3.0-0.184","","key","arrowright","16.625","499","487.5","185","7","-1","23","15","25","35","false"
"null","null","psychophysics","378","321176","0.0-3.0-1.184","","key","null","16.677966101694917","499","487.5","","","","","","","",""
"526.9999999999418","arrowleft","psychophysics","379","321706","0.0-3.0-0.185","","key","arrowleft","16.64516129032258","499","487.5","186","7","-1","27","15","25","35","true"
"null","null","psychophysics","380","322709","0.0-3.0-1.185","","key","null","16.677966101694917","499","487.5","","","","","","","",""
"461","arrowright","psychophysics","381","323174","0.0-3.0-0.186","","key","arrowright","16.666666666666668","499","487.5","187","7","1","20","35","25","35","true"
"null","null","psychophysics","382","324176","0.0-3.0-1.186","","key","null","16.694915254237287","499","487.5","","","","","","","",""
"675","arrowleft","psychophysics","383","324855","0.0-3.0-0.187","","key","arrowleft","16.625","499","487.5","188","7","-1","25","35","25","35","true"
"null","null","psychophysics","384","325858","0.0-3.0-1.187","","key","null","16.661016949152543","499","487.5","","","","","","","",""
"554","arrowright","psychophysics","385","326416","0.0-3.0-0.188","","key","arrowright","16.636363636363637","499","487.5","189","7","1","27","35","25","35","true"
"null","null","psychophysics","386","327418","0.0-3.0-1.188","","key","null","16.677966101694917","499","487.5","","","","","","","",""
"512","arrowleft","psychophysics","387","327932","0.0-3.0-0.189","","key","arrowleft","16.6","499","487.5","190","7","-1","26","15","25","35","true"
"null","null","psychophysics","388","328934","0.0-3.0-1.189","","key","null","16.661016949152543","499","487.5","","","","","","","",""
"751","arrowleft","psychophysics","389","329687","0.0-3.0-0.190","","key","arrowleft","16.65909090909091","499","487.5","191","7","-1","24","15","25","35","true"
"null","null","psychophysics","390","330689","0.0-3.0-1.190","","key","null","16.677966101694917","499","487.5","","","","","","","",""
"593","arrowleft","psychophysics","391","331285","0.0-3.0-0.191","","key","arrowleft","16.65714285714286","499","487.5","192","7","1","26","35","25","35","false"
"null","null","psychophysics","392","332288","0.0-3.0-1.191","","key","null","16.677966101694917","499","487.5","","","","","","","",""
"589","arrowleft","psychophysics","393","332880","0.0-3.0-0.192","","key","arrowleft","16.62857142857143","499","487.5","193","7","-1","30","35","25","35","true"
"null","null","psychophysics","394","333882","0.0-3.0-1.192","","key","null","16.64406779661017","499","487.5","","","","","","","",""
"528","arrowright","psychophysics","395","334413","0.0-3.0-0.193","","key","arrowright","16.677419354838708","499","487.5","194","7","-1","20","35","25","35","false"
"null","null","psychophysics","396","335414","0.0-3.0-1.193","","key","null","16.64406779661017","499","487.5","","","","","","","",""
"622.9999999999418","arrowleft","psychophysics","397","336040","0.0-3.0-0.194","","key","arrowleft","16.694444444444443","499","487.5","195","7","-1","24","15","25","35","true"
"null","null","psychophysics","398","337041","0.0-3.0-1.194","","key","null","16.677966101694917","499","487.5","","","","","","","",""
"569","arrowright","psychophysics","399","337612","0.0-3.0-0.195","","key","arrowright","16.61764705882353","499","487.5","196","8","1","25","35","25","35","true"
"null","null","psychophysics","400","338614","0.0-3.0-1.195","","key","null","16.661016949152543","499","487.5","","","","","","","",""
"1488","arrowright","html-keyboard-response","401","340104","0.0-3.0-2.195-0.195","<div style=""color: white; text-align: center; vertical-align: top; display: inline-block; width: 800px; margin: auto""><p>You have completed 70% of the trials. You are on block 8 of 10. <br>Good job! Take a break if you need to.</p><p>Press any key to continue the experiment.</p></div>","","","","","","","","","","","","",""
"1356","arrowright","psychophysics","402","342464","0.0-3.0-0.196","","key","arrowright","16.6625","499","487.5","197","8","1","27","35","25","35","true"
"null","null","psychophysics","403","343466","0.0-3.0-1.196","","key","null","16.661016949152543","499","487.5","","","","","","","",""
"551","arrowleft","psychophysics","404","344022","0.0-3.0-0.197","","key","arrowleft","16.6875","499","487.5","198","8","-1","27","35","25","35","true"
"null","null","psychophysics","405","345025","0.0-3.0-1.197","","key","null","16.633333333333333","499","487.5","","","","","","","",""
"521","arrowright","psychophysics","406","345548","0.0-3.0-0.198","","key","arrowright","16.666666666666668","499","487.5","199","8","-1","24","35","25","35","false"
"null","null","psychophysics","407","346550","0.0-3.0-1.198","","key","null","16.661016949152543","499","487.5","","","","","","","",""
"533.9999999999418","arrowleft","psychophysics","408","347087","0.0-3.0-0.199","","key","arrowleft","16.677419354838708","499","487.5","200","8","-1","30","15","25","35","true"
"null","null","psychophysics","409","348092","0.0-3.0-1.199","","key","null","16.65","499","487.5","","","","","","","",""
"485.9999999999418","arrowright","psychophysics","410","348580","0.0-3.0-0.200","","key","arrowright","16.642857142857142","499","487.5","201","8","1","23","35","25","35","true"
"null","null","psychophysics","411","349582","0.0-3.0-1.200","","key","null","16.677966101694917","499","487.5","","","","","","","",""
"510","arrowright","psychophysics","412","350097","0.0-3.0-0.201","","key","arrowright","16.666666666666668","499","487.5","202","8","1","24","35","25","35","true"
"null","null","psychophysics","413","351099","0.0-3.0-1.201","","key","null","16.661016949152543","499","487.5","","","","","","","",""
"646","arrowleft","psychophysics","414","351749","0.0-3.0-0.202","","key","arrowleft","16.68421052631579","499","487.5","203","8","1","20","35","25","35","false"
"null","null","psychophysics","415","352751","0.0-3.0-1.202","","key","null","16.677966101694917","499","487.5","","","","","","","",""
"543","arrowright","psychophysics","416","353297","0.0-3.0-0.203","","key","arrowright","16.65625","499","487.5","204","8","1","25","15","25","35","true"
"null","null","psychophysics","417","354300","0.0-3.0-1.203","","key","null","16.661016949152543","499","487.5","","","","","","","",""
"637","arrowleft","psychophysics","418","354940","0.0-3.0-0.204","","key","arrowleft","16.657894736842106","499","487.5","205","8","-1","24","35","25","35","true"
"null","null","psychophysics","419","355942","0.0-3.0-1.204","","key","null","16.661016949152543","499","487.5","","","","","","","",""
"665","arrowright","psychophysics","420","356608","0.0-3.0-0.205","","key","arrowright","16.666666666666668","499","487.5","206","8","1","25","15","25","35","true"
"null","null","psychophysics","421","357610","0.0-3.0-1.205","","key","null","16.661016949152543","499","487.5","","","","","","","",""
"686","arrowleft","psychophysics","422","358301","0.0-3.0-0.206","","key","arrowleft","16.675","499","487.5","207","8","1","24","15","25","35","false"
"null","null","psychophysics","423","359306","0.0-3.0-1.206","","key","null","16.65","499","487.5","","","","","","","",""
"608.0000000000582","arrowleft","psychophysics","424","359915","0.0-3.0-0.207","","key","arrowleft","16.65714285714286","499","487.5","208","8","-1","24","15","25","35","true"
"null","null","psychophysics","425","360918","0.0-3.0-1.207","","key","null","16.677966101694917","499","487.5","","","","","","","",""
"780","arrowright","psychophysics","426","361708","0.0-3.0-0.208","","key","arrowright","16.617021276595743","499","487.5","209","8","1","26","15","25","35","true"
"null","null","psychophysics","427","362711","0.0-3.0-1.208","","key","null","16.661016949152543","499","487.5","","","","","","","",""
"625","arrowleft","psychophysics","428","363341","0.0-3.0-0.209","","key","arrowleft","16.64864864864865","499","487.5","210","8","-1","23","15","25","35","true"
"null","null","psychophysics","429","364344","0.0-3.0-1.209","","key","null","16.677966101694917","499","487.5","","","","","","","",""
"829","arrowright","psychophysics","430","365177","0.0-3.0-0.210","","key","arrowright","16.632653061224488","499","487.5","211","8","1","20","15","25","35","true"
"null","null","psychophysics","431","366179","0.0-3.0-1.210","","key","null","16.661016949152543","499","487.5","","","","","","","",""
"555","arrowleft","psychophysics","432","366739","0.0-3.0-0.211","","key","arrowleft","16.606060606060606","499","487.5","212","8","1","26","35","25","35","false"
"null","null","psychophysics","433","367741","0.0-3.0-1.211","","key","null","16.677966101694917","499","487.5","","","","","","","",""
"551","arrowright","psychophysics","434","368295","0.0-3.0-0.212","","key","arrowright","16.6875","499","487.5","213","8","1","30","15","25","35","true"
"null","null","psychophysics","435","369298","0.0-3.0-1.212","","key","null","16.677966101694917","499","487.5","","","","","","","",""
"531","arrowright","psychophysics","436","369844","0.0-3.0-0.213","","key","arrowright","16.59375","499","487.5","214","8","1","27","35","25","35","true"
"null","null","psychophysics","437","370847","0.0-3.0-1.213","","key","null","16.694915254237287","499","487.5","","","","","","","",""
"691.9999999999418","arrowleft","psychophysics","438","371541","0.0-3.0-0.214","","key","arrowleft","16.609756097560975","499","487.5","215","8","-1","23","15","25","35","true"
"null","null","psychophysics","439","372544","0.0-3.0-1.214","","key","null","16.661016949152543","499","487.5","","","","","","","",""
"525","arrowright","psychophysics","440","373073","0.0-3.0-0.215","","key","arrowright","16.64516129032258","499","487.5","216","8","-1","27","35","25","35","false"
"null","null","psychophysics","441","374076","0.0-3.0-1.215","","key","null","16.677966101694917","499","487.5","","","","","","","",""
"610.0000000000582","arrowright","psychophysics","442","374688","0.0-3.0-0.216","","key","arrowright","16.694444444444443","499","487.5","217","8","1","25","15","25","35","true"
"null","null","psychophysics","443","375690","0.0-3.0-1.216","","key","null","16.661016949152543","499","487.5","","","","","","","",""
"549.9999999999418","arrowright","psychophysics","444","376244","0.0-3.0-0.217","","key","arrowright","16.6875","499","487.5","218","8","1","25","35","25","35","true"
"null","null","psychophysics","445","377247","0.0-3.0-1.217","","key","null","16.64406779661017","499","487.5","","","","","","","",""
"600","arrowright","psychophysics","446","377858","0.0-3.0-0.218","","key","arrowright","16.555555555555557","499","487.5","219","8","-1","27","35","25","35","false"
"null","null","psychophysics","447","378860","0.0-3.0-1.218","","key","null","16.677966101694917","499","487.5","","","","","","","",""
"527.0000000000582","arrowleft","psychophysics","448","379390","0.0-3.0-0.219","","key","arrowleft","16.612903225806452","499","487.5","220","8","1","25","35","25","35","false"
"null","null","psychophysics","449","380393","0.0-3.0-1.219","","key","null","16.677966101694917","499","487.5","","","","","","","",""
"502","arrowright","psychophysics","450","380898","0.0-3.0-0.220","","key","arrowright","16.566666666666666","499","487.5","221","8","1","30","35","25","35","true"
"null","null","psychophysics","451","381900","0.0-3.0-1.220","","key","null","16.661016949152543","499","487.5","","","","","","","",""
"628.9999999999418","arrowleft","psychophysics","452","382532","0.0-3.0-0.221","","key","arrowleft","16.62162162162162","499","487.5","222","8","-1","24","15","25","35","true"
"null","null","psychophysics","453","383533","0.0-3.0-1.221","","key","null","16.661016949152543","499","487.5","","","","","","","",""
"565","arrowright","psychophysics","454","384103","0.0-3.0-0.222","","key","arrowright","16.666666666666668","499","487.5","223","8","1","27","15","25","35","true"
"null","null","psychophysics","455","385106","0.0-3.0-1.222","","key","null","16.677966101694917","499","487.5","","","","","","","",""
"523","arrowleft","psychophysics","456","385633","0.0-3.0-0.223","","key","arrowleft","16.64516129032258","499","487.5","224","9","-1","30","15","25","35","true"
"null","null","psychophysics","457","386636","0.0-3.0-1.223","","key","null","16.677966101694917","499","487.5","","","","","","","",""
"843","arrowright","html-keyboard-response","458","387481","0.0-3.0-2.223-0.223","<div style=""color: white; text-align: center; vertical-align: top; display: inline-block; width: 800px; margin: auto""><p>You have completed 80% of the trials. You are on block 9 of 10. <br>Good job! Take a break if you need to.</p><p>Press any key to continue the experiment.</p></div>","","","","","","","","","","","","",""
"921","arrowright","psychophysics","459","389406","0.0-3.0-0.224","","key","arrowright","16.64814814814815","499","487.5","225","9","-1","20","35","25","35","false"
"null","null","psychophysics","460","390409","0.0-3.0-1.224","","key","null","16.661016949152543","499","487.5","","","","","","","",""
"1104","arrowright","psychophysics","461","391515","0.0-3.0-0.225","","key","arrowright","16.59090909090909","499","487.5","226","9","1","27","15","25","35","true"
"null","null","psychophysics","462","392517","0.0-3.0-1.225","","key","null","16.677966101694917","499","487.5","","","","","","","",""
"778","arrowright","psychophysics","463","393298","0.0-3.0-0.226","","key","arrowright","16.652173913043477","499","487.5","227","9","1","20","35","25","35","true"
"null","null","psychophysics","464","394301","0.0-3.0-1.226","","key","null","16.677966101694917","499","487.5","","","","","","","",""
"573","arrowleft","psychophysics","465","394877","0.0-3.0-0.227","","key","arrowleft","16.647058823529413","499","487.5","228","9","-1","30","35","25","35","true"
"null","null","psychophysics","466","395878","0.0-3.0-1.227","","key","null","16.64406779661017","499","487.5","","","","","","","",""
"785","arrowleft","psychophysics","467","396666","0.0-3.0-0.228","","key","arrowleft","16.67391304347826","499","487.5","229","9","-1","20","15","25","35","true"
"null","null","psychophysics","468","397669","0.0-3.0-1.228","","key","null","16.677966101694917","499","487.5","","","","","","","",""
"671","arrowright","psychophysics","469","398344","0.0-3.0-0.229","","key","arrowright","16.65","499","487.5","230","9","-1","25","35","25","35","false"
"null","null","psychophysics","470","399346","0.0-3.0-1.229","","key","null","16.661016949152543","499","487.5","","","","","","","",""
"629","arrowleft","psychophysics","471","399977","0.0-3.0-0.230","","key","arrowleft","16.675675675675677","499","487.5","231","9","1","20","35","25","35","false"
"null","null","psychophysics","472","400978","0.0-3.0-1.230","","key","null","16.64406779661017","499","487.5","","","","","","","",""
"713","arrowleft","psychophysics","473","401694","0.0-3.0-0.231","","key","arrowleft","16.69047619047619","499","487.5","232","9","-1","24","15","25","35","true"
"null","null","psychophysics","474","402696","0.0-3.0-1.231","","key","null","16.661016949152543","499","487.5","","","","","","","",""
"924.9999999999418","arrowright","psychophysics","475","403624","0.0-3.0-0.232","","key","arrowright","16.654545454545456","499","487.5","233","9","1","27","15","25","35","true"
"null","null","psychophysics","476","404626","0.0-3.0-1.232","","key","null","16.661016949152543","499","487.5","","","","","","","",""
"546","arrowleft","psychophysics","477","405175","0.0-3.0-0.233","","key","arrowleft","16.6875","499","487.5","234","9","-1","30","15","25","35","true"
"null","null","psychophysics","478","406177","0.0-3.0-1.233","","key","null","16.677966101694917","499","487.5","","","","","","","",""
"838","arrowright","psychophysics","479","407017","0.0-3.0-0.234","","key","arrowright","16.653061224489797","499","487.5","235","9","1","26","15","25","35","true"
"null","null","psychophysics","480","408020","0.0-3.0-1.234","","key","null","16.677966101694917","499","487.5","","","","","","","",""
"718","arrowright","psychophysics","481","408741","0.0-3.0-0.235","","key","arrowright","16.58139534883721","499","487.5","236","9","-1","23","35","25","35","false"
"null","null","psychophysics","482","409743","0.0-3.0-1.235","","key","null","16.677966101694917","499","487.5","","","","","","","",""
"658.9999999999418","arrowright","psychophysics","483","410406","0.0-3.0-0.236","","key","arrowright","16.641025641025642","499","487.5","237","9","1","27","15","25","35","true"
"null","null","psychophysics","484","411410","0.0-3.0-1.236","","key","null","16.677966101694917","499","487.5","","","","","","","",""
"786","arrowleft","psychophysics","485","412199","0.0-3.0-0.237","","key","arrowleft","16.67391304347826","499","487.5","238","9","-1","24","15","25","35","true"
"null","null","psychophysics","486","413202","0.0-3.0-1.237","","key","null","16.64406779661017","499","487.5","","","","","","","",""
"1037","arrowright","psychophysics","487","414243","0.0-3.0-0.238","","key","arrowright","16.612903225806452","499","487.5","239","9","1","24","15","25","35","true"
"null","null","psychophysics","488","415246","0.0-3.0-1.238","","key","null","16.661016949152543","499","487.5","","","","","","","",""
"500","arrowleft","psychophysics","489","415749","0.0-3.0-0.239","","key","arrowleft","16.655172413793103","499","487.5","240","9","1","25","35","25","35","false"
"null","null","psychophysics","490","416754","0.0-3.0-1.239","","key","null","16.633333333333333","499","487.5","","","","","","","",""
"652","arrowright","psychophysics","491","417409","0.0-3.0-0.240","","key","arrowright","16.68421052631579","499","487.5","241","9","1","30","15","25","35","true"
"null","null","psychophysics","492","418412","0.0-3.0-1.240","","key","null","16.677966101694917","499","487.5","","","","","","","",""
"643","arrowright","psychophysics","493","419059","0.0-3.0-0.241","","key","arrowright","16.657894736842106","499","487.5","242","9","1","26","35","25","35","true"
"null","null","psychophysics","494","420062","0.0-3.0-1.241","","key","null","16.64406779661017","499","487.5","","","","","","","",""
"908.0000000000582","arrowright","psychophysics","495","420972","0.0-3.0-0.242","","key","arrowright","16.64814814814815","499","487.5","243","9","1","20","15","25","35","true"
"null","null","psychophysics","496","421974","0.0-3.0-1.242","","key","null","16.677966101694917","499","487.5","","","","","","","",""
"810","arrowright","psychophysics","497","422786","0.0-3.0-0.243","","key","arrowright","16.6875","499","487.5","244","9","-1","20","15","25","35","false"
"null","null","psychophysics","498","423787","0.0-3.0-1.243","","key","null","16.677966101694917","499","487.5","","","","","","","",""
"499","arrowleft","psychophysics","499","424289","0.0-3.0-0.244","","key","arrowleft","16.724137931034484","499","487.5","245","9","1","20","35","25","35","false"
"null","null","psychophysics","500","425291","0.0-3.0-1.244","","key","null","16.677966101694917","499","487.5","","","","","","","",""
"529","arrowright","psychophysics","501","425822","0.0-3.0-0.245","","key","arrowright","16.64516129032258","499","487.5","246","9","1","26","15","25","35","true"
"null","null","psychophysics","502","426824","0.0-3.0-1.245","","key","null","16.677966101694917","499","487.5","","","","","","","",""
"678","arrowright","psychophysics","503","427505","0.0-3.0-0.246","","key","arrowright","16.65","499","487.5","247","9","1","24","15","25","35","true"
"null","null","psychophysics","504","428507","0.0-3.0-1.246","","key","null","16.661016949152543","499","487.5","","","","","","","",""
"677","arrowright","psychophysics","505","429189","0.0-3.0-0.247","","key","arrowright","16.675","499","487.5","248","9","-1","24","35","25","35","false"
"null","null","psychophysics","506","430192","0.0-3.0-1.247","","key","null","16.64406779661017","499","487.5","","","","","","","",""
"537","arrowleft","psychophysics","507","430733","0.0-3.0-0.248","","key","arrowleft","16.65625","499","487.5","249","9","1","25","35","25","35","false"
"null","null","psychophysics","508","431736","0.0-3.0-1.248","","key","null","16.661016949152543","499","487.5","","","","","","","",""
"667","arrowright","psychophysics","509","432405","0.0-3.0-0.249","","key","arrowright","16.641025641025642","499","487.5","250","9","-1","25","35","25","35","false"
"null","null","psychophysics","510","433407","0.0-3.0-1.249","","key","null","16.661016949152543","499","487.5","","","","","","","",""
"561","arrowleft","psychophysics","511","433971","0.0-3.0-0.250","","key","arrowleft","16.666666666666668","499","487.5","251","9","-1","27","15","25","35","true"
"null","null","psychophysics","512","434974","0.0-3.0-1.250","","key","null","16.677966101694917","499","487.5","","","","","","","",""
"558","arrowright","psychophysics","513","435536","0.0-3.0-0.251","","key","arrowright","16.636363636363637","499","487.5","252","10","1","26","15","25","35","true"
"null","null","psychophysics","514","436538","0.0-3.0-1.251","","key","null","16.677966101694917","499","487.5","","","","","","","",""
"1002","arrowright","html-keyboard-response","515","437542","0.0-3.0-2.251-0.251","<div style=""color: white; text-align: center; vertical-align: top; display: inline-block; width: 800px; margin: auto""><p>You have completed 90% of the trials. You are on block 10 of 10. <br>Good job! Take a break if you need to.</p><p>Press any key to continue the experiment.</p></div>","","","","","","","","","","","","",""
"938.0000000000582","arrowleft","psychophysics","516","439484","0.0-3.0-0.252","","key","arrowleft","16.69090909090909","499","487.5","253","10","-1","26","35","25","35","true"
"null","null","psychophysics","517","440486","0.0-3.0-1.252","","key","null","16.677966101694917","499","487.5","","","","","","","",""
"394","arrowleft","psychophysics","518","440882","0.0-3.0-0.253","","key","arrowleft","16.695652173913043","499","487.5","254","10","1","26","35","25","35","false"
"null","null","psychophysics","519","441884","0.0-3.0-1.253","","key","null","16.677966101694917","499","487.5","","","","","","","",""
"676","arrowright","psychophysics","520","442563","0.0-3.0-0.254","","key","arrowright","16.65","499","487.5","255","10","1","24","15","25","35","true"
"null","null","psychophysics","521","443565","0.0-3.0-1.254","","key","null","16.661016949152543","499","487.5","","","","","","","",""
"700","arrowleft","psychophysics","522","444268","0.0-3.0-0.255","","key","arrowleft","16.658536585365855","499","487.5","256","10","1","20","15","25","35","false"
"null","null","psychophysics","523","445270","0.0-3.0-1.255","","key","null","16.694915254237287","499","487.5","","","","","","","",""
"641.9999999999418","arrowleft","psychophysics","524","445916","0.0-3.0-0.256","","key","arrowleft","16.657894736842106","499","487.5","257","10","-1","30","35","25","35","true"
"null","null","psychophysics","525","446919","0.0-3.0-1.256","","key","null","16.64406779661017","499","487.5","","","","","","","",""
"658","arrowleft","psychophysics","526","447579","0.0-3.0-0.257","","key","arrowleft","16.641025641025642","499","487.5","258","10","1","23","35","25","35","false"
"null","null","psychophysics","527","448581","0.0-3.0-1.257","","key","null","16.64406779661017","499","487.5","","","","","","","",""
"668","arrowright","psychophysics","528","449251","0.0-3.0-0.258","","key","arrowright","16.666666666666668","499","487.5","259","10","1","25","15","25","35","true"
"null","null","psychophysics","529","450254","0.0-3.0-1.258","","key","null","16.677966101694917","499","487.5","","","","","","","",""
"899","arrowright","psychophysics","530","451166","0.0-3.0-0.259","","key","arrowright","16.62962962962963","499","487.5","260","10","-1","20","35","25","35","false"
"null","null","psychophysics","531","452169","0.0-3.0-1.259","","key","null","16.661016949152543","499","487.5","","","","","","","",""
"536","arrowleft","psychophysics","532","452718","0.0-3.0-0.260","","key","arrowleft","16.625","499","487.5","261","10","-1","30","35","25","35","true"
"null","null","psychophysics","533","453721","0.0-3.0-1.260","","key","null","16.661016949152543","499","487.5","","","","","","","",""
"604.9999999999418","arrowright","psychophysics","534","454331","0.0-3.0-0.261","","key","arrowright","16.583333333333332","499","487.5","262","10","1","27","15","25","35","true"
"null","null","psychophysics","535","455334","0.0-3.0-1.261","","key","null","16.661016949152543","499","487.5","","","","","","","",""
"480","arrowleft","psychophysics","536","455818","0.0-3.0-0.262","","key","arrowleft","16.678571428571427","499","487.5","263","10","1","25","35","25","35","false"
"null","null","psychophysics","537","456822","0.0-3.0-1.262","","key","null","16.661016949152543","499","487.5","","","","","","","",""
"459","arrowright","psychophysics","538","457291","0.0-3.0-0.263","","key","arrowright","16.5","499","487.5","264","10","1","26","35","25","35","true"
"null","null","psychophysics","539","458292","0.0-3.0-1.263","","key","null","16.661016949152543","499","487.5","","","","","","","",""
"529","arrowright","psychophysics","540","458824","0.0-3.0-0.264","","key","arrowright","16.677419354838708","499","487.5","265","10","1","30","35","25","35","true"
"null","null","psychophysics","541","459826","0.0-3.0-1.264","","key","null","16.661016949152543","499","487.5","","","","","","","",""
"585","arrowleft","psychophysics","542","460414","0.0-3.0-0.265","","key","arrowleft","16.676470588235293","499","487.5","266","10","-1","24","35","25","35","true"
"null","null","psychophysics","543","461416","0.0-3.0-1.265","","key","null","16.677966101694917","499","487.5","","","","","","","",""
"432","arrowright","psychophysics","544","461851","0.0-3.0-0.266","","key","arrowright","16.6","499","487.5","267","10","-1","27","15","25","35","false"
"null","null","psychophysics","545","462854","0.0-3.0-1.266","","key","null","16.661016949152543","499","487.5","","","","","","","",""
"675","arrowright","psychophysics","546","463544","0.0-3.0-0.267","","key","arrowright","16.5609756097561","499","487.5","268","10","1","24","15","25","35","true"
"null","null","psychophysics","547","464546","0.0-3.0-1.267","","key","null","16.661016949152543","499","487.5","","","","","","","",""
"549","arrowright","psychophysics","548","465098","0.0-3.0-0.268","","key","arrowright","16.65625","499","487.5","269","10","1","27","15","25","35","true"
"null","null","psychophysics","549","466100","0.0-3.0-1.268","","key","null","16.661016949152543","499","487.5","","","","","","","",""
"802.0000000000582","arrowleft","psychophysics","550","466905","0.0-3.0-0.269","","key","arrowleft","16.625","499","487.5","270","10","1","20","15","25","35","false"
"null","null","psychophysics","551","467906","0.0-3.0-1.269","","key","null","16.661016949152543","499","487.5","","","","","","","",""
"904","arrowright","psychophysics","552","468812","0.0-3.0-0.270","","key","arrowright","16.660377358490567","499","487.5","271","10","-1","23","35","25","35","false"
"null","null","psychophysics","553","469814","0.0-3.0-1.270","","key","null","16.661016949152543","499","487.5","","","","","","","",""
"657","arrowright","psychophysics","554","470474","0.0-3.0-0.271","","key","arrowright","16.641025641025642","499","487.5","272","10","1","24","15","25","35","true"
"null","null","psychophysics","555","471477","0.0-3.0-1.271","","key","null","16.677966101694917","499","487.5","","","","","","","",""
"748.9999999999418","arrowright","psychophysics","556","472232","0.0-3.0-0.272","","key","arrowright","16.636363636363637","499","487.5","273","10","1","26","15","25","35","true"
"null","null","psychophysics","557","473236","0.0-3.0-1.272","","key","null","16.616666666666667","499","487.5","","","","","","","",""
"592","arrowleft","psychophysics","558","473831","0.0-3.0-0.273","","key","arrowleft","16.647058823529413","499","487.5","274","10","-1","20","35","25","35","true"
"null","null","psychophysics","559","474835","0.0-3.0-1.273","","key","null","16.633333333333333","499","487.5","","","","","","","",""
"980.9999999999418","arrowleft","psychophysics","560","475819","0.0-3.0-0.274","","key","arrowleft","16.655172413793103","499","487.5","275","10","1","24","35","25","35","false"
"null","null","psychophysics","561","476821","0.0-3.0-1.274","","key","null","16.677966101694917","499","487.5","","","","","","","",""
"649","arrowleft","psychophysics","562","477472","0.0-3.0-0.275","","key","arrowleft","16.68421052631579","499","487.5","276","10","-1","25","15","25","35","true"
"null","null","psychophysics","563","478474","0.0-3.0-1.275","","key","null","16.661016949152543","499","487.5","","","","","","","",""
"618","arrowleft","psychophysics","564","479096","0.0-3.0-0.276","","key","arrowleft","16.666666666666668","499","487.5","277","10","-1","24","35","25","35","true"
"null","null","psychophysics","565","480101","0.0-3.0-1.276","","key","null","16.616666666666667","499","487.5","","","","","","","",""
"598.0000000000582","arrowright","psychophysics","566","480700","0.0-3.0-0.277","","key","arrowright","16.65714285714286","499","487.5","278","10","1","23","15","25","35","true"
"null","null","psychophysics","567","481702","0.0-3.0-1.277","","key","null","16.661016949152543","499","487.5","","","","","","","",""
"700","arrowleft","psychophysics","568","482403","0.0-3.0-0.278","","key","arrowleft","16.658536585365855","499","487.5","279","10","-1","30","35","25","35","true"
"null","null","psychophysics","569","483406","0.0-3.0-1.278","","key","null","16.694915254237287","499","487.5","","","","","","","",""
"630","arrowleft","psychophysics","570","484039","0.0-3.0-0.279","","key","arrowleft","16.675675675675677","499","487.5","280","11","-1","24","15","25","35","true"
"null","null","psychophysics","571","485040","0.0-3.0-1.279","","key","null","16.661016949152543","499","487.5","","","","","","","",""
