"rt","response","trial_type","trial_index","time_elapsed","internal_node_id","stimulus","response_type","key_press","avg_frame_time","center_x","center_y","trial","block","test_pos","test_inner_radius","test_outer_radius","ref_inner_radius","ref_outer_radius","test_bigger"
"11027","{""p_id"":""3517"",""age"":""20"",""handedness"":""right"",""sex"":""male"",""other_sex"":""""}","survey-html-form","0","11032","0.0-0.0","","","","","","","","","","","","","",""
"7243"," ","html-keyboard-response","1","18278","0.0-1.0","<p style=""color: white"">Welcome to the Size Judgment Experiment. <br>There will be 10 blocks in this experiment. <br>There will be 28 trials in each block. <br>You will be given a chance to take a break between blocks. <br>Press any key to start the experiment.</p>","","","","","","","","","","","","",""
"7705.999999999996","arrowright","psychophysics","2","26004","0.0-2.0","","key","arrowright","16.6414686825054","662","363.5","","","","","","","",""
"5618.000000000004","arrowleft","psychophysics","3","31638","0.0-3.0-0.0","","key","arrowleft","16.61242603550296","662","363.5","1","1","1","20","35","25","35","false"
"null","null","psychophysics","4","32642","0.0-3.0-1.0","","key","null","16.37704918032787","662","363.5","","","","","","","",""
"890.0000000000073","arrowright","psychophysics","5","33535","0.0-3.0-0.1","","key","arrowright","16.692307692307693","662","363.5","2","1","1","30","15","25","35","true"
"null","null","psychophysics","6","34537","0.0-3.0-1.1","","key","null","16.45","662","363.5","","","","","","","",""
"1212.9999999999927","arrowright","psychophysics","7","35754","0.0-3.0-0.2","","key","arrowright","16.65277777777778","662","363.5","3","1","-1","24","35","25","35","false"
"null","null","psychophysics","8","36756","0.0-3.0-1.2","","key","null","16.416666666666668","662","363.5","","","","","","","",""
"665","arrowright","psychophysics","9","37436","0.0-3.0-0.3","","key","arrowright","16.575","662","363.5","4","1","-1","23","15","25","35","false"
"null","null","psychophysics","10","38438","0.0-3.0-1.3","","key","null","16.433333333333334","662","363.5","","","","","","","",""
"1670","arrowright","psychophysics","11","40121","0.0-3.0-0.4","","key","arrowright","16.66","662","363.5","5","1","1","24","15","25","35","true"
"null","null","psychophysics","12","41123","0.0-3.0-1.4","","key","null","16.416666666666668","662","363.5","","","","","","","",""
"1505","arrowright","psychophysics","13","42638","0.0-3.0-0.5","","key","arrowright","16.655555555555555","662","363.5","6","1","-1","25","35","25","35","false"
"null","null","psychophysics","14","43640","0.0-3.0-1.5","","key","null","16.4","662","363.5","","","","","","","",""
"1556","arrowright","psychophysics","15","45208","0.0-3.0-0.6","","key","arrowright","16.64516129032258","662","363.5","7","1","1","23","15","25","35","true"
"null","null","psychophysics","16","46212","0.0-3.0-1.6","","key","null","16.34426229508197","662","363.5","","","","","","","",""
"1074","arrowleft","psychophysics","17","47290","0.0-3.0-0.7","","key","arrowleft","16.666666666666668","662","363.5","8","1","-1","23","15","25","35","true"
"null","null","psychophysics","18","48294","0.0-3.0-1.7","","key","null","16.39344262295082","662","363.5","","","","","","","",""
"1291.9999999999927","arrowright","psychophysics","19","49589","0.0-3.0-0.8","","key","arrowright","16.68421052631579","662","363.5","9","1","-1","20","15","25","35","false"
"null","null","psychophysics","20","50591","0.0-3.0-1.8","","key","null","16.4","662","363.5","","","","","","","",""
"1482.9999999999927","arrowleft","psychophysics","21","52088","0.0-3.0-0.9","","key","arrowleft","16.640449438202246","662","363.5","10","1","1","25","35","25","35","false"
"null","null","psychophysics","22","53090","0.0-3.0-1.9","","key","null","16.416666666666668","662","363.5","","","","","","","",""
"1142.0000000000073","arrowright","psychophysics","23","54245","0.0-3.0-0.10","","key","arrowright","16.63768115942029","662","363.5","11","1","-1","20","35","25","35","false"
"null","null","psychophysics","24","55248","0.0-3.0-1.10","","key","null","16.583333333333332","662","363.5","","","","","","","",""
"821","arrowleft","psychophysics","25","56073","0.0-3.0-0.11","","key","arrowleft","16.666666666666668","662","363.5","12","1","-1","27","15","25","35","true"
"null","null","psychophysics","26","57075","0.0-3.0-1.11","","key","null","16.4","662","363.5","","","","","","","",""
"1360","arrowleft","psychophysics","27","58449","0.0-3.0-0.12","","key","arrowleft","16.621951219512194","662","363.5","13","1","1","24","15","25","35","false"
"null","null","psychophysics","28","59452","0.0-3.0-1.12","","key","null","16.516666666666666","662","363.5","","","","","","","",""
"935","arrowleft","psychophysics","29","60393","0.0-3.0-0.13","","key","arrowleft","16.672727272727272","662","363.5","14","1","-1","23","35","25","35","true"
"null","null","psychophysics","30","61396","0.0-3.0-1.13","","key","null","16.360655737704917","662","363.5","","","","","","","",""
"751","arrowleft","psychophysics","31","62152","0.0-3.0-0.14","","key","arrowleft","16.65909090909091","662","363.5","15","1","-1","26","15","25","35","true"
"null","null","psychophysics","32","63155","0.0-3.0-1.14","","key","null","16.466666666666665","662","363.5","","","","","","","",""
"2504","arrowright","psychophysics","33","65663","0.0-3.0-0.15","","key","arrowright","16.666666666666668","662","363.5","16","1","1","23","15","25","35","true"
"null","null","psychophysics","34","66665","0.0-3.0-1.15","","key","null","16.6","662","363.5","","","","","","","",""
"994","arrowright","psychophysics","35","67663","0.0-3.0-0.16","","key","arrowright","16.661016949152543","662","363.5","17","1","1","26","15","25","35","true"
"null","null","psychophysics","36","68665","0.0-3.0-1.16","","key","null","16.6","662","363.5","","","","","","","",""
"2011","arrowright","psychophysics","37","70681","0.0-3.0-0.17","","key","arrowright","16.658333333333335","662","363.5","18","1","-1","25","35","25","35","false"
"null","null","psychophysics","38","71684","0.0-3.0-1.17","","key","null","16.566666666666666","662","363.5","","","","","","","",""
"832","arrowleft","psychophysics","39","72519","0.0-3.0-0.18","","key","arrowleft","16.693877551020407","662","363.5","19","1","-1","26","15","25","35","true"
"null","null","psychophysics","40","73522","0.0-3.0-1.18","","key","null","16.466666666666665","662","363.5","","","","","","","",""
"6139.000000000015","arrowleft","psychophysics","41","79665","0.0-3.0-0.19","","key","arrowleft","16.66576086956522","662","363.5","20","1","-1","30","35","25","35","true"
"null","null","psychophysics","42","80668","0.0-3.0-1.19","","key","null","16.583333333333332","662","363.5","","","","","","","",""
"1777","arrowright","psychophysics","43","82450","0.0-3.0-0.20","","key","arrowright","16.660377358490567","662","363.5","21","1","-1","25","35","25","35","false"
"null","null","psychophysics","44","83454","0.0-3.0-1.20","","key","null","16.533333333333335","662","363.5","","","","","","","",""
"1757","arrowleft","psychophysics","45","85216","0.0-3.0-0.21","","key","arrowleft","16.676190476190477","662","363.5","22","1","-1","24","15","25","35","true"
"null","null","psychophysics","46","86218","0.0-3.0-1.21","","key","null","16.566666666666666","662","363.5","","","","","","","",""
"1062.0000000000146","arrowright","psychophysics","47","87284","0.0-3.0-0.22","","key","arrowright","16.650793650793652","662","363.5","23","1","1","25","15","25","35","true"
"null","null","psychophysics","48","88286","0.0-3.0-1.22","","key","null","16.533333333333335","662","363.5","","","","","","","",""
"869","arrowleft","psychophysics","49","89159","0.0-3.0-0.23","","key","arrowleft","16.666666666666668","662","363.5","24","1","1","24","35","25","35","false"
"null","null","psychophysics","50","90162","0.0-3.0-1.23","","key","null","16.4","662","363.5","","","","","","","",""
"719.0000000000146","arrowleft","psychophysics","51","90885","0.0-3.0-0.24","","key","arrowleft","16.53488372093023","662","363.5","25","1","-1","30","15","25","35","true"
"null","null","psychophysics","52","91890","0.0-3.0-1.24","","key","null","16.516666666666666","662","363.5","","","","","","","",""
"707.9999999999854","arrowleft","psychophysics","53","92602","0.0-3.0-0.25","","key","arrowleft","16.642857142857142","662","363.5","26","1","-1","27","35","25","35","true"
"null","null","psychophysics","54","93605","0.0-3.0-1.25","","key","null","16.5","662","363.5","","","","","","","",""
"1989","arrowleft","psychophysics","55","95600","0.0-3.0-0.26","","key","arrowleft","16.66386554621849","662","363.5","27","1","1","23","15","25","35","false"
"null","null","psychophysics","56","96602","0.0-3.0-1.26","","key","null","16.583333333333332","662","363.5","","","","","","","",""
"726","arrowleft","psychophysics","57","97333","0.0-3.0-0.27","","key","arrowleft","16.651162790697676","662","363.5","28","2","-1","25","15","25","35","true"
"null","null","psychophysics","58","98335","0.0-3.0-1.27","","key","null","16.583333333333332","662","363.5","","","","","","","",""
"5262"," ","html-keyboard-response","59","103600","0.0-3.0-2.27-0.27","<div style=""color: white; text-align: center; vertical-align: top; display: inline-block; width: 800px; margin: auto""><p>You have completed 10% of the trials. You are on block 2 of 10. <br>Good job! Take a break if you need to.</p><p>Press any key to continue the experiment.</p></div>","","","","","","","","","","","","",""
"5923","arrowright","psychophysics","60","110528","0.0-3.0-0.28","","key","arrowright","16.66949152542373","662","363.5","29","2","1","27","15","25","35","true"
"null","null","psychophysics","61","111531","0.0-3.0-1.28","","key","null","16.4","662","363.5","","","","","","","",""
"4006.9999999999854","arrowright","psychophysics","62","115551","0.0-3.0-0.29","","key","arrowright","16.651452282157678","662","363.5","30","2","1","26","35","25","35","true"
"null","null","psychophysics","63","116554","0.0-3.0-1.29","","key","null","16.55","662","363.5","","","","","","","",""
"1358.9999999999854","arrowleft","psychophysics","64","117918","0.0-3.0-0.30","","key","arrowleft","16.65432098765432","662","363.5","31","2","1","27","35","25","35","false"
"null","null","psychophysics","65","118920","0.0-3.0-1.30","","key","null","16.566666666666666","662","363.5","","","","","","","",""
"1105.9999999999854","arrowright","psychophysics","66","120031","0.0-3.0-0.31","","key","arrowright","16.661538461538463","662","363.5","32","2","1","26","15","25","35","true"
"null","null","psychophysics","67","121035","0.0-3.0-1.31","","key","null","16.360655737704917","662","363.5","","","","","","","",""
"1722.0000000000146","arrowright","psychophysics","68","122761","0.0-3.0-0.32","","key","arrowright","16.666666666666668","662","363.5","33","2","-1","23","35","25","35","false"
"null","null","psychophysics","69","123763","0.0-3.0-1.32","","key","null","16.45","662","363.5","","","","","","","",""
"3739","arrowleft","psychophysics","70","127507","0.0-3.0-0.33","","key","arrowleft","16.665178571428573","662","363.5","34","2","-1","27","35","25","35","true"
"null","null","psychophysics","71","128510","0.0-3.0-1.33","","key","null","16.466666666666665","662","363.5","","","","","","","",""
"1671.9999999999854","arrowleft","psychophysics","72","130186","0.0-3.0-0.34","","key","arrowleft","16.66","662","363.5","35","2","-1","27","35","25","35","true"
"null","null","psychophysics","73","131188","0.0-3.0-1.34","","key","null","16.583333333333332","662","363.5","","","","","","","",""
"692","arrowleft","psychophysics","74","131886","0.0-3.0-0.35","","key","arrowleft","16.658536585365855","662","363.5","36","2","-1","30","15","25","35","true"
"null","null","psychophysics","75","132888","0.0-3.0-1.35","","key","null","16.583333333333332","662","363.5","","","","","","","",""
"782","arrowleft","psychophysics","76","133675","0.0-3.0-0.36","","key","arrowleft","16.652173913043477","662","363.5","37","2","-1","30","35","25","35","true"
"null","null","psychophysics","77","134678","0.0-3.0-1.36","","key","null","16.45","662","363.5","","","","","","","",""
"657","arrowright","psychophysics","78","135340","0.0-3.0-0.37","","key","arrowright","16.666666666666668","662","363.5","38","2","1","30","35","25","35","true"
"null","null","psychophysics","79","136345","0.0-3.0-1.37","","key","null","16.5","662","363.5","","","","","","","",""
"837","arrowleft","psychophysics","80","137187","0.0-3.0-0.38","","key","arrowleft","16.66","662","363.5","39","2","1","23","35","25","35","false"
"null","null","psychophysics","81","138190","0.0-3.0-1.38","","key","null","16.566666666666666","662","363.5","","","","","","","",""
"1087","arrowleft","psychophysics","82","139281","0.0-3.0-0.39","","key","arrowleft","16.65625","662","363.5","40","2","-1","25","35","25","35","true"
"null","null","psychophysics","83","140283","0.0-3.0-1.39","","key","null","16.383333333333333","662","363.5","","","","","","","",""
"551","arrowright","psychophysics","84","140847","0.0-3.0-0.40","","key","arrowright","16.545454545454547","662","363.5","41","2","1","30","35","25","35","true"
"null","null","psychophysics","85","141850","0.0-3.0-1.40","","key","null","16.4","662","363.5","","","","","","","",""
"1023","arrowright","psychophysics","86","142887","0.0-3.0-0.41","","key","arrowright","16.612903225806452","662","363.5","42","2","1","25","15","25","35","true"
"null","null","psychophysics","87","143890","0.0-3.0-1.41","","key","null","16.583333333333332","662","363.5","","","","","","","",""
"1143","arrowleft","psychophysics","88","145037","0.0-3.0-0.42","","key","arrowleft","16.66176470588235","662","363.5","43","2","-1","27","35","25","35","true"
"null","null","psychophysics","89","146038","0.0-3.0-1.42","","key","null","16.6","662","363.5","","","","","","","",""
"973","arrowleft","psychophysics","90","147015","0.0-3.0-0.43","","key","arrowleft","16.666666666666668","662","363.5","44","2","-1","27","15","25","35","true"
"null","null","psychophysics","91","148018","0.0-3.0-1.43","","key","null","16.4","662","363.5","","","","","","","",""
"1209","arrowleft","psychophysics","92","149231","0.0-3.0-0.44","","key","arrowleft","16.59722222222222","662","363.5","45","2","1","20","35","25","35","false"
"null","null","psychophysics","93","150233","0.0-3.0-1.44","","key","null","16.416666666666668","662","363.5","","","","","","","",""
"1038","arrowleft","psychophysics","94","151285","0.0-3.0-0.45","","key","arrowleft","16.629032258064516","662","363.5","46","2","1","20","35","25","35","false"
"null","null","psychophysics","95","152287","0.0-3.0-1.45","","key","null","16.34426229508197","662","363.5","","","","","","","",""
"639","arrowleft","psychophysics","96","152931","0.0-3.0-0.46","","key","arrowleft","16.64864864864865","662","363.5","47","2","-1","27","15","25","35","true"
"null","null","psychophysics","97","153935","0.0-3.0-1.46","","key","null","16.416666666666668","662","363.5","","","","","","","",""
"1180.000000000029","arrowright","psychophysics","98","155127","0.0-3.0-0.47","","key","arrowright","16.633802816901408","662","363.5","48","2","-1","23","15","25","35","false"
"null","null","psychophysics","99","156129","0.0-3.0-1.47","","key","null","16.483333333333334","662","363.5","","","","","","","",""
"620.9999999999709","arrowleft","psychophysics","100","156754","0.0-3.0-0.48","","key","arrowleft","16.64864864864865","662","363.5","49","2","-1","25","15","25","35","true"
"null","null","psychophysics","101","157757","0.0-3.0-1.48","","key","null","16.6","662","363.5","","","","","","","",""
"694.0000000000291","arrowleft","psychophysics","102","158454","0.0-3.0-0.49","","key","arrowleft","16.634146341463413","662","363.5","50","2","-1","23","35","25","35","true"
"null","null","psychophysics","103","159456","0.0-3.0-1.49","","key","null","16.6","662","363.5","","","","","","","",""
"841","arrowright","psychophysics","104","160300","0.0-3.0-0.50","","key","arrowright","16.6734693877551","662","363.5","51","2","1","27","15","25","35","true"
"null","null","psychophysics","105","161302","0.0-3.0-1.50","","key","null","16.4","662","363.5","","","","","","","",""
"740","arrowleft","psychophysics","106","162055","0.0-3.0-0.51","","key","arrowleft","16.6","662","363.5","52","2","1","20","35","25","35","false"
"null","null","psychophysics","107","163058","0.0-3.0-1.51","","key","null","16.583333333333332","662","363.5","","","","","","","",""
"845","arrowleft","psychophysics","108","163906","0.0-3.0-0.52","","key","arrowleft","16.66","662","363.5","53","2","1","23","35","25","35","false"
"null","null","psychophysics","109","164909","0.0-3.0-1.52","","key","null","16.583333333333332","662","363.5","","","","","","","",""
"898","arrowleft","psychophysics","110","165812","0.0-3.0-0.53","","key","arrowleft","16.660377358490567","662","363.5","54","2","-1","27","35","25","35","true"
"null","null","psychophysics","111","166817","0.0-3.0-1.53","","key","null","16.45","662","363.5","","","","","","","",""
"663","arrowleft","psychophysics","112","167483","0.0-3.0-0.54","","key","arrowleft","16.641025641025642","662","363.5","55","2","-1","27","35","25","35","true"
"null","null","psychophysics","113","168486","0.0-3.0-1.54","","key","null","16.416666666666668","662","363.5","","","","","","","",""
"941","arrowleft","psychophysics","114","169441","0.0-3.0-0.55","","key","arrowleft","16.614035087719298","662","363.5","56","3","1","24","35","25","35","false"
"null","null","psychophysics","115","170444","0.0-3.0-1.55","","key","null","16.55","662","363.5","","","","","","","",""
"9323","arrowright","html-keyboard-response","116","179769","0.0-3.0-2.55-0.55","<div style=""color: white; text-align: center; vertical-align: top; display: inline-block; width: 800px; margin: auto""><p>You have completed 20% of the trials. You are on block 3 of 10. <br>Good job! Take a break if you need to.</p><p>Press any key to continue the experiment.</p></div>","","","","","","","","","","","","",""
"1613","arrowleft","psychophysics","117","182387","0.0-3.0-0.56","","key","arrowleft","16.673684210526314","662","363.5","57","3","-1","27","35","25","35","true"
"null","null","psychophysics","118","183391","0.0-3.0-1.56","","key","null","16.360655737704917","662","363.5","","","","","","","",""
"821","arrowright","psychophysics","119","184217","0.0-3.0-0.57","","key","arrowright","16.666666666666668","662","363.5","58","3","-1","20","15","25","35","false"
"null","null","psychophysics","120","185219","0.0-3.0-1.57","","key","null","16.433333333333334","662","363.5","","","","","","","",""
"764.0000000000291","arrowleft","psychophysics","121","185996","0.0-3.0-0.58","","key","arrowleft","16.652173913043477","662","363.5","59","3","-1","24","15","25","35","true"
"null","null","psychophysics","122","186999","0.0-3.0-1.58","","key","null","16.466666666666665","662","363.5","","","","","","","",""
"1308","arrowright","psychophysics","123","188312","0.0-3.0-0.59","","key","arrowright","16.666666666666668","662","363.5","60","3","1","27","35","25","35","true"
"null","null","psychophysics","124","189315","0.0-3.0-1.59","","key","null","16.5","662","363.5","","","","","","","",""
"540.0000000000291","arrowleft","psychophysics","125","189860","0.0-3.0-0.60","","key","arrowleft","16.65625","662","363.5","61","3","1","26","15","25","35","false"
"null","null","psychophysics","126","190863","0.0-3.0-1.60","","key","null","16.55","662","363.5","","","","","","","",""
"708","arrowright","psychophysics","127","191575","0.0-3.0-0.61","","key","arrowright","16.642857142857142","662","363.5","62","3","1","30","15","25","35","true"
"null","null","psychophysics","128","192577","0.0-3.0-1.61","","key","null","16.583333333333332","662","363.5","","","","","","","",""
"683","arrowleft","psychophysics","129","193263","0.0-3.0-0.62","","key","arrowleft","16.675","662","363.5","63","3","-1","30","15","25","35","true"
"null","null","psychophysics","130","194267","0.0-3.0-1.62","","key","null","16.466666666666665","662","363.5","","","","","","","",""
"687","arrowleft","psychophysics","131","194959","0.0-3.0-0.63","","key","arrowleft","16.658536585365855","662","363.5","64","3","-1","24","15","25","35","true"
"null","null","psychophysics","132","195962","0.0-3.0-1.63","","key","null","16.566666666666666","662","363.5","","","","","","","",""
"976","arrowleft","psychophysics","133","196942","0.0-3.0-0.64","","key","arrowleft","16.637931034482758","662","363.5","65","3","-1","24","35","25","35","true"
"null","null","psychophysics","134","197945","0.0-3.0-1.64","","key","null","16.566666666666666","662","363.5","","","","","","","",""
"859","arrowleft","psychophysics","135","198808","0.0-3.0-0.65","","key","arrowleft","16.647058823529413","662","363.5","66","3","-1","25","15","25","35","true"
"null","null","psychophysics","136","199810","0.0-3.0-1.65","","key","null","16.6","662","363.5","","","","","","","",""
"1134","arrowleft","psychophysics","137","200947","0.0-3.0-0.66","","key","arrowleft","16.671641791044777","662","363.5","67","3","-1","26","15","25","35","true"
"null","null","psychophysics","138","201951","0.0-3.0-1.66","","key","null","16.483333333333334","662","363.5","","","","","","","",""
"814.9999999999709","arrowright","psychophysics","139","202770","0.0-3.0-0.67","","key","arrowright","16.6875","662","363.5","68","3","1","30","35","25","35","true"
"null","null","psychophysics","140","203773","0.0-3.0-1.67","","key","null","16.4","662","363.5","","","","","","","",""
"1357","arrowleft","psychophysics","141","205142","0.0-3.0-0.68","","key","arrowleft","16.621951219512194","662","363.5","69","3","1","23","35","25","35","false"
"null","null","psychophysics","142","206144","0.0-3.0-1.68","","key","null","16.6","662","363.5","","","","","","","",""
"690","arrowleft","psychophysics","143","206837","0.0-3.0-0.69","","key","arrowleft","16.675","662","363.5","70","3","-1","25","15","25","35","true"
"null","null","psychophysics","144","207840","0.0-3.0-1.69","","key","null","16.4","662","363.5","","","","","","","",""
"632.0000000000291","arrowright","psychophysics","145","208486","0.0-3.0-0.70","","key","arrowright","16.55263157894737","662","363.5","71","3","-1","23","35","25","35","false"
"null","null","psychophysics","146","209488","0.0-3.0-1.70","","key","null","16.416666666666668","662","363.5","","","","","","","",""
"1008.0000000000291","arrowright","psychophysics","147","210510","0.0-3.0-0.71","","key","arrowright","16.62295081967213","662","363.5","72","3","1","26","15","25","35","true"
"null","null","psychophysics","148","211512","0.0-3.0-1.71","","key","null","16.6","662","363.5","","","","","","","",""
"979","arrowleft","psychophysics","149","212496","0.0-3.0-0.72","","key","arrowleft","16.655172413793103","662","363.5","73","3","-1","30","35","25","35","true"
"null","null","psychophysics","150","213498","0.0-3.0-1.72","","key","null","16.516666666666666","662","363.5","","","","","","","",""
"685","arrowright","psychophysics","151","214188","0.0-3.0-0.73","","key","arrowright","16.675","662","363.5","74","3","1","30","35","25","35","true"
"null","null","psychophysics","152","215190","0.0-3.0-1.73","","key","null","16.4","662","363.5","","","","","","","",""
"573","arrowleft","psychophysics","153","215776","0.0-3.0-0.74","","key","arrowleft","16.571428571428573","662","363.5","75","3","1","24","15","25","35","false"
"null","null","psychophysics","154","216778","0.0-3.0-1.74","","key","null","16.6","662","363.5","","","","","","","",""
"1497","arrowleft","psychophysics","155","218278","0.0-3.0-0.75","","key","arrowleft","16.662921348314608","662","363.5","76","3","-1","24","35","25","35","true"
"null","null","psychophysics","156","219281","0.0-3.0-1.75","","key","null","16.566666666666666","662","363.5","","","","","","","",""
"612.0000000000291","arrowleft","psychophysics","157","219897","0.0-3.0-0.76","","key","arrowleft","16.666666666666668","662","363.5","77","3","-1","27","15","25","35","true"
"null","null","psychophysics","158","220899","0.0-3.0-1.76","","key","null","16.55","662","363.5","","","","","","","",""
"1908","arrowright","psychophysics","159","222812","0.0-3.0-0.77","","key","arrowright","16.657894736842106","662","363.5","78","3","1","26","15","25","35","true"
"null","null","psychophysics","160","223815","0.0-3.0-1.77","","key","null","16.566666666666666","662","363.5","","","","","","","",""
"792.0000000000291","arrowright","psychophysics","161","224611","0.0-3.0-0.78","","key","arrowright","16.659574468085108","662","363.5","79","3","-1","20","15","25","35","false"
"null","null","psychophysics","162","225614","0.0-3.0-1.78","","key","null","16.6","662","363.5","","","","","","","",""
"1447","arrowright","psychophysics","163","227064","0.0-3.0-0.79","","key","arrowright","16.651162790697676","662","363.5","80","3","1","26","15","25","35","true"
"null","null","psychophysics","164","228066","0.0-3.0-1.79","","key","null","16.533333333333335","662","363.5","","","","","","","",""
"673","arrowleft","psychophysics","165","228745","0.0-3.0-0.80","","key","arrowleft","16.625","662","363.5","81","3","1","20","35","25","35","false"
"null","null","psychophysics","166","229748","0.0-3.0-1.80","","key","null","16.583333333333332","662","363.5","","","","","","","",""
"678","arrowleft","psychophysics","167","230430","0.0-3.0-0.81","","key","arrowleft","16.675","662","363.5","82","3","1","20","15","25","35","false"
"null","null","psychophysics","168","231432","0.0-3.0-1.81","","key","null","16.566666666666666","662","363.5","","","","","","","",""
"1260","arrowleft","psychophysics","169","232698","0.0-3.0-0.82","","key","arrowleft","16.653333333333332","662","363.5","83","3","-1","25","15","25","35","true"
"null","null","psychophysics","170","233700","0.0-3.0-1.82","","key","null","16.516666666666666","662","363.5","","","","","","","",""
"826","arrowright","psychophysics","171","234532","0.0-3.0-0.83","","key","arrowright","16.653061224489797","662","363.5","84","4","1","30","15","25","35","true"
"null","null","psychophysics","172","235534","0.0-3.0-1.83","","key","null","16.533333333333335","662","363.5","","","","","","","",""
"28379","arrowright","html-keyboard-response","173","263916","0.0-3.0-2.83-0.83","<div style=""color: white; text-align: center; vertical-align: top; display: inline-block; width: 800px; margin: auto""><p>You have completed 30% of the trials. You are on block 4 of 10. <br>Good job! Take a break if you need to.</p><p>Press any key to continue the experiment.</p></div>","","","","","","","","","","","","",""
"1379","arrowleft","psychophysics","174","266299","0.0-3.0-0.84","","key","arrowleft","16.666666666666668","662","363.5","85","4","1","20","15","25","35","false"
"null","null","psychophysics","175","267302","0.0-3.0-1.84","","key","null","16.583333333333332","662","363.5","","","","","","","",""
"809","arrowleft","psychophysics","176","268116","0.0-3.0-0.85","","key","arrowleft","16.645833333333332","662","363.5","86","4","-1","23","15","25","35","true"
"null","null","psychophysics","177","269118","0.0-3.0-1.85","","key","null","16.583333333333332","662","363.5","","","","","","","",""
"2131","arrowright","psychophysics","178","271253","0.0-3.0-0.86","","key","arrowright","16.669291338582678","662","363.5","87","4","1","27","35","25","35","true"
"null","null","psychophysics","179","272257","0.0-3.0-1.86","","key","null","16.516666666666666","662","363.5","","","","","","","",""
"1177","arrowright","psychophysics","180","273439","0.0-3.0-0.87","","key","arrowright","16.65714285714286","662","363.5","88","4","1","27","35","25","35","true"
"null","null","psychophysics","181","274441","0.0-3.0-1.87","","key","null","16.466666666666665","662","363.5","","","","","","","",""
"1621","arrowleft","psychophysics","182","276066","0.0-3.0-0.88","","key","arrowleft","16.670103092783506","662","363.5","89","4","-1","23","15","25","35","true"
"null","null","psychophysics","183","277069","0.0-3.0-1.88","","key","null","16.566666666666666","662","363.5","","","","","","","",""
"1353","arrowright","psychophysics","184","278427","0.0-3.0-0.89","","key","arrowright","16.675","662","363.5","90","4","-1","23","15","25","35","false"
"null","null","psychophysics","185","279430","0.0-3.0-1.89","","key","null","16.4","662","363.5","","","","","","","",""
"666.9999999999418","arrowleft","psychophysics","186","280111","0.0-3.0-0.90","","key","arrowleft","16.575","662","363.5","91","4","-1","30","15","25","35","true"
"null","null","psychophysics","187","281113","0.0-3.0-1.90","","key","null","16.4","662","363.5","","","","","","","",""
"586","arrowleft","psychophysics","188","281711","0.0-3.0-0.91","","key","arrowleft","16.6","662","363.5","92","4","-1","27","15","25","35","true"
"null","null","psychophysics","189","282714","0.0-3.0-1.91","","key","null","16.383333333333333","662","363.5","","","","","","","",""
"856","arrowright","psychophysics","190","283583","0.0-3.0-0.92","","key","arrowright","16.596153846153847","662","363.5","93","4","1","27","35","25","35","true"
"null","null","psychophysics","191","284584","0.0-3.0-1.92","","key","null","16.616666666666667","662","363.5","","","","","","","",""
"1114","arrowright","psychophysics","192","285702","0.0-3.0-0.93","","key","arrowright","16.666666666666668","662","363.5","94","4","1","24","35","25","35","true"
"null","null","psychophysics","193","286705","0.0-3.0-1.93","","key","null","16.55","662","363.5","","","","","","","",""
"1502","arrowright","psychophysics","194","288212","0.0-3.0-0.94","","key","arrowright","16.674157303370787","662","363.5","95","4","1","25","15","25","35","true"
"null","null","psychophysics","195","289214","0.0-3.0-1.94","","key","null","16.416666666666668","662","363.5","","","","","","","",""
"1509","arrowright","psychophysics","196","290735","0.0-3.0-0.95","","key","arrowright","16.63736263736264","662","363.5","96","4","-1","20","35","25","35","false"
"null","null","psychophysics","197","291738","0.0-3.0-1.95","","key","null","16.566666666666666","662","363.5","","","","","","","",""
"1768.9999999999418","arrowleft","psychophysics","198","293515","0.0-3.0-0.96","","key","arrowleft","16.676190476190477","662","363.5","97","4","-1","23","15","25","35","true"
"null","null","psychophysics","199","294519","0.0-3.0-1.96","","key","null","16.360655737704917","662","363.5","","","","","","","",""
"1032","arrowright","psychophysics","200","295555","0.0-3.0-0.97","","key","arrowright","16.65573770491803","662","363.5","98","4","-1","20","15","25","35","false"
"null","null","psychophysics","201","296560","0.0-3.0-1.97","","key","null","16.466666666666665","662","363.5","","","","","","","",""
"1289","arrowright","psychophysics","202","297853","0.0-3.0-0.98","","key","arrowright","16.675324675324674","662","363.5","99","4","1","27","15","25","35","true"
"null","null","psychophysics","203","298855","0.0-3.0-1.98","","key","null","16.566666666666666","662","363.5","","","","","","","",""
"1280.9999999999418","arrowleft","psychophysics","204","300141","0.0-3.0-0.99","","key","arrowleft","16.657894736842106","662","363.5","100","4","1","23","35","25","35","false"
"null","null","psychophysics","205","301144","0.0-3.0-1.99","","key","null","16.483333333333334","662","363.5","","","","","","","",""
"5555","arrowright","psychophysics","206","306703","0.0-3.0-0.100","","key","arrowright","16.666666666666668","662","363.5","101","4","1","30","15","25","35","true"
"null","null","psychophysics","207","307705","0.0-3.0-1.100","","key","null","16.583333333333332","662","363.5","","","","","","","",""
"1419","arrowright","psychophysics","208","309129","0.0-3.0-0.101","","key","arrowright","16.666666666666668","662","363.5","102","4","1","25","15","25","35","true"
"null","null","psychophysics","209","310131","0.0-3.0-1.101","","key","null","16.433333333333334","662","363.5","","","","","","","",""
"670","arrowright","psychophysics","210","310814","0.0-3.0-0.102","","key","arrowright","16.65","662","363.5","103","4","1","30","35","25","35","true"
"null","null","psychophysics","211","311816","0.0-3.0-1.102","","key","null","16.4","662","363.5","","","","","","","",""
"1571","arrowright","psychophysics","212","313401","0.0-3.0-0.103","","key","arrowright","16.638297872340427","662","363.5","104","4","-1","23","35","25","35","false"
"null","null","psychophysics","213","314404","0.0-3.0-1.103","","key","null","16.327868852459016","662","363.5","","","","","","","",""
"679.9999999999418","arrowright","psychophysics","214","315088","0.0-3.0-0.104","","key","arrowright","16.65","662","363.5","105","4","1","30","15","25","35","true"
"null","null","psychophysics","215","316090","0.0-3.0-1.104","","key","null","16.566666666666666","662","363.5","","","","","","","",""
"1277.0000000000582","arrowright","psychophysics","216","317373","0.0-3.0-0.105","","key","arrowright","16.644736842105264","662","363.5","106","4","-1","20","15","25","35","false"
"null","null","psychophysics","217","318375","0.0-3.0-1.105","","key","null","16.533333333333335","662","363.5","","","","","","","",""
"1243","arrowleft","psychophysics","218","319624","0.0-3.0-0.106","","key","arrowleft","16.66216216216216","662","363.5","107","4","-1","26","35","25","35","true"
"null","null","psychophysics","219","320627","0.0-3.0-1.106","","key","null","16.516666666666666","662","363.5","","","","","","","",""
"2099.000000000058","arrowleft","psychophysics","220","322731","0.0-3.0-0.107","","key","arrowleft","16.672","662","363.5","108","4","1","24","35","25","35","false"
"null","null","psychophysics","221","323733","0.0-3.0-1.107","","key","null","16.416666666666668","662","363.5","","","","","","","",""
"1109","arrowleft","psychophysics","222","324854","0.0-3.0-0.108","","key","arrowleft","16.64179104477612","662","363.5","109","4","1","20","15","25","35","false"
"null","null","psychophysics","223","325855","0.0-3.0-1.108","","key","null","16.6","662","363.5","","","","","","","",""
"1011","arrowleft","psychophysics","224","326870","0.0-3.0-0.109","","key","arrowleft","16.65","662","363.5","110","4","1","20","15","25","35","false"
"null","null","psychophysics","225","327872","0.0-3.0-1.109","","key","null","16.6","662","363.5","","","","","","","",""
"2931","arrowleft","psychophysics","226","330807","0.0-3.0-0.110","","key","arrowleft","16.65714285714286","662","363.5","111","4","-1","26","35","25","35","true"
"null","null","psychophysics","227","331810","0.0-3.0-1.110","","key","null","16.533333333333335","662","363.5","","","","","","","",""
"1107","arrowleft","psychophysics","228","332922","0.0-3.0-0.111","","key","arrowleft","16.651515151515152","662","363.5","112","5","-1","25","15","25","35","true"
"null","null","psychophysics","229","333924","0.0-3.0-1.111","","key","null","16.583333333333332","662","363.5","","","","","","","",""
"12034","arrowright","html-keyboard-response","230","345960","0.0-3.0-2.111-0.111","<div style=""color: white; text-align: center; vertical-align: top; display: inline-block; width: 800px; margin: auto""><p>You have completed 40% of the trials. You are on block 5 of 10. <br>Good job! Take a break if you need to.</p><p>Press any key to continue the experiment.</p></div>","","","","","","","","","","","","",""
"3496","arrowright","psychophysics","231","350462","0.0-3.0-0.112","","key","arrowright","16.66826923076923","662","363.5","113","5","1","23","15","25","35","true"
"null","null","psychophysics","232","351466","0.0-3.0-1.112","","key","null","16.466666666666665","662","363.5","","","","","","","",""
"724.9999999999418","arrowleft","psychophysics","233","352194","0.0-3.0-0.113","","key","arrowleft","16.674418604651162","662","363.5","114","5","1","24","35","25","35","false"
"null","null","psychophysics","234","353198","0.0-3.0-1.113","","key","null","16.5","662","363.5","","","","","","","",""
"661","arrowleft","psychophysics","235","353863","0.0-3.0-0.114","","key","arrowleft","16.692307692307693","662","363.5","115","5","-1","30","15","25","35","true"
"null","null","psychophysics","236","354866","0.0-3.0-1.114","","key","null","16.466666666666665","662","363.5","","","","","","","",""
"638","arrowleft","psychophysics","237","355507","0.0-3.0-0.115","","key","arrowleft","16.63157894736842","662","363.5","116","5","-1","30","35","25","35","true"
"null","null","psychophysics","238","356510","0.0-3.0-1.115","","key","null","16.583333333333332","662","363.5","","","","","","","",""
"674","arrowright","psychophysics","239","357187","0.0-3.0-0.116","","key","arrowright","16.641025641025642","662","363.5","117","5","1","30","15","25","35","true"
"null","null","psychophysics","240","358191","0.0-3.0-1.116","","key","null","16.360655737704917","662","363.5","","","","","","","",""
"581.9999999999418","arrowleft","psychophysics","241","358777","0.0-3.0-0.117","","key","arrowleft","16.647058823529413","662","363.5","118","5","1","20","35","25","35","false"
"null","null","psychophysics","242","359779","0.0-3.0-1.117","","key","null","16.533333333333335","662","363.5","","","","","","","",""
"892","arrowright","psychophysics","243","360676","0.0-3.0-0.118","","key","arrowright","16.67924528301887","662","363.5","119","5","1","27","15","25","35","true"
"null","null","psychophysics","244","361679","0.0-3.0-1.118","","key","null","16.55","662","363.5","","","","","","","",""
"1257.9999999999418","arrowleft","psychophysics","245","362941","0.0-3.0-0.119","","key","arrowleft","16.653333333333332","662","363.5","120","5","1","25","35","25","35","false"
"null","null","psychophysics","246","363943","0.0-3.0-1.119","","key","null","16.566666666666666","662","363.5","","","","","","","",""
"1142","arrowleft","psychophysics","247","365089","0.0-3.0-0.120","","key","arrowleft","16.65671641791045","662","363.5","121","5","1","24","35","25","35","false"
"null","null","psychophysics","248","366092","0.0-3.0-1.120","","key","null","16.360655737704917","662","363.5","","","","","","","",""
"1045","arrowleft","psychophysics","249","367141","0.0-3.0-0.121","","key","arrowleft","16.661290322580644","662","363.5","122","5","1","24","35","25","35","false"
"null","null","psychophysics","250","368143","0.0-3.0-1.121","","key","null","16.583333333333332","662","363.5","","","","","","","",""
"500","arrowleft","psychophysics","251","368653","0.0-3.0-0.122","","key","arrowleft","16.655172413793103","662","363.5","123","5","1","20","15","25","35","false"
"null","null","psychophysics","252","369658","0.0-3.0-1.122","","key","null","16.37704918032787","662","363.5","","","","","","","",""
"931","arrowleft","psychophysics","253","370593","0.0-3.0-0.123","","key","arrowleft","16.654545454545456","662","363.5","124","5","-1","23","15","25","35","true"
"null","null","psychophysics","254","371595","0.0-3.0-1.123","","key","null","16.583333333333332","662","363.5","","","","","","","",""
"574.9999999999418","arrowleft","psychophysics","255","372175","0.0-3.0-0.124","","key","arrowleft","16.647058823529413","662","363.5","125","5","-1","30","15","25","35","true"
"null","null","psychophysics","256","373178","0.0-3.0-1.124","","key","null","16.583333333333332","662","363.5","","","","","","","",""
"874","arrowleft","psychophysics","257","374056","0.0-3.0-0.125","","key","arrowleft","16.666666666666668","662","363.5","126","5","-1","23","15","25","35","true"
"null","null","psychophysics","258","375060","0.0-3.0-1.125","","key","null","16.360655737704917","662","363.5","","","","","","","",""
"1218","arrowleft","psychophysics","259","376282","0.0-3.0-0.126","","key","arrowleft","16.666666666666668","662","363.5","127","5","1","23","15","25","35","false"
"null","null","psychophysics","260","377285","0.0-3.0-1.126","","key","null","16.45","662","363.5","","","","","","","",""
"1456","arrowright","psychophysics","261","378745","0.0-3.0-0.127","","key","arrowright","16.655172413793103","662","363.5","128","5","-1","20","15","25","35","false"
"null","null","psychophysics","262","379747","0.0-3.0-1.127","","key","null","16.55","662","363.5","","","","","","","",""
"1273","arrowright","psychophysics","263","381026","0.0-3.0-0.128","","key","arrowright","16.657894736842106","662","363.5","129","5","1","26","15","25","35","true"
"null","null","psychophysics","264","382029","0.0-3.0-1.128","","key","null","16.583333333333332","662","363.5","","","","","","","",""
"1190","arrowright","psychophysics","265","383223","0.0-3.0-0.129","","key","arrowright","16.67142857142857","662","363.5","130","5","1","24","15","25","35","true"
"null","null","psychophysics","266","384227","0.0-3.0-1.129","","key","null","16.37704918032787","662","363.5","","","","","","","",""
"680","arrowleft","psychophysics","267","384911","0.0-3.0-0.130","","key","arrowleft","16.65","662","363.5","131","5","-1","27","15","25","35","true"
"null","null","psychophysics","268","385914","0.0-3.0-1.130","","key","null","16.55","662","363.5","","","","","","","",""
"924","arrowleft","psychophysics","269","386843","0.0-3.0-0.131","","key","arrowleft","16.672727272727272","662","363.5","132","5","1","20","15","25","35","false"
"null","null","psychophysics","270","387846","0.0-3.0-1.131","","key","null","16.583333333333332","662","363.5","","","","","","","",""
"1707","arrowleft","psychophysics","271","389556","0.0-3.0-0.132","","key","arrowleft","16.673267326732674","662","363.5","133","5","-1","26","35","25","35","true"
"null","null","psychophysics","272","390558","0.0-3.0-1.132","","key","null","16.4","662","363.5","","","","","","","",""
"2679.000000000058","arrowleft","psychophysics","273","393249","0.0-3.0-0.133","","key","arrowleft","16.652173913043477","662","363.5","134","5","1","26","35","25","35","false"
"null","null","psychophysics","274","394254","0.0-3.0-1.133","","key","null","16.45","662","363.5","","","","","","","",""
"1181","arrowleft","psychophysics","275","395439","0.0-3.0-0.134","","key","arrowleft","16.67142857142857","662","363.5","135","5","1","20","35","25","35","false"
"null","null","psychophysics","276","396441","0.0-3.0-1.134","","key","null","16.416666666666668","662","363.5","","","","","","","",""
"3256","arrowright","psychophysics","277","399712","0.0-3.0-0.135","","key","arrowright","16.647959183673468","662","363.5","136","5","1","27","35","25","35","true"
"null","null","psychophysics","278","400714","0.0-3.0-1.135","","key","null","16.583333333333332","662","363.5","","","","","","","",""
"1065","arrowright","psychophysics","279","401783","0.0-3.0-0.136","","key","arrowright","16.666666666666668","662","363.5","137","5","1","26","15","25","35","true"
"null","null","psychophysics","280","402787","0.0-3.0-1.136","","key","null","16.483333333333334","662","363.5","","","","","","","",""
"1421","arrowleft","psychophysics","281","404212","0.0-3.0-0.137","","key","arrowleft","16.658823529411766","662","363.5","138","5","-1","25","15","25","35","true"
"null","null","psychophysics","282","405214","0.0-3.0-1.137","","key","null","16.6","662","363.5","","","","","","","",""
"845","arrowright","psychophysics","283","406062","0.0-3.0-0.138","","key","arrowright","16.66","662","363.5","139","5","1","30","35","25","35","true"
"null","null","psychophysics","284","407065","0.0-3.0-1.138","","key","null","16.583333333333332","662","363.5","","","","","","","",""
"1127","arrowleft","psychophysics","285","408196","0.0-3.0-0.139","","key","arrowleft","16.65671641791045","662","363.5","140","6","-1","30","35","25","35","true"
"null","null","psychophysics","286","409199","0.0-3.0-1.139","","key","null","16.566666666666666","662","363.5","","","","","","","",""
"25649","arrowright","html-keyboard-response","287","434851","0.0-3.0-2.139-0.139","<div style=""color: white; text-align: center; vertical-align: top; display: inline-block; width: 800px; margin: auto""><p>You have completed 50% of the trials. You are on block 6 of 10. <br>Good job! Take a break if you need to.</p><p>Press any key to continue the experiment.</p></div>","","","","","","","","","","","","",""
"2737","arrowright","psychophysics","288","438593","0.0-3.0-0.140","","key","arrowright","16.67283950617284","662","363.5","141","6","1","24","15","25","35","true"
"null","null","psychophysics","289","439596","0.0-3.0-1.140","","key","null","16.4","662","363.5","","","","","","","",""
"550.9999999999418","arrowleft","psychophysics","290","440159","0.0-3.0-0.141","","key","arrowleft","16.545454545454547","662","363.5","142","6","1","23","15","25","35","false"
"null","null","psychophysics","291","441161","0.0-3.0-1.141","","key","null","16.4","662","363.5","","","","","","","",""
"747.9999999999418","arrowright","psychophysics","292","441921","0.0-3.0-0.142","","key","arrowright","16.622222222222224","662","363.5","143","6","-1","20","15","25","35","false"
"null","null","psychophysics","293","442925","0.0-3.0-1.142","","key","null","16.45","662","363.5","","","","","","","",""
"617","arrowleft","psychophysics","294","443546","0.0-3.0-0.143","","key","arrowleft","16.694444444444443","662","363.5","144","6","-1","30","15","25","35","true"
"null","null","psychophysics","295","444550","0.0-3.0-1.143","","key","null","16.360655737704917","662","363.5","","","","","","","",""
"1045","arrowright","psychophysics","296","445599","0.0-3.0-0.144","","key","arrowright","16.661290322580644","662","363.5","145","6","-1","24","35","25","35","false"
"null","null","psychophysics","297","446601","0.0-3.0-1.144","","key","null","16.6","662","363.5","","","","","","","",""
"727","arrowleft","psychophysics","298","447332","0.0-3.0-0.145","","key","arrowleft","16.627906976744185","662","363.5","146","6","-1","27","15","25","35","true"
"null","null","psychophysics","299","448334","0.0-3.0-1.145","","key","null","16.6","662","363.5","","","","","","","",""
"1162","arrowleft","psychophysics","300","449499","0.0-3.0-0.146","","key","arrowleft","16.652173913043477","662","363.5","147","6","1","23","35","25","35","false"
"null","null","psychophysics","301","450502","0.0-3.0-1.146","","key","null","16.583333333333332","662","363.5","","","","","","","",""
"865.0000000000582","arrowright","psychophysics","302","451371","0.0-3.0-0.147","","key","arrowright","16.647058823529413","662","363.5","148","6","-1","24","35","25","35","false"
"null","null","psychophysics","303","452375","0.0-3.0-1.147","","key","null","16.466666666666665","662","363.5","","","","","","","",""
"1420","arrowright","psychophysics","304","453800","0.0-3.0-0.148","","key","arrowright","16.658823529411766","662","363.5","149","6","1","24","35","25","35","true"
"null","null","psychophysics","305","454802","0.0-3.0-1.148","","key","null","16.583333333333332","662","363.5","","","","","","","",""
"520.9999999999418","arrowleft","psychophysics","306","455327","0.0-3.0-0.149","","key","arrowleft","16.666666666666668","662","363.5","150","6","1","24","15","25","35","false"
"null","null","psychophysics","307","456330","0.0-3.0-1.149","","key","null","16.416666666666668","662","363.5","","","","","","","",""
"953","arrowleft","psychophysics","308","457295","0.0-3.0-0.150","","key","arrowleft","16.614035087719298","662","363.5","151","6","-1","27","35","25","35","true"
"null","null","psychophysics","309","458297","0.0-3.0-1.150","","key","null","16.4","662","363.5","","","","","","","",""
"839","arrowright","psychophysics","310","459150","0.0-3.0-0.151","","key","arrowright","16.58823529411765","662","363.5","152","6","-1","20","35","25","35","false"
"null","null","psychophysics","311","460153","0.0-3.0-1.151","","key","null","16.6","662","363.5","","","","","","","",""
"1005","arrowleft","psychophysics","312","461162","0.0-3.0-0.152","","key","arrowleft","16.677966101694917","662","363.5","153","6","1","23","35","25","35","false"
"null","null","psychophysics","313","462164","0.0-3.0-1.152","","key","null","16.4","662","363.5","","","","","","","",""
"574.0000000000582","arrowleft","psychophysics","314","462751","0.0-3.0-0.153","","key","arrowleft","16.571428571428573","662","363.5","154","6","-1","26","35","25","35","true"
"null","null","psychophysics","315","463753","0.0-3.0-1.153","","key","null","16.583333333333332","662","363.5","","","","","","","",""
"708","arrowright","psychophysics","316","464467","0.0-3.0-0.154","","key","arrowright","16.642857142857142","662","363.5","155","6","-1","20","35","25","35","false"
"null","null","psychophysics","317","465469","0.0-3.0-1.154","","key","null","16.6","662","363.5","","","","","","","",""
"760.0000000000582","arrowright","psychophysics","318","466234","0.0-3.0-0.155","","key","arrowright","16.644444444444446","662","363.5","156","6","-1","20","35","25","35","false"
"null","null","psychophysics","319","467237","0.0-3.0-1.155","","key","null","16.6","662","363.5","","","","","","","",""
"931","arrowleft","psychophysics","320","468172","0.0-3.0-0.156","","key","arrowleft","16.654545454545456","662","363.5","157","6","-1","26","35","25","35","true"
"null","null","psychophysics","321","469176","0.0-3.0-1.156","","key","null","16.516666666666666","662","363.5","","","","","","","",""
"715.0000000000582","arrowleft","psychophysics","322","469896","0.0-3.0-0.157","","key","arrowleft","16.666666666666668","662","363.5","158","6","-1","27","15","25","35","true"
"null","null","psychophysics","323","470899","0.0-3.0-1.157","","key","null","16.4","662","363.5","","","","","","","",""
"950","arrowright","psychophysics","324","471862","0.0-3.0-0.158","","key","arrowright","16.614035087719298","662","363.5","159","6","1","27","15","25","35","true"
"null","null","psychophysics","325","472864","0.0-3.0-1.158","","key","null","16.433333333333334","662","363.5","","","","","","","",""
"1390","arrowleft","psychophysics","326","474269","0.0-3.0-0.159","","key","arrowleft","16.642857142857142","662","363.5","160","6","-1","25","35","25","35","true"
"null","null","psychophysics","327","475271","0.0-3.0-1.159","","key","null","16.583333333333332","662","363.5","","","","","","","",""
"1328.0000000000582","arrowright","psychophysics","328","476603","0.0-3.0-0.160","","key","arrowright","16.658227848101266","662","363.5","161","6","-1","23","35","25","35","false"
"null","null","psychophysics","329","477605","0.0-3.0-1.160","","key","null","16.55","662","363.5","","","","","","","",""
"663","arrowleft","psychophysics","330","478271","0.0-3.0-0.161","","key","arrowleft","16.641025641025642","662","363.5","162","6","1","20","35","25","35","false"
"null","null","psychophysics","331","479274","0.0-3.0-1.161","","key","null","16.533333333333335","662","363.5","","","","","","","",""
"946","arrowleft","psychophysics","332","480224","0.0-3.0-0.162","","key","arrowleft","16.660714285714285","662","363.5","163","6","1","25","35","25","35","false"
"null","null","psychophysics","333","481228","0.0-3.0-1.162","","key","null","16.483333333333334","662","363.5","","","","","","","",""
"604.0000000000582","arrowleft","psychophysics","334","481836","0.0-3.0-0.163","","key","arrowleft","16.63888888888889","662","363.5","164","6","-1","26","15","25","35","true"
"null","null","psychophysics","335","482839","0.0-3.0-1.163","","key","null","16.6","662","363.5","","","","","","","",""
"804","arrowright","psychophysics","336","483647","0.0-3.0-0.164","","key","arrowright","16.680851063829788","662","363.5","165","6","1","30","35","25","35","true"
"null","null","psychophysics","337","484650","0.0-3.0-1.164","","key","null","16.416666666666668","662","363.5","","","","","","","",""
"877","arrowright","psychophysics","338","485538","0.0-3.0-0.165","","key","arrowright","16.60377358490566","662","363.5","166","6","1","27","15","25","35","true"
"null","null","psychophysics","339","486540","0.0-3.0-1.165","","key","null","16.55","662","363.5","","","","","","","",""
"1570","arrowright","psychophysics","340","488114","0.0-3.0-0.166","","key","arrowright","16.666666666666668","662","363.5","167","6","1","25","15","25","35","true"
"null","null","psychophysics","341","489116","0.0-3.0-1.166","","key","null","16.416666666666668","662","363.5","","","","","","","",""
"890","arrowleft","psychophysics","342","490020","0.0-3.0-0.167","","key","arrowleft","16.59259259259259","662","363.5","168","7","1","23","35","25","35","false"
"null","null","psychophysics","343","491021","0.0-3.0-1.167","","key","null","16.583333333333332","662","363.5","","","","","","","",""
"13662","arrowright","html-keyboard-response","344","504685","0.0-3.0-2.167-0.167","<div style=""color: white; text-align: center; vertical-align: top; display: inline-block; width: 800px; margin: auto""><p>You have completed 60% of the trials. You are on block 7 of 10. <br>Good job! Take a break if you need to.</p><p>Press any key to continue the experiment.</p></div>","","","","","","","","","","","","",""
"2092","arrowleft","psychophysics","345","507783","0.0-3.0-0.168","","key","arrowleft","16.661290322580644","662","363.5","169","7","-1","24","35","25","35","true"
"null","null","psychophysics","346","508786","0.0-3.0-1.168","","key","null","16.4","662","363.5","","","","","","","",""
"1507","arrowleft","psychophysics","347","510306","0.0-3.0-0.169","","key","arrowleft","16.626373626373628","662","363.5","170","7","-1","26","35","25","35","true"
"null","null","psychophysics","348","511309","0.0-3.0-1.169","","key","null","16.566666666666666","662","363.5","","","","","","","",""
"1514","arrowleft","psychophysics","349","512827","0.0-3.0-0.170","","key","arrowleft","16.666666666666668","662","363.5","171","7","1","26","35","25","35","false"
"null","null","psychophysics","350","513830","0.0-3.0-1.170","","key","null","16.483333333333334","662","363.5","","","","","","","",""
"939.0000000001164","arrowright","psychophysics","351","514773","0.0-3.0-0.171","","key","arrowright","16.642857142857142","662","363.5","172","7","-1","24","35","25","35","false"
"null","null","psychophysics","352","515776","0.0-3.0-1.171","","key","null","16.566666666666666","662","363.5","","","","","","","",""
"1398.0000000000582","arrowright","psychophysics","353","517178","0.0-3.0-0.172","","key","arrowright","16.662650602409638","662","363.5","173","7","-1","23","35","25","35","false"
"null","null","psychophysics","354","518182","0.0-3.0-1.172","","key","null","16.45","662","363.5","","","","","","","",""
"865.0000000000582","arrowright","psychophysics","355","519051","0.0-3.0-0.173","","key","arrowright","16.666666666666668","662","363.5","174","7","1","27","15","25","35","true"
"null","null","psychophysics","356","520053","0.0-3.0-1.173","","key","null","16.383333333333333","662","363.5","","","","","","","",""
"1583.9999999999418","arrowright","psychophysics","357","521651","0.0-3.0-0.174","","key","arrowright","16.621052631578948","662","363.5","175","7","-1","24","35","25","35","false"
"null","null","psychophysics","358","522653","0.0-3.0-1.174","","key","null","16.4","662","363.5","","","","","","","",""
"640","arrowleft","psychophysics","359","523306","0.0-3.0-0.175","","key","arrowleft","16.564102564102566","662","363.5","176","7","-1","26","35","25","35","true"
"null","null","psychophysics","360","524308","0.0-3.0-1.175","","key","null","16.6","662","363.5","","","","","","","",""
"1071","arrowright","psychophysics","361","525383","0.0-3.0-0.176","","key","arrowright","16.666666666666668","662","363.5","177","7","-1","24","15","25","35","false"
"null","null","psychophysics","362","526385","0.0-3.0-1.176","","key","null","16.433333333333334","662","363.5","","","","","","","",""
"1587","arrowleft","psychophysics","363","527985","0.0-3.0-0.177","","key","arrowleft","16.652631578947368","662","363.5","178","7","1","25","35","25","35","false"
"null","null","psychophysics","364","528987","0.0-3.0-1.177","","key","null","16.4","662","363.5","","","","","","","",""
"935","arrowleft","psychophysics","365","529934","0.0-3.0-0.178","","key","arrowleft","16.625","662","363.5","179","7","-1","26","35","25","35","true"
"null","null","psychophysics","366","530937","0.0-3.0-1.178","","key","null","16.4","662","363.5","","","","","","","",""
"1412","arrowleft","psychophysics","367","532362","0.0-3.0-0.179","","key","arrowleft","16.647058823529413","662","363.5","180","7","1","23","15","25","35","false"
"null","null","psychophysics","368","533366","0.0-3.0-1.179","","key","null","16.5","662","363.5","","","","","","","",""
"765","arrowleft","psychophysics","369","534135","0.0-3.0-0.180","","key","arrowleft","16.666666666666668","662","363.5","181","7","-1","26","15","25","35","true"
"null","null","psychophysics","370","535136","0.0-3.0-1.180","","key","null","16.416666666666668","662","363.5","","","","","","","",""
"1259.0000000001164","arrowleft","psychophysics","371","536408","0.0-3.0-0.181","","key","arrowleft","16.63157894736842","662","363.5","182","7","-1","25","35","25","35","true"
"null","null","psychophysics","372","537411","0.0-3.0-1.181","","key","null","16.583333333333332","662","363.5","","","","","","","",""
"1344","arrowright","psychophysics","373","538758","0.0-3.0-0.182","","key","arrowright","16.65","662","363.5","183","7","1","26","35","25","35","true"
"null","null","psychophysics","374","539761","0.0-3.0-1.182","","key","null","16.583333333333332","662","363.5","","","","","","","",""
"1412","arrowleft","psychophysics","375","541177","0.0-3.0-0.183","","key","arrowleft","16.654761904761905","662","363.5","184","7","1","26","35","25","35","false"
"null","null","psychophysics","376","542180","0.0-3.0-1.183","","key","null","16.55","662","363.5","","","","","","","",""
"1101","arrowright","psychophysics","377","543286","0.0-3.0-0.184","","key","arrowright","16.661538461538463","662","363.5","185","7","-1","23","35","25","35","false"
"null","null","psychophysics","378","544288","0.0-3.0-1.184","","key","null","16.416666666666668","662","363.5","","","","","","","",""
"680.0000000001164","arrowleft","psychophysics","379","544980","0.0-3.0-0.185","","key","arrowleft","16.609756097560975","662","363.5","186","7","-1","26","35","25","35","true"
"null","null","psychophysics","380","545984","0.0-3.0-1.185","","key","null","16.5","662","363.5","","","","","","","",""
"781","arrowleft","psychophysics","381","546769","0.0-3.0-0.186","","key","arrowleft","16.67391304347826","662","363.5","187","7","1","25","35","25","35","false"
"null","null","psychophysics","382","547772","0.0-3.0-1.186","","key","null","16.4","662","363.5","","","","","","","",""
"1058","arrowleft","psychophysics","383","548843","0.0-3.0-0.187","","key","arrowleft","16.609375","662","363.5","188","7","-1","23","35","25","35","true"
"null","null","psychophysics","384","549845","0.0-3.0-1.187","","key","null","16.583333333333332","662","363.5","","","","","","","",""
"700.0000000001164","arrowleft","psychophysics","385","550553","0.0-3.0-0.188","","key","arrowleft","16.682926829268293","662","363.5","189","7","-1","30","35","25","35","true"
"null","null","psychophysics","386","551556","0.0-3.0-1.188","","key","null","16.4","662","363.5","","","","","","","",""
"524","arrowleft","psychophysics","387","552093","0.0-3.0-0.189","","key","arrowleft","16.53125","662","363.5","190","7","1","20","15","25","35","false"
"null","null","psychophysics","388","553096","0.0-3.0-1.189","","key","null","16.566666666666666","662","363.5","","","","","","","",""
"690","arrowright","psychophysics","389","553790","0.0-3.0-0.190","","key","arrowright","16.65","662","363.5","191","7","-1","20","35","25","35","false"
"null","null","psychophysics","390","554794","0.0-3.0-1.190","","key","null","16.360655737704917","662","363.5","","","","","","","",""
"1489","arrowright","psychophysics","391","556286","0.0-3.0-0.191","","key","arrowright","16.670454545454547","662","363.5","192","7","1","24","15","25","35","true"
"null","null","psychophysics","392","557289","0.0-3.0-1.191","","key","null","16.416666666666668","662","363.5","","","","","","","",""
"1077","arrowright","psychophysics","393","558379","0.0-3.0-0.192","","key","arrowright","16.615384615384617","662","363.5","193","7","1","24","15","25","35","true"
"null","null","psychophysics","394","559382","0.0-3.0-1.192","","key","null","16.533333333333335","662","363.5","","","","","","","",""
"645","arrowright","psychophysics","395","560031","0.0-3.0-0.193","","key","arrowright","16.68421052631579","662","363.5","194","7","1","30","15","25","35","true"
"null","null","psychophysics","396","561035","0.0-3.0-1.193","","key","null","16.5","662","363.5","","","","","","","",""
"1224","arrowleft","psychophysics","397","562263","0.0-3.0-0.194","","key","arrowleft","16.671232876712327","662","363.5","195","7","-1","24","15","25","35","true"
"null","null","psychophysics","398","563265","0.0-3.0-1.194","","key","null","16.533333333333335","662","363.5","","","","","","","",""
"1958","arrowleft","psychophysics","399","565228","0.0-3.0-0.195","","key","arrowleft","16.65811965811966","662","363.5","196","8","-1","24","15","25","35","true"
"null","null","psychophysics","400","566230","0.0-3.0-1.195","","key","null","16.583333333333332","662","363.5","","","","","","","",""
"19575","arrowright","html-keyboard-response","401","585808","0.0-3.0-2.195-0.195","<div style=""color: white; text-align: center; vertical-align: top; display: inline-block; width: 800px; margin: auto""><p>You have completed 70% of the trials. You are on block 8 of 10. <br>Good job! Take a break if you need to.</p><p>Press any key to continue the experiment.</p></div>","","","","","","","","","","","","",""
"1109","arrowright","psychophysics","402","587923","0.0-3.0-0.196","","key","arrowright","16.661538461538463","662","363.5","197","8","1","25","15","25","35","true"
"null","null","psychophysics","403","588924","0.0-3.0-1.196","","key","null","16.383333333333333","662","363.5","","","","","","","",""
"957","arrowleft","psychophysics","404","589884","0.0-3.0-0.197","","key","arrowleft","16.63157894736842","662","363.5","198","8","-1","24","15","25","35","true"
"null","null","psychophysics","405","590887","0.0-3.0-1.197","","key","null","16.466666666666665","662","363.5","","","","","","","",""
"525","arrowleft","psychophysics","406","591416","0.0-3.0-0.198","","key","arrowleft","16.677419354838708","662","363.5","199","8","-1","30","35","25","35","true"
"null","null","psychophysics","407","592418","0.0-3.0-1.198","","key","null","16.55","662","363.5","","","","","","","",""
"649","arrowright","psychophysics","408","593073","0.0-3.0-0.199","","key","arrowright","16.68421052631579","662","363.5","200","8","1","30","15","25","35","true"
"null","null","psychophysics","409","594075","0.0-3.0-1.199","","key","null","16.416666666666668","662","363.5","","","","","","","",""
"658","arrowleft","psychophysics","410","594749","0.0-3.0-0.200","","key","arrowleft","16.625","662","363.5","201","8","-1","23","15","25","35","true"
"null","null","psychophysics","411","595751","0.0-3.0-1.200","","key","null","16.55","662","363.5","","","","","","","",""
"639","arrowleft","psychophysics","412","596394","0.0-3.0-0.201","","key","arrowleft","16.675675675675677","662","363.5","202","8","-1","26","15","25","35","true"
"null","null","psychophysics","413","597398","0.0-3.0-1.201","","key","null","16.360655737704917","662","363.5","","","","","","","",""
"712","arrowleft","psychophysics","414","598114","0.0-3.0-0.202","","key","arrowleft","16.642857142857142","662","363.5","203","8","-1","26","15","25","35","true"
"null","null","psychophysics","415","599116","0.0-3.0-1.202","","key","null","16.566666666666666","662","363.5","","","","","","","",""
"1427","arrowright","psychophysics","416","600547","0.0-3.0-0.203","","key","arrowright","16.658823529411766","662","363.5","204","8","1","23","15","25","35","true"
"null","null","psychophysics","417","601549","0.0-3.0-1.203","","key","null","16.583333333333332","662","363.5","","","","","","","",""
"508","arrowleft","psychophysics","418","602069","0.0-3.0-0.204","","key","arrowleft","16.666666666666668","662","363.5","205","8","-1","30","35","25","35","true"
"null","null","psychophysics","419","603072","0.0-3.0-1.204","","key","null","16.5","662","363.5","","","","","","","",""
"854","arrowleft","psychophysics","420","603931","0.0-3.0-0.205","","key","arrowleft","16.666666666666668","662","363.5","206","8","1","20","15","25","35","false"
"null","null","psychophysics","421","604933","0.0-3.0-1.205","","key","null","16.583333333333332","662","363.5","","","","","","","",""
"681","arrowleft","psychophysics","422","605618","0.0-3.0-0.206","","key","arrowleft","16.675","662","363.5","207","8","1","20","35","25","35","false"
"null","null","psychophysics","423","606622","0.0-3.0-1.206","","key","null","16.5","662","363.5","","","","","","","",""
"933.9999999998836","arrowleft","psychophysics","424","607560","0.0-3.0-0.207","","key","arrowleft","16.654545454545456","662","363.5","208","8","-1","25","35","25","35","true"
"null","null","psychophysics","425","608566","0.0-3.0-1.207","","key","null","16.37704918032787","662","363.5","","","","","","","",""
"562","arrowleft","psychophysics","426","609132","0.0-3.0-0.208","","key","arrowleft","16.636363636363637","662","363.5","209","8","-1","27","35","25","35","true"
"null","null","psychophysics","427","610135","0.0-3.0-1.208","","key","null","16.583333333333332","662","363.5","","","","","","","",""
"1109","arrowright","psychophysics","428","611249","0.0-3.0-0.209","","key","arrowright","16.651515151515152","662","363.5","210","8","1","25","15","25","35","true"
"null","null","psychophysics","429","612251","0.0-3.0-1.209","","key","null","16.6","662","363.5","","","","","","","",""
"1038","arrowleft","psychophysics","430","613294","0.0-3.0-0.210","","key","arrowleft","16.65573770491803","662","363.5","211","8","1","20","15","25","35","false"
"null","null","psychophysics","431","614296","0.0-3.0-1.210","","key","null","16.4","662","363.5","","","","","","","",""
"608","arrowleft","psychophysics","432","614917","0.0-3.0-0.211","","key","arrowleft","16.54054054054054","662","363.5","212","8","1","27","35","25","35","false"
"null","null","psychophysics","433","615920","0.0-3.0-1.211","","key","null","16.566666666666666","662","363.5","","","","","","","",""
"545","arrowleft","psychophysics","434","616468","0.0-3.0-0.212","","key","arrowleft","16.6875","662","363.5","213","8","-1","26","15","25","35","true"
"null","null","psychophysics","435","617470","0.0-3.0-1.212","","key","null","16.533333333333335","662","363.5","","","","","","","",""
"558","arrowleft","psychophysics","436","618032","0.0-3.0-0.213","","key","arrowleft","16.666666666666668","662","363.5","214","8","-1","27","15","25","35","true"
"null","null","psychophysics","437","619035","0.0-3.0-1.213","","key","null","16.6","662","363.5","","","","","","","",""
"1104","arrowleft","psychophysics","438","620143","0.0-3.0-0.214","","key","arrowleft","16.661538461538463","662","363.5","215","8","1","25","15","25","35","false"
"null","null","psychophysics","439","621146","0.0-3.0-1.214","","key","null","16.416666666666668","662","363.5","","","","","","","",""
"1295.0000000001164","arrowright","psychophysics","440","622454","0.0-3.0-0.215","","key","arrowright","16.628205128205128","662","363.5","216","8","1","26","35","25","35","true"
"null","null","psychophysics","441","623457","0.0-3.0-1.215","","key","null","16.5","662","363.5","","","","","","","",""
"1092.0000000001164","arrowright","psychophysics","442","624555","0.0-3.0-0.216","","key","arrowright","16.692307692307693","662","363.5","217","8","1","25","15","25","35","true"
"null","null","psychophysics","443","625559","0.0-3.0-1.216","","key","null","16.466666666666665","662","363.5","","","","","","","",""
"738","arrowright","psychophysics","444","626300","0.0-3.0-0.217","","key","arrowright","16.65909090909091","662","363.5","218","8","1","27","15","25","35","true"
"null","null","psychophysics","445","627303","0.0-3.0-1.217","","key","null","16.583333333333332","662","363.5","","","","","","","",""
"993","arrowleft","psychophysics","446","628300","0.0-3.0-0.218","","key","arrowleft","16.661016949152543","662","363.5","219","8","-1","25","35","25","35","true"
"null","null","psychophysics","447","629301","0.0-3.0-1.218","","key","null","16.6","662","363.5","","","","","","","",""
"578","arrowleft","psychophysics","448","629883","0.0-3.0-0.219","","key","arrowleft","16.647058823529413","662","363.5","220","8","-1","30","35","25","35","true"
"null","null","psychophysics","449","630885","0.0-3.0-1.219","","key","null","16.583333333333332","662","363.5","","","","","","","",""
"917","arrowleft","psychophysics","450","631806","0.0-3.0-0.220","","key","arrowleft","16.666666666666668","662","363.5","221","8","1","20","35","25","35","false"
"null","null","psychophysics","451","632809","0.0-3.0-1.220","","key","null","16.466666666666665","662","363.5","","","","","","","",""
"1065","arrowleft","psychophysics","452","633878","0.0-3.0-0.221","","key","arrowleft","16.666666666666668","662","363.5","222","8","-1","24","15","25","35","true"
"null","null","psychophysics","453","634881","0.0-3.0-1.221","","key","null","16.416666666666668","662","363.5","","","","","","","",""
"958","arrowleft","psychophysics","454","635852","0.0-3.0-0.222","","key","arrowleft","16.620689655172413","662","363.5","223","8","-1","25","35","25","35","true"
"null","null","psychophysics","455","636855","0.0-3.0-1.222","","key","null","16.55","662","363.5","","","","","","","",""
"552","arrowleft","psychophysics","456","637412","0.0-3.0-0.223","","key","arrowleft","16.65625","662","363.5","224","9","-1","26","15","25","35","true"
"null","null","psychophysics","457","638415","0.0-3.0-1.223","","key","null","16.383333333333333","662","363.5","","","","","","","",""
"35089","arrowright","html-keyboard-response","458","673506","0.0-3.0-2.223-0.223","<div style=""color: white; text-align: center; vertical-align: top; display: inline-block; width: 800px; margin: auto""><p>You have completed 80% of the trials. You are on block 9 of 10. <br>Good job! Take a break if you need to.</p><p>Press any key to continue the experiment.</p></div>","","","","","","","","","","","","",""
"1144","arrowright","psychophysics","459","675655","0.0-3.0-0.224","","key","arrowright","16.65671641791045","662","363.5","225","9","1","30","35","25","35","true"
"null","null","psychophysics","460","676658","0.0-3.0-1.224","","key","null","16.55","662","363.5","","","","","","","",""
"657","arrowleft","psychophysics","461","677320","0.0-3.0-0.225","","key","arrowleft","16.641025641025642","662","363.5","226","9","-1","24","15","25","35","true"
"null","null","psychophysics","462","678323","0.0-3.0-1.225","","key","null","16.583333333333332","662","363.5","","","","","","","",""
"521","arrowleft","psychophysics","463","678850","0.0-3.0-0.226","","key","arrowleft","16.666666666666668","662","363.5","227","9","1","23","35","25","35","false"
"null","null","psychophysics","464","679852","0.0-3.0-1.226","","key","null","16.4","662","363.5","","","","","","","",""
"487","arrowleft","psychophysics","465","680352","0.0-3.0-0.227","","key","arrowleft","16.586206896551722","662","363.5","228","9","1","24","15","25","35","false"
"null","null","psychophysics","466","681356","0.0-3.0-1.227","","key","null","16.360655737704917","662","363.5","","","","","","","",""
"728","arrowleft","psychophysics","467","682088","0.0-3.0-0.228","","key","arrowleft","16.651162790697676","662","363.5","229","9","-1","27","15","25","35","true"
"null","null","psychophysics","468","683089","0.0-3.0-1.228","","key","null","16.6","662","363.5","","","","","","","",""
"1046","arrowleft","psychophysics","469","684139","0.0-3.0-0.229","","key","arrowleft","16.64516129032258","662","363.5","230","9","-1","26","35","25","35","true"
"null","null","psychophysics","470","685140","0.0-3.0-1.229","","key","null","16.6","662","363.5","","","","","","","",""
"630","arrowright","psychophysics","471","685774","0.0-3.0-0.230","","key","arrowright","16.64864864864865","662","363.5","231","9","1","30","15","25","35","true"
"null","null","psychophysics","472","686776","0.0-3.0-1.230","","key","null","16.55","662","363.5","","","","","","","",""
"689","arrowright","psychophysics","473","687470","0.0-3.0-0.231","","key","arrowright","16.675","662","363.5","232","9","-1","20","35","25","35","false"
"null","null","psychophysics","474","688473","0.0-3.0-1.231","","key","null","16.360655737704917","662","363.5","","","","","","","",""
"1122","arrowleft","psychophysics","475","689600","0.0-3.0-0.232","","key","arrowleft","16.666666666666668","662","363.5","233","9","1","25","35","25","35","false"
"null","null","psychophysics","476","690603","0.0-3.0-1.232","","key","null","16.4","662","363.5","","","","","","","",""
"558","arrowright","psychophysics","477","691173","0.0-3.0-0.233","","key","arrowright","16.558823529411764","662","363.5","234","9","-1","20","35","25","35","false"
"null","null","psychophysics","478","692176","0.0-3.0-1.233","","key","null","16.583333333333332","662","363.5","","","","","","","",""
"870","arrowleft","psychophysics","479","693050","0.0-3.0-0.234","","key","arrowleft","16.666666666666668","662","363.5","235","9","1","26","35","25","35","false"
"null","null","psychophysics","480","694051","0.0-3.0-1.234","","key","null","16.416666666666668","662","363.5","","","","","","","",""
"953","arrowleft","psychophysics","481","695017","0.0-3.0-0.235","","key","arrowleft","16.649122807017545","662","363.5","236","9","1","24","35","25","35","false"
"null","null","psychophysics","482","696020","0.0-3.0-1.235","","key","null","16.4","662","363.5","","","","","","","",""
"967","arrowleft","psychophysics","483","697001","0.0-3.0-0.236","","key","arrowleft","16.620689655172413","662","363.5","237","9","-1","24","15","25","35","true"
"null","null","psychophysics","484","698004","0.0-3.0-1.236","","key","null","16.4","662","363.5","","","","","","","",""
"1751","arrowleft","psychophysics","485","699767","0.0-3.0-0.237","","key","arrowleft","16.63809523809524","662","363.5","238","9","1","23","35","25","35","false"
"null","null","psychophysics","486","700770","0.0-3.0-1.237","","key","null","16.416666666666668","662","363.5","","","","","","","",""
"3751","arrowright","psychophysics","487","704535","0.0-3.0-0.238","","key","arrowright","16.653333333333332","662","363.5","239","9","1","27","15","25","35","true"
"null","null","psychophysics","488","705537","0.0-3.0-1.238","","key","null","16.416666666666668","662","363.5","","","","","","","",""
"630","arrowleft","psychophysics","489","706181","0.0-3.0-0.239","","key","arrowleft","16.57894736842105","662","363.5","240","9","-1","30","15","25","35","true"
"null","null","psychophysics","490","707184","0.0-3.0-1.239","","key","null","16.45","662","363.5","","","","","","","",""
"623.0000000001164","arrowleft","psychophysics","491","707812","0.0-3.0-0.240","","key","arrowleft","16.594594594594593","662","363.5","241","9","-1","30","15","25","35","true"
"null","null","psychophysics","492","708815","0.0-3.0-1.240","","key","null","16.466666666666665","662","363.5","","","","","","","",""
"857.0000000001164","arrowright","psychophysics","493","709677","0.0-3.0-0.241","","key","arrowright","16.666666666666668","662","363.5","242","9","1","27","35","25","35","true"
"null","null","psychophysics","494","710679","0.0-3.0-1.241","","key","null","16.516666666666666","662","363.5","","","","","","","",""
"827","arrowleft","psychophysics","495","711511","0.0-3.0-0.242","","key","arrowleft","16.653061224489797","662","363.5","243","9","1","26","35","25","35","false"
"null","null","psychophysics","496","712515","0.0-3.0-1.242","","key","null","16.5","662","363.5","","","","","","","",""
"828","arrowleft","psychophysics","497","713347","0.0-3.0-0.243","","key","arrowleft","16.6734693877551","662","363.5","244","9","1","23","15","25","35","false"
"null","null","psychophysics","498","714350","0.0-3.0-1.243","","key","null","16.466666666666665","662","363.5","","","","","","","",""
"1226","arrowright","psychophysics","499","715580","0.0-3.0-0.244","","key","arrowright","16.65753424657534","662","363.5","245","9","-1","20","15","25","35","false"
"null","null","psychophysics","500","716584","0.0-3.0-1.244","","key","null","16.45","662","363.5","","","","","","","",""
"1937","arrowright","psychophysics","501","718525","0.0-3.0-0.245","","key","arrowright","16.663793103448278","662","363.5","246","9","1","27","35","25","35","true"
"null","null","psychophysics","502","719528","0.0-3.0-1.245","","key","null","16.583333333333332","662","363.5","","","","","","","",""
"1812","arrowright","psychophysics","503","721344","0.0-3.0-0.246","","key","arrowright","16.666666666666668","662","363.5","247","9","-1","24","35","25","35","false"
"null","null","psychophysics","504","722347","0.0-3.0-1.246","","key","null","16.566666666666666","662","363.5","","","","","","","",""
"1107","arrowleft","psychophysics","505","723459","0.0-3.0-0.247","","key","arrowleft","16.651515151515152","662","363.5","248","9","1","26","35","25","35","false"
"null","null","psychophysics","506","724461","0.0-3.0-1.247","","key","null","16.583333333333332","662","363.5","","","","","","","",""
"579","arrowright","psychophysics","507","725043","0.0-3.0-0.248","","key","arrowright","16.647058823529413","662","363.5","249","9","-1","20","15","25","35","false"
"null","null","psychophysics","508","726046","0.0-3.0-1.248","","key","null","16.583333333333332","662","363.5","","","","","","","",""
"1946","arrowleft","psychophysics","509","727997","0.0-3.0-0.249","","key","arrowleft","16.663793103448278","662","363.5","250","9","1","25","35","25","35","false"
"null","null","psychophysics","510","729001","0.0-3.0-1.249","","key","null","16.5","662","363.5","","","","","","","",""
"1371","arrowright","psychophysics","511","730376","0.0-3.0-0.250","","key","arrowright","16.646341463414632","662","363.5","251","9","-1","20","35","25","35","false"
"null","null","psychophysics","512","731379","0.0-3.0-1.250","","key","null","16.583333333333332","662","363.5","","","","","","","",""
"764","arrowleft","psychophysics","513","732146","0.0-3.0-0.251","","key","arrowleft","16.644444444444446","662","363.5","252","10","1","23","15","25","35","false"
"null","null","psychophysics","514","733149","0.0-3.0-1.251","","key","null","16.516666666666666","662","363.5","","","","","","","",""
"3859","arrowright","html-keyboard-response","515","737011","0.0-3.0-2.251-0.251","<div style=""color: white; text-align: center; vertical-align: top; display: inline-block; width: 800px; margin: auto""><p>You have completed 90% of the trials. You are on block 10 of 10. <br>Good job! Take a break if you need to.</p><p>Press any key to continue the experiment.</p></div>","","","","","","","","","","","","",""
"1110","arrowleft","psychophysics","516","739128","0.0-3.0-0.252","","key","arrowleft","16.646153846153847","662","363.5","253","10","-1","25","15","25","35","true"
"null","null","psychophysics","517","740130","0.0-3.0-1.252","","key","null","16.566666666666666","662","363.5","","","","","","","",""
"1005.9999999998836","arrowright","psychophysics","518","741141","0.0-3.0-0.253","","key","arrowright","16.661016949152543","662","363.5","254","10","1","30","35","25","35","true"
"null","null","psychophysics","519","742145","0.0-3.0-1.253","","key","null","16.37704918032787","662","363.5","","","","","","","",""
"1174","arrowright","psychophysics","520","743323","0.0-3.0-0.254","","key","arrowright","16.681159420289855","662","363.5","255","10","1","27","15","25","35","true"
"null","null","psychophysics","521","744325","0.0-3.0-1.254","","key","null","16.383333333333333","662","363.5","","","","","","","",""
"1049.0000000001164","arrowleft","psychophysics","522","745390","0.0-3.0-0.255","","key","arrowleft","16.603174603174605","662","363.5","256","10","-1","25","15","25","35","true"
"null","null","psychophysics","523","746396","0.0-3.0-1.255","","key","null","16.37704918032787","662","363.5","","","","","","","",""
"864","arrowright","psychophysics","524","747265","0.0-3.0-0.256","","key","arrowright","16.647058823529413","662","363.5","257","10","1","26","15","25","35","true"
"null","null","psychophysics","525","748268","0.0-3.0-1.256","","key","null","16.516666666666666","662","363.5","","","","","","","",""
"1135","arrowright","psychophysics","526","749409","0.0-3.0-0.257","","key","arrowright","16.671641791044777","662","363.5","258","10","1","27","35","25","35","true"
"null","null","psychophysics","527","750413","0.0-3.0-1.257","","key","null","16.360655737704917","662","363.5","","","","","","","",""
"799","arrowleft","psychophysics","528","751216","0.0-3.0-0.258","","key","arrowleft","16.659574468085108","662","363.5","259","10","-1","26","15","25","35","true"
"null","null","psychophysics","529","752220","0.0-3.0-1.258","","key","null","16.466666666666665","662","363.5","","","","","","","",""
"588","arrowleft","psychophysics","530","752812","0.0-3.0-0.259","","key","arrowleft","16.62857142857143","662","363.5","260","10","-1","25","15","25","35","true"
"null","null","psychophysics","531","753815","0.0-3.0-1.259","","key","null","16.583333333333332","662","363.5","","","","","","","",""
"970","arrowright","psychophysics","532","754790","0.0-3.0-0.260","","key","arrowright","16.666666666666668","662","363.5","261","10","1","25","15","25","35","true"
"null","null","psychophysics","533","755793","0.0-3.0-1.260","","key","null","16.4","662","363.5","","","","","","","",""
"601","arrowright","psychophysics","534","756407","0.0-3.0-0.261","","key","arrowright","16.555555555555557","662","363.5","262","10","-1","20","35","25","35","false"
"null","null","psychophysics","535","757409","0.0-3.0-1.261","","key","null","16.383333333333333","662","363.5","","","","","","","",""
"709.0000000001164","arrowleft","psychophysics","536","758131","0.0-3.0-0.262","","key","arrowleft","16.58139534883721","662","363.5","263","10","1","20","15","25","35","false"
"null","null","psychophysics","537","759133","0.0-3.0-1.262","","key","null","16.55","662","363.5","","","","","","","",""
"958","arrowleft","psychophysics","538","760096","0.0-3.0-0.263","","key","arrowleft","16.649122807017545","662","363.5","264","10","1","25","35","25","35","false"
"null","null","psychophysics","539","761099","0.0-3.0-1.263","","key","null","16.583333333333332","662","363.5","","","","","","","",""
"824","arrowleft","psychophysics","540","761929","0.0-3.0-0.264","","key","arrowleft","16.653061224489797","662","363.5","265","10","-1","27","35","25","35","true"
"null","null","psychophysics","541","762932","0.0-3.0-1.264","","key","null","16.6","662","363.5","","","","","","","",""
"854","arrowleft","psychophysics","542","763790","0.0-3.0-0.265","","key","arrowleft","16.68","662","363.5","266","10","1","23","35","25","35","false"
"null","null","psychophysics","543","764793","0.0-3.0-1.265","","key","null","16.416666666666668","662","363.5","","","","","","","",""
"1002","arrowright","psychophysics","544","765807","0.0-3.0-0.266","","key","arrowright","16.633333333333333","662","363.5","267","10","-1","24","35","25","35","false"
"null","null","psychophysics","545","766810","0.0-3.0-1.266","","key","null","16.4","662","363.5","","","","","","","",""
"1006","arrowleft","psychophysics","546","767829","0.0-3.0-0.267","","key","arrowleft","16.59016393442623","662","363.5","268","10","1","25","35","25","35","false"
"null","null","psychophysics","547","768831","0.0-3.0-1.267","","key","null","16.6","662","363.5","","","","","","","",""
"1669","arrowright","psychophysics","548","770503","0.0-3.0-0.268","","key","arrowright","16.666666666666668","662","363.5","269","10","-1","23","35","25","35","false"
"null","null","psychophysics","549","771506","0.0-3.0-1.268","","key","null","16.466666666666665","662","363.5","","","","","","","",""
"1108","arrowright","psychophysics","550","772618","0.0-3.0-0.269","","key","arrowright","16.651515151515152","662","363.5","270","10","1","24","15","25","35","true"
"null","null","psychophysics","551","773622","0.0-3.0-1.269","","key","null","16.516666666666666","662","363.5","","","","","","","",""
"1255","arrowleft","psychophysics","552","774880","0.0-3.0-0.270","","key","arrowleft","16.666666666666668","662","363.5","271","10","-1","25","35","25","35","true"
"null","null","psychophysics","553","775882","0.0-3.0-1.270","","key","null","16.6","662","363.5","","","","","","","",""
"846.9999999998836","arrowright","psychophysics","554","776732","0.0-3.0-0.271","","key","arrowright","16.66","662","363.5","272","10","1","30","15","25","35","true"
"null","null","psychophysics","555","777735","0.0-3.0-1.271","","key","null","16.55","662","363.5","","","","","","","",""
"746","arrowright","psychophysics","556","778487","0.0-3.0-0.272","","key","arrowright","16.681818181818183","662","363.5","273","10","-1","20","15","25","35","false"
"null","null","psychophysics","557","779490","0.0-3.0-1.272","","key","null","16.466666666666665","662","363.5","","","","","","","",""
"674","arrowright","psychophysics","558","780167","0.0-3.0-0.273","","key","arrowright","16.65","662","363.5","274","10","1","30","35","25","35","true"
"null","null","psychophysics","559","781169","0.0-3.0-1.273","","key","null","16.55","662","363.5","","","","","","","",""
"811","arrowleft","psychophysics","560","781986","0.0-3.0-0.274","","key","arrowleft","16.645833333333332","662","363.5","275","10","1","25","35","25","35","false"
"null","null","psychophysics","561","782990","0.0-3.0-1.274","","key","null","16.466666666666665","662","363.5","","","","","","","",""
"556","arrowleft","psychophysics","562","783550","0.0-3.0-0.275","","key","arrowleft","16.696969696969695","662","363.5","276","10","-1","30","15","25","35","true"
"null","null","psychophysics","563","784553","0.0-3.0-1.275","","key","null","16.566666666666666","662","363.5","","","","","","","",""
"632","arrowright","psychophysics","564","785192","0.0-3.0-0.276","","key","arrowright","16.64864864864865","662","363.5","277","10","1","26","15","25","35","true"
"null","null","psychophysics","565","786195","0.0-3.0-1.276","","key","null","16.416666666666668","662","363.5","","","","","","","",""
"565.9999999998836","arrowleft","psychophysics","566","786774","0.0-3.0-0.277","","key","arrowleft","16.58823529411765","662","363.5","278","10","1","24","35","25","35","false"
"null","null","psychophysics","567","787777","0.0-3.0-1.277","","key","null","16.433333333333334","662","363.5","","","","","","","",""
"497.9999999998836","arrowleft","psychophysics","568","788288","0.0-3.0-0.278","","key","arrowleft","16.633333333333333","662","363.5","279","10","-1","30","35","25","35","true"
"null","null","psychophysics","569","789292","0.0-3.0-1.278","","key","null","16.45","662","363.5","","","","","","","",""
"615","arrowright","psychophysics","570","789911","0.0-3.0-0.279","","key","arrowright","16.666666666666668","662","363.5","280","11","1","26","35","25","35","true"
"null","null","psychophysics","571","790913","0.0-3.0-1.279","","key","null","16.383333333333333","662","363.5","","","","","","","",""
