"rt","response","trial_type","trial_index","time_elapsed","internal_node_id","stimulus","response_type","key_press","avg_frame_time","center_x","center_y","trial","block","test_pos","test_inner_radius","test_outer_radius","ref_inner_radius","ref_outer_radius","test_bigger"
"75762.79999999702","{""p_id"":""5678"",""age"":""19"",""handedness"":""right"",""sex"":""female"",""other_sex"":""""}","survey-html-form","0","75766","0.0-0.0","","","","","","","","","","","","","",""
"2802.5999999940395","arrowright","html-keyboard-response","1","78570","0.0-1.0","<p style=""color: white"">Welcome to the Size Judgment Experiment. <br>There will be 10 blocks in this experiment. <br>There will be 28 trials in each block. <br>You will be given a chance to take a break between blocks. <br>Press any key to start the experiment.</p>","","","","","","","","","","","","",""
"1545.4000000059605","arrowright","psychophysics","2","80131","0.0-2.0","","key","arrowright","16.664351063829717","640","288.5","","","","","","","",""
"8194.70000000298","arrowleft","psychophysics","3","88331","0.0-3.0-0.0","","key","arrowleft","16.6634949083503","640","288.5","1","1","-1","30","35","25","35","true"
"null","null","psychophysics","4","89345","0.0-3.0-1.0","","key","null","16.662881355932214","640","288.5","","","","","","","",""
"1321.6000000089407","arrowright","psychophysics","5","90672","0.0-3.0-0.1","","key","arrowright","16.661101265822772","640","288.5","2","1","-1","25","35","25","35","false"
"null","null","psychophysics","6","91675","0.0-3.0-1.1","","key","null","16.663355932203498","640","288.5","","","","","","","",""
"2059.300000011921","arrowright","psychophysics","7","93742","0.0-3.0-0.2","","key","arrowright","16.66508130081295","640","288.5","3","1","-1","25","35","25","35","false"
"null","null","psychophysics","8","94744","0.0-3.0-1.2","","key","null","16.66676666666681","640","288.5","","","","","","","",""
"1169.0999999940395","arrowleft","psychophysics","9","95918","0.0-3.0-0.3","","key","arrowleft","16.66304347826087","640","288.5","4","1","-1","23","15","25","35","true"
"null","null","psychophysics","10","96926","0.0-3.0-1.3","","key","null","16.662762711864453","640","288.5","","","","","","","",""
"972.4000000059605","arrowleft","psychophysics","11","97905","0.0-3.0-0.4","","key","arrowleft","16.665224137931013","640","288.5","5","1","-1","23","15","25","35","true"
"null","null","psychophysics","12","98910","0.0-3.0-1.4","","key","null","16.66279999999994","640","288.5","","","","","","","",""
"797.2999999970198","arrowleft","psychophysics","13","99713","0.0-3.0-0.5","","key","arrowleft","16.663425531915138","640","288.5","6","1","-1","25","15","25","35","true"
"null","null","psychophysics","14","100725","0.0-3.0-1.5","","key","null","16.66505084745783","640","288.5","","","","","","","",""
"1607","arrowleft","psychophysics","15","102339","0.0-3.0-0.6","","key","arrowleft","16.66191666666661","640","288.5","7","1","1","20","15","25","35","false"
"null","null","psychophysics","16","103341","0.0-3.0-1.6","","key","null","16.66654237288137","640","288.5","","","","","","","",""
"887","arrowright","psychophysics","17","104235","0.0-3.0-0.7","","key","arrowright","16.66241509433949","640","288.5","8","1","-1","25","35","25","35","false"
"null","null","psychophysics","18","105241","0.0-3.0-1.7","","key","null","16.663084745762763","640","288.5","","","","","","","",""
"869.3999999910593","arrowleft","psychophysics","19","106115","0.0-3.0-0.8","","key","arrowleft","16.665442307692363","640","288.5","9","1","-1","25","15","25","35","true"
"null","null","psychophysics","20","107125","0.0-3.0-1.8","","key","null","16.661283333333266","640","288.5","","","","","","","",""
"822.6000000089407","arrowleft","psychophysics","21","107951","0.0-3.0-0.9","","key","arrowleft","16.665312499999953","640","288.5","10","1","-1","30","15","25","35","true"
"null","null","psychophysics","22","108958","0.0-3.0-1.9","","key","null","16.666133333333466","640","288.5","","","","","","","",""
"1235.699999988079","arrowright","psychophysics","23","110199","0.0-3.0-0.10","","key","arrowright","16.661780821917976","640","288.5","11","1","1","25","15","25","35","true"
"null","null","psychophysics","24","111204","0.0-3.0-1.10","","key","null","16.659694915254093","640","288.5","","","","","","","",""
"806","arrowright","psychophysics","25","112013","0.0-3.0-0.11","","key","arrowright","16.668687500000186","640","288.5","12","1","1","30","35","25","35","true"
"null","null","psychophysics","26","113019","0.0-3.0-1.11","","key","null","16.66352542372883","640","288.5","","","","","","","",""
"7014.5","arrowleft","psychophysics","27","120038","0.0-3.0-0.12","","key","arrowleft","16.66348809523808","640","288.5","13","1","-1","30","35","25","35","true"
"null","null","psychophysics","28","121055","0.0-3.0-1.12","","key","null","16.665533333333347","640","288.5","","","","","","","",""
"6380.29999999702","arrowright","psychophysics","29","127442","0.0-3.0-0.13","","key","arrowright","16.662963446475178","640","288.5","14","1","1","25","35","25","35","true"
"null","null","psychophysics","30","128455","0.0-3.0-1.13","","key","null","16.6676499999999","640","288.5","","","","","","","",""
"721.3999999910593","arrowright","psychophysics","31","129180","0.0-3.0-0.14","","key","arrowright","16.66302380952402","640","288.5","15","1","1","25","15","25","35","true"
"null","null","psychophysics","32","130188","0.0-3.0-1.14","","key","null","16.66723333333333","640","288.5","","","","","","","",""
"688.4000000059605","arrowright","psychophysics","33","130881","0.0-3.0-0.15","","key","arrowright","16.658700000000316","640","288.5","16","1","-1","26","35","25","35","false"
"null","null","psychophysics","34","131885","0.0-3.0-1.15","","key","null","16.66601694915276","640","288.5","","","","","","","",""
"564.6000000089407","arrowleft","psychophysics","35","132457","0.0-3.0-0.16","","key","arrowleft","16.659264705882592","640","288.5","17","1","-1","30","35","25","35","true"
"null","null","psychophysics","36","133465","0.0-3.0-1.16","","key","null","16.66744067796636","640","288.5","","","","","","","",""
"692.9000000059605","arrowleft","psychophysics","37","134161","0.0-3.0-0.17","","key","arrowleft","16.668414634146313","640","288.5","18","1","-1","27","35","25","35","true"
"null","null","psychophysics","38","135169","0.0-3.0-1.17","","key","null","16.664915254237467","640","288.5","","","","","","","",""
"640","arrowright","psychophysics","39","135816","0.0-3.0-0.18","","key","arrowright","16.66265789473714","640","288.5","19","1","1","25","35","25","35","true"
"null","null","psychophysics","40","136820","0.0-3.0-1.18","","key","null","16.666083333333276","640","288.5","","","","","","","",""
"884.0999999940395","arrowleft","psychophysics","41","137708","0.0-3.0-0.19","","key","arrowleft","16.668365384615473","640","288.5","20","1","1","23","35","25","35","false"
"null","null","psychophysics","42","138718","0.0-3.0-1.19","","key","null","16.65976271186403","640","288.5","","","","","","","",""
"778.2999999970198","arrowleft","psychophysics","43","139503","0.0-3.0-0.20","","key","arrowleft","16.658723404255763","640","288.5","21","1","1","24","35","25","35","false"
"null","null","psychophysics","44","140511","0.0-3.0-1.20","","key","null","16.664457627118296","640","288.5","","","","","","","",""
"614.2999999970198","arrowright","psychophysics","45","141128","0.0-3.0-0.21","","key","arrowright","16.669777777777604","640","288.5","22","1","1","24","15","25","35","true"
"null","null","psychophysics","46","142134","0.0-3.0-1.21","","key","null","16.66588135593239","640","288.5","","","","","","","",""
"466.8999999910593","arrowleft","psychophysics","47","142608","0.0-3.0-0.22","","key","arrowleft","16.656392857143405","640","288.5","23","1","-1","30","35","25","35","true"
"null","null","psychophysics","48","143617","0.0-3.0-1.22","","key","null","16.663949152542045","640","288.5","","","","","","","",""
"626.6999999880791","arrowleft","psychophysics","49","144248","0.0-3.0-0.23","","key","arrowleft","16.667432432432623","640","288.5","24","1","-1","23","15","25","35","true"
"null","null","psychophysics","50","145250","0.0-3.0-1.23","","key","null","16.665728813559173","640","288.5","","","","","","","",""
"972.7000000029802","arrowright","psychophysics","51","146229","0.0-3.0-0.24","","key","arrowright","16.665068965517126","640","288.5","25","1","1","24","35","25","35","true"
"null","null","psychophysics","52","147233","0.0-3.0-1.24","","key","null","16.658898305084747","640","288.5","","","","","","","",""
"545.2000000029802","arrowleft","psychophysics","53","147785","0.0-3.0-0.25","","key","arrowleft","16.66851515151564","640","288.5","26","1","1","23","35","25","35","false"
"null","null","psychophysics","54","148800","0.0-3.0-1.25","","key","null","16.665101694914913","640","288.5","","","","","","","",""
"542.6000000089407","arrowright","psychophysics","55","149349","0.0-3.0-0.26","","key","arrowright","16.66962499999954","640","288.5","27","1","-1","24","35","25","35","false"
"null","null","psychophysics","56","150351","0.0-3.0-1.26","","key","null","16.666383333333457","640","288.5","","","","","","","",""
"482.29999999701977","arrowright","psychophysics","57","150837","0.0-3.0-0.27","","key","arrowright","16.668678571428504","640","288.5","28","2","-1","20","15","25","35","false"
"null","null","psychophysics","58","151850","0.0-3.0-1.27","","key","null","16.665866666666503","640","288.5","","","","","","","",""
"94378.30000001192","arrowright","html-keyboard-response","59","246235","0.0-3.0-2.27-0.27","<div style=""color: white; text-align: center; vertical-align: top; display: inline-block; width: 800px; margin: auto""><p>You have completed 10% of the trials. You are on block 2 of 10. <br>Good job! Take a break if you need to.</p><p>Press any key to continue the experiment.</p></div>","","","","","","","","","","","","",""
"42.29999999701977","arrowright","psychophysics","60","247293","0.0-3.0-0.28","","key","arrowright","16.641499999997905","640","288.5","29","2","-1","20","35","25","35","false"
"null","null","psychophysics","61","248297","0.0-3.0-1.28","","key","null","16.666533333333305","640","288.5","","","","","","","",""
"577","arrowright","psychophysics","62","248878","0.0-3.0-0.29","","key","arrowright","16.662939393938746","640","288.5","30","2","-1","23","35","25","35","false"
"null","null","psychophysics","63","249880","0.0-3.0-1.29","","key","null","16.66478333333313","640","288.5","","","","","","","",""
"448.70000000298023","arrowright","psychophysics","64","250333","0.0-3.0-0.30","","key","arrowright","16.66199999999998","640","288.5","31","2","-1","20","35","25","35","false"
"null","null","psychophysics","65","251346","0.0-3.0-1.30","","key","null","16.664783333333617","640","288.5","","","","","","","",""
"455.40000000596046","arrowleft","psychophysics","66","251807","0.0-3.0-0.31","","key","arrowleft","16.660461538461206","640","288.5","32","2","1","24","35","25","35","false"
"null","null","psychophysics","67","252813","0.0-3.0-1.31","","key","null","16.66396666666648","640","288.5","","","","","","","",""
"534.7999999970198","arrowright","psychophysics","68","253352","0.0-3.0-0.32","","key","arrowright","16.666290322580608","640","288.5","33","2","1","30","15","25","35","true"
"null","null","psychophysics","69","254361","0.0-3.0-1.32","","key","null","16.66494915254268","640","288.5","","","","","","","",""
"530.3999999910593","arrowleft","psychophysics","70","254897","0.0-3.0-0.33","","key","arrowleft","16.66578124999978","640","288.5","34","2","1","26","35","25","35","false"
"null","null","psychophysics","71","255912","0.0-3.0-1.33","","key","null","16.665850000000017","640","288.5","","","","","","","",""
"521.7999999970198","arrowright","psychophysics","72","256441","0.0-3.0-0.34","","key","arrowright","16.663266666666217","640","288.5","35","2","-1","20","35","25","35","false"
"null","null","psychophysics","73","257444","0.0-3.0-1.34","","key","null","16.665830508474325","640","288.5","","","","","","","",""
"728.9000000059605","arrowleft","psychophysics","74","258179","0.0-3.0-0.35","","key","arrowleft","16.659022727272795","640","288.5","36","2","1","20","15","25","35","false"
"null","null","psychophysics","75","259195","0.0-3.0-1.35","","key","null","16.665600000000268","640","288.5","","","","","","","",""
"548.2999999970198","arrowleft","psychophysics","76","259748","0.0-3.0-0.36","","key","arrowleft","16.664875000000393","640","288.5","37","2","1","20","35","25","35","false"
"null","null","psychophysics","77","260761","0.0-3.0-1.36","","key","null","16.664350000000073","640","288.5","","","","","","","",""
"728.3999999910593","arrowright","psychophysics","78","261499","0.0-3.0-0.37","","key","arrowright","16.660837209302265","640","288.5","38","2","1","25","15","25","35","true"
"null","null","psychophysics","79","262510","0.0-3.0-1.37","","key","null","16.661783333332764","640","288.5","","","","","","","",""
"514.2999999970198","arrowright","psychophysics","80","263028","0.0-3.0-0.38","","key","arrowright","16.66333333333217","640","288.5","39","2","-1","23","35","25","35","false"
"null","null","psychophysics","81","264043","0.0-3.0-1.38","","key","null","16.66479661016946","640","288.5","","","","","","","",""
"414.8999999910593","arrowright","psychophysics","82","264463","0.0-3.0-0.39","","key","arrowright","16.663799999998883","640","288.5","40","2","-1","23","35","25","35","false"
"null","null","psychophysics","83","265477","0.0-3.0-1.39","","key","null","16.66635000000048","640","288.5","","","","","","","",""
"562","arrowright","psychophysics","84","266044","0.0-3.0-0.40","","key","arrowright","16.657363636364497","640","288.5","41","2","1","25","35","25","35","true"
"null","null","psychophysics","85","267060","0.0-3.0-1.40","","key","null","16.662566666666923","640","288.5","","","","","","","",""
"556","arrowleft","psychophysics","86","267621","0.0-3.0-0.41","","key","arrowleft","16.654687500000364","640","288.5","42","2","1","20","15","25","35","false"
"null","null","psychophysics","87","268625","0.0-3.0-1.41","","key","null","16.6689322033899","640","288.5","","","","","","","",""
"589.2000000029802","arrowright","psychophysics","88","269218","0.0-3.0-0.42","","key","arrowright","16.66360000000069","640","288.5","43","2","1","24","35","25","35","true"
"null","null","psychophysics","89","270225","0.0-3.0-1.42","","key","null","16.661474576271218","640","288.5","","","","","","","",""
"484.5","arrowright","psychophysics","90","270715","0.0-3.0-0.43","","key","arrowright","16.663275862068485","640","288.5","44","2","1","30","15","25","35","true"
"null","null","psychophysics","91","271723","0.0-3.0-1.43","","key","null","16.659135593220757","640","288.5","","","","","","","",""
"451.40000000596046","arrowright","psychophysics","92","272178","0.0-3.0-0.44","","key","arrowright","16.66907407407416","640","288.5","45","2","1","30","15","25","35","true"
"null","null","psychophysics","93","273191","0.0-3.0-1.44","","key","null","16.66405084745769","640","288.5","","","","","","","",""
"773.4000000059605","arrowright","psychophysics","94","273969","0.0-3.0-0.45","","key","arrowright","16.664543478261255","640","288.5","46","2","-1","20","15","25","35","false"
"null","null","psychophysics","95","274974","0.0-3.0-1.45","","key","null","16.663406779661074","640","288.5","","","","","","","",""
"418","arrowright","psychophysics","96","275398","0.0-3.0-0.46","","key","arrowright","16.663640000000598","640","288.5","47","2","1","27","35","25","35","true"
"null","null","psychophysics","97","276407","0.0-3.0-1.46","","key","null","16.663745762711248","640","288.5","","","","","","","",""
"385.20000000298023","arrowright","psychophysics","98","276797","0.0-3.0-0.47","","key","arrowright","16.66099999999911","640","288.5","48","2","1","26","35","25","35","true"
"null","null","psychophysics","99","277805","0.0-3.0-1.47","","key","null","16.6593220338987","640","288.5","","","","","","","",""
"520.9000000059605","arrowright","psychophysics","100","278329","0.0-3.0-0.48","","key","arrowright","16.670645161289645","640","288.5","49","2","1","26","15","25","35","true"
"null","null","psychophysics","101","279338","0.0-3.0-1.48","","key","null","16.664237288135634","640","288.5","","","","","","","",""
"529.3999999910593","arrowleft","psychophysics","102","279873","0.0-3.0-0.49","","key","arrowleft","16.670193548385626","640","288.5","50","2","1","20","35","25","35","false"
"null","null","psychophysics","103","280875","0.0-3.0-1.49","","key","null","16.666483333333357","640","288.5","","","","","","","",""
"600.7000000029802","arrowleft","psychophysics","104","281480","0.0-3.0-0.50","","key","arrowleft","16.662657142857956","640","288.5","51","2","-1","26","35","25","35","true"
"null","null","psychophysics","105","282486","0.0-3.0-1.50","","key","null","16.66269491525501","640","288.5","","","","","","","",""
"528.2999999970198","arrowright","psychophysics","106","283018","0.0-3.0-0.51","","key","arrowright","16.671032258065328","640","288.5","52","2","1","25","15","25","35","true"
"null","null","psychophysics","107","284024","0.0-3.0-1.51","","key","null","16.66635000000048","640","288.5","","","","","","","",""
"469.70000000298023","arrowright","psychophysics","108","284498","0.0-3.0-0.52","","key","arrowright","16.660148148148977","640","288.5","53","2","1","30","15","25","35","true"
"null","null","psychophysics","109","285507","0.0-3.0-1.52","","key","null","16.66150000000004","640","288.5","","","","","","","",""
"562.1000000089407","arrowleft","psychophysics","110","286073","0.0-3.0-0.53","","key","arrowleft","16.66303030302868","640","288.5","54","2","-1","24","15","25","35","true"
"null","null","psychophysics","111","287086","0.0-3.0-1.53","","key","null","16.66247457627136","640","288.5","","","","","","","",""
"588.7000000029802","arrowright","psychophysics","112","287678","0.0-3.0-0.54","","key","arrowright","16.67165714285802","640","288.5","55","2","1","25","15","25","35","true"
"null","null","psychophysics","113","288688","0.0-3.0-1.54","","key","null","16.659559322033726","640","288.5","","","","","","","",""
"390.19999998807907","arrowright","psychophysics","114","289084","0.0-3.0-0.55","","key","arrowright","16.662347826086815","640","288.5","56","3","1","27","35","25","35","true"
"null","null","psychophysics","115","290089","0.0-3.0-1.55","","key","null","16.66076666666583","640","288.5","","","","","","","",""
"712.0999999940395","arrowright","html-keyboard-response","116","290803","0.0-3.0-2.55-0.55","<div style=""color: white; text-align: center; vertical-align: top; display: inline-block; width: 800px; margin: auto""><p>You have completed 20% of the trials. You are on block 3 of 10. <br>Good job! Take a break if you need to.</p><p>Press any key to continue the experiment.</p></div>","","","","","","","","","","","","",""
"697.5","arrowright","psychophysics","117","292518","0.0-3.0-0.56","","key","arrowright","16.65795238095147","640","288.5","57","3","-1","25","35","25","35","false"
"null","null","psychophysics","118","293520","0.0-3.0-1.56","","key","null","16.664898305084613","640","288.5","","","","","","","",""
"451.29999999701977","arrowleft","psychophysics","119","293978","0.0-3.0-0.57","","key","arrowleft","16.66529629629588","640","288.5","58","3","1","24","15","25","35","false"
"null","null","psychophysics","120","294987","0.0-3.0-1.57","","key","null","16.665491525424148","640","288.5","","","","","","","",""
"417.90000000596046","arrowright","psychophysics","121","295412","0.0-3.0-0.58","","key","arrowright","16.664599999999627","640","288.5","59","3","1","26","35","25","35","true"
"null","null","psychophysics","122","296420","0.0-3.0-1.58","","key","null","16.666016949152265","640","288.5","","","","","","","",""
"440.70000000298023","arrowright","psychophysics","123","296867","0.0-3.0-0.59","","key","arrowright","16.670076923075474","640","288.5","60","3","1","24","15","25","35","true"
"null","null","psychophysics","124","297870","0.0-3.0-1.59","","key","null","16.66353333333294","640","288.5","","","","","","","",""
"502.90000000596046","arrowright","psychophysics","125","298378","0.0-3.0-0.60","","key","arrowright","16.659827586207218","640","288.5","61","3","1","24","15","25","35","true"
"null","null","psychophysics","126","299386","0.0-3.0-1.60","","key","null","16.66391525423683","640","288.5","","","","","","","",""
"404.8999999910593","arrowright","psychophysics","127","299798","0.0-3.0-0.61","","key","arrowright","16.664541666665173","640","288.5","62","3","-1","24","35","25","35","false"
"null","null","psychophysics","128","300802","0.0-3.0-1.61","","key","null","16.663576271186653","640","288.5","","","","","","","",""
"528.7000000029802","arrowleft","psychophysics","129","301337","0.0-3.0-0.62","","key","arrowleft","16.66253125000003","640","288.5","63","3","-1","27","35","25","35","true"
"null","null","psychophysics","130","302350","0.0-3.0-1.62","","key","null","16.663813559321678","640","288.5","","","","","","","",""
"507.6000000089407","arrowright","psychophysics","131","302861","0.0-3.0-0.63","","key","arrowright","16.66296666666749","640","288.5","64","3","-1","26","35","25","35","false"
"null","null","psychophysics","132","303868","0.0-3.0-1.63","","key","null","16.666033898305614","640","288.5","","","","","","","",""
"432.5","arrowright","psychophysics","133","304307","0.0-3.0-0.64","","key","arrowright","16.66388461538456","640","288.5","65","3","-1","24","35","25","35","false"
"null","null","psychophysics","134","305318","0.0-3.0-1.64","","key","null","16.665152542372983","640","288.5","","","","","","","",""
"551.5999999940395","arrowleft","psychophysics","135","305876","0.0-3.0-0.65","","key","arrowleft","16.664757575756855","640","288.5","66","3","-1","24","15","25","35","true"
"null","null","psychophysics","136","306885","0.0-3.0-1.65","","key","null","16.667133333333187","640","288.5","","","","","","","",""
"401.79999999701977","arrowright","psychophysics","137","307291","0.0-3.0-0.66","","key","arrowright","16.66486956521808","640","288.5","67","3","-1","20","15","25","35","false"
"null","null","psychophysics","138","308301","0.0-3.0-1.66","","key","null","16.661542372881648","640","288.5","","","","","","","",""
"684.2999999970198","arrowleft","psychophysics","139","308992","0.0-3.0-0.67","","key","arrowleft","16.663024390244107","640","288.5","68","3","1","24","35","25","35","false"
"null","null","psychophysics","140","310002","0.0-3.0-1.67","","key","null","16.668583333333178","640","288.5","","","","","","","",""
"526.2999999970198","arrowleft","psychophysics","141","310533","0.0-3.0-0.68","","key","arrowleft","16.664033333334373","640","288.5","69","3","-1","27","15","25","35","true"
"null","null","psychophysics","142","311535","0.0-3.0-1.68","","key","null","16.666816666667","640","288.5","","","","","","","",""
"773","arrowleft","psychophysics","143","312313","0.0-3.0-0.69","","key","arrowleft","16.660044444444228","640","288.5","70","3","1","25","35","25","35","false"
"null","null","psychophysics","144","313318","0.0-3.0-1.69","","key","null","16.664933333333465","640","288.5","","","","","","","",""
"505.5","arrowright","psychophysics","145","313827","0.0-3.0-0.70","","key","arrowright","16.657241379310264","640","288.5","71","3","1","30","35","25","35","true"
"null","null","psychophysics","146","314833","0.0-3.0-1.70","","key","null","16.662694915254026","640","288.5","","","","","","","",""
"574","arrowleft","psychophysics","147","315414","0.0-3.0-0.71","","key","arrowleft","16.658294117646566","640","288.5","72","3","-1","25","15","25","35","true"
"null","null","psychophysics","148","316431","0.0-3.0-1.71","","key","null","16.666766666666565","640","288.5","","","","","","","",""
"523.0999999940395","arrowright","psychophysics","149","316958","0.0-3.0-0.72","","key","arrowright","16.662709677419176","640","288.5","73","3","1","30","15","25","35","true"
"null","null","psychophysics","150","317966","0.0-3.0-1.72","","key","null","16.662999999999478","640","288.5","","","","","","","",""
"484.79999999701977","arrowright","psychophysics","151","318458","0.0-3.0-0.73","","key","arrowright","16.6679999999991","640","288.5","74","3","-1","20","35","25","35","false"
"null","null","psychophysics","152","319466","0.0-3.0-1.73","","key","null","16.65993220338961","640","288.5","","","","","","","",""
"541.0999999940395","arrowright","psychophysics","153","320013","0.0-3.0-0.74","","key","arrowright","16.664749999999913","640","288.5","75","3","1","27","35","25","35","true"
"null","null","psychophysics","154","321015","0.0-3.0-1.74","","key","null","16.663389830508713","640","288.5","","","","","","","",""
"475.80000001192093","arrowright","psychophysics","155","321498","0.0-3.0-0.75","","key","arrowright","16.662107142856776","640","288.5","76","3","1","30","15","25","35","true"
"null","null","psychophysics","156","322516","0.0-3.0-1.75","","key","null","16.666344262295038","640","288.5","","","","","","","",""
"552.6000000089407","arrowleft","psychophysics","157","323073","0.0-3.0-0.76","","key","arrowleft","16.66649999999936","640","288.5","77","3","-1","24","15","25","35","true"
"null","null","psychophysics","158","324081","0.0-3.0-1.76","","key","null","16.661932203389895","640","288.5","","","","","","","",""
"599.9000000059605","arrowleft","psychophysics","159","324688","0.0-3.0-0.77","","key","arrowleft","16.661805555554263","640","288.5","78","3","1","25","35","25","35","false"
"null","null","psychophysics","160","325698","0.0-3.0-1.77","","key","null","16.6655932203393","640","288.5","","","","","","","",""
"619.5999999940395","arrowleft","psychophysics","161","326324","0.0-3.0-0.78","","key","arrowleft","16.65810810810905","640","288.5","79","3","1","24","15","25","35","false"
"null","null","psychophysics","162","327332","0.0-3.0-1.78","","key","null","16.665650000000216","640","288.5","","","","","","","",""
"617.5","arrowleft","psychophysics","163","327954","0.0-3.0-0.79","","key","arrowleft","16.66941666666632","640","288.5","80","3","1","26","35","25","35","false"
"null","null","psychophysics","164","328965","0.0-3.0-1.79","","key","null","16.66211666666592","640","288.5","","","","","","","",""
"545.9000000059605","arrowleft","psychophysics","165","329515","0.0-3.0-0.80","","key","arrowleft","16.65900000000147","640","288.5","81","3","-1","26","15","25","35","true"
"null","null","psychophysics","166","330529","0.0-3.0-1.80","","key","null","16.660932203389752","640","288.5","","","","","","","",""
"629.4000000059605","arrowright","psychophysics","167","331165","0.0-3.0-0.81","","key","arrowright","16.662631578947185","640","288.5","82","3","-1","20","35","25","35","false"
"null","null","psychophysics","168","332180","0.0-3.0-1.81","","key","null","16.665186440678692","640","288.5","","","","","","","",""
"668.7999999970198","arrowleft","psychophysics","169","332855","0.0-3.0-0.82","","key","arrowleft","16.663124999999127","640","288.5","83","3","1","23","35","25","35","false"
"null","null","psychophysics","170","333864","0.0-3.0-1.82","","key","null","16.66304999999993","640","288.5","","","","","","","",""
"436.29999999701977","arrowleft","psychophysics","171","334305","0.0-3.0-0.83","","key","arrowleft","16.667120000000576","640","288.5","84","4","1","20","15","25","35","false"
"null","null","psychophysics","172","335308","0.0-3.0-1.83","","key","null","16.66474576271238","640","288.5","","","","","","","",""
"844.2999999970198","arrowleft","html-keyboard-response","173","336153","0.0-3.0-2.83-0.83","<div style=""color: white; text-align: center; vertical-align: top; display: inline-block; width: 800px; margin: auto""><p>You have completed 30% of the trials. You are on block 4 of 10. <br>Good job! Take a break if you need to.</p><p>Press any key to continue the experiment.</p></div>","","","","","","","","","","","","",""
"795.5","arrowleft","psychophysics","174","337959","0.0-3.0-0.84","","key","arrowleft","16.663854166667686","640","288.5","85","4","1","26","35","25","35","false"
"null","null","psychophysics","175","338962","0.0-3.0-1.84","","key","null","16.666779661017383","640","288.5","","","","","","","",""
"429.1000000089407","arrowleft","psychophysics","176","339397","0.0-3.0-0.85","","key","arrowleft","16.665576923076653","640","288.5","86","4","1","24","15","25","35","false"
"null","null","psychophysics","177","340413","0.0-3.0-1.85","","key","null","16.664366666666076","640","288.5","","","","","","","",""
"572.7999999970198","arrowright","psychophysics","178","340991","0.0-3.0-0.86","","key","arrowright","16.66696969696998","640","288.5","87","4","1","27","35","25","35","true"
"null","null","psychophysics","179","341995","0.0-3.0-1.86","","key","null","16.66533898304994","640","288.5","","","","","","","",""
"771.6000000089407","arrowright","psychophysics","180","342772","0.0-3.0-0.87","","key","arrowright","16.66369565217452","640","288.5","88","4","1","23","15","25","35","true"
"null","null","psychophysics","181","343777","0.0-3.0-1.87","","key","null","16.665898305084752","640","288.5","","","","","","","",""
"519.0999999940395","arrowleft","psychophysics","182","344303","0.0-3.0-0.88","","key","arrowleft","16.66703225806498","640","288.5","89","4","1","23","15","25","35","false"
"null","null","psychophysics","183","345311","0.0-3.0-1.88","","key","null","16.666288135593","640","288.5","","","","","","","",""
"590.3999999910593","arrowright","psychophysics","184","345907","0.0-3.0-0.89","","key","arrowright","16.66259999999976","640","288.5","90","4","1","27","35","25","35","true"
"null","null","psychophysics","185","346910","0.0-3.0-1.89","","key","null","16.66627118644064","640","288.5","","","","","","","",""
"456.09999999403954","arrowleft","psychophysics","186","347373","0.0-3.0-0.90","","key","arrowleft","16.668629629630164","640","288.5","91","4","1","20","35","25","35","false"
"null","null","psychophysics","187","348377","0.0-3.0-1.90","","key","null","16.660661016949017","640","288.5","","","","","","","",""
"479.5","arrowright","psychophysics","188","348862","0.0-3.0-0.91","","key","arrowright","16.65624137930893","640","288.5","92","4","-1","20","15","25","35","false"
"null","null","psychophysics","189","349876","0.0-3.0-1.91","","key","null","16.664881355932252","640","288.5","","","","","","","",""
"474.5","arrowright","psychophysics","190","350357","0.0-3.0-0.92","","key","arrowright","16.663642857142673","640","288.5","93","4","1","30","15","25","35","true"
"null","null","psychophysics","191","351360","0.0-3.0-1.92","","key","null","16.664100000000325","640","288.5","","","","","","","",""
"472.29999999701977","arrowleft","psychophysics","192","351837","0.0-3.0-0.93","","key","arrowleft","16.658629629629473","640","288.5","94","4","1","25","35","25","35","false"
"null","null","psychophysics","193","352844","0.0-3.0-1.93","","key","null","16.664383333332566","640","288.5","","","","","","","",""
"539.9000000059605","arrowleft","psychophysics","194","353387","0.0-3.0-0.94","","key","arrowleft","16.66348387096678","640","288.5","95","4","-1","26","15","25","35","true"
"null","null","psychophysics","195","354392","0.0-3.0-1.94","","key","null","16.663694915254165","640","288.5","","","","","","","",""
"680.5999999940395","arrowright","psychophysics","196","355079","0.0-3.0-0.95","","key","arrowright","16.661268292683484","640","288.5","96","4","1","25","15","25","35","true"
"null","null","psychophysics","197","356089","0.0-3.0-1.95","","key","null","16.664169491525204","640","288.5","","","","","","","",""
"550.8999999910593","arrowleft","psychophysics","198","356643","0.0-3.0-0.96","","key","arrowleft","16.667969696969852","640","288.5","97","4","-1","26","15","25","35","true"
"null","null","psychophysics","199","357651","0.0-3.0-1.96","","key","null","16.664440677966923","640","288.5","","","","","","","",""
"519.1000000089407","arrowleft","psychophysics","200","358173","0.0-3.0-0.97","","key","arrowleft","16.660333333333256","640","288.5","98","4","-1","30","35","25","35","true"
"null","null","psychophysics","201","359174","0.0-3.0-1.97","","key","null","16.667271186440782","640","288.5","","","","","","","",""
"497.8999999910593","arrowleft","psychophysics","202","359679","0.0-3.0-0.98","","key","arrowleft","16.6606666666669","640","288.5","99","4","1","20","15","25","35","false"
"null","null","psychophysics","203","360686","0.0-3.0-1.98","","key","null","16.66240677966093","640","288.5","","","","","","","",""
"578.8999999910593","arrowright","psychophysics","204","361268","0.0-3.0-0.99","","key","arrowright","16.664470588235417","640","288.5","100","4","1","25","15","25","35","true"
"null","null","psychophysics","205","362275","0.0-3.0-1.99","","key","null","16.667266666666062","640","288.5","","","","","","","",""
"651.0999999940395","arrowleft","psychophysics","206","362930","0.0-3.0-0.100","","key","arrowleft","16.664210526315543","640","288.5","101","4","-1","23","15","25","35","true"
"null","null","psychophysics","207","363940","0.0-3.0-1.100","","key","null","16.663627118643735","640","288.5","","","","","","","",""
"558.0999999940395","arrowleft","psychophysics","208","364505","0.0-3.0-0.101","","key","arrowleft","16.664939393940255","640","288.5","102","4","1","25","35","25","35","false"
"null","null","psychophysics","209","365507","0.0-3.0-1.101","","key","null","16.663372881356352","640","288.5","","","","","","","",""
"622.4000000059605","arrowright","psychophysics","210","366135","0.0-3.0-0.102","","key","arrowright","16.656405405404133","640","288.5","103","4","-1","26","35","25","35","false"
"null","null","psychophysics","211","367140","0.0-3.0-1.102","","key","null","16.66555932203359","640","288.5","","","","","","","",""
"533.3000000119209","arrowleft","psychophysics","212","367680","0.0-3.0-0.103","","key","arrowleft","16.67065625000032","640","288.5","104","4","-1","26","15","25","35","true"
"null","null","psychophysics","213","368691","0.0-3.0-1.103","","key","null","16.66141666666663","640","288.5","","","","","","","",""
"560","arrowleft","psychophysics","214","369255","0.0-3.0-0.104","","key","arrowleft","16.656406250000146","640","288.5","105","4","-1","24","15","25","35","true"
"null","null","psychophysics","215","370257","0.0-3.0-1.104","","key","null","16.6634500000005","640","288.5","","","","","","","",""
"734.2999999970198","arrowleft","psychophysics","216","370996","0.0-3.0-0.105","","key","arrowleft","16.66041860465085","640","288.5","106","4","-1","25","35","25","35","true"
"null","null","psychophysics","217","372007","0.0-3.0-1.105","","key","null","16.66434999999959","640","288.5","","","","","","","",""
"595.8999999910593","arrowright","psychophysics","218","372607","0.0-3.0-0.106","","key","arrowright","16.66105714285846","640","288.5","107","4","1","26","15","25","35","true"
"null","null","psychophysics","219","373622","0.0-3.0-1.106","","key","null","16.665101694914913","640","288.5","","","","","","","",""
"553.3999999910593","arrowleft","psychophysics","220","374181","0.0-3.0-0.107","","key","arrowleft","16.663787878788725","640","288.5","108","4","-1","26","15","25","35","true"
"null","null","psychophysics","221","375188","0.0-3.0-1.107","","key","null","16.662016949152683","640","288.5","","","","","","","",""
"436.20000000298023","arrowleft","psychophysics","222","375631","0.0-3.0-0.108","","key","arrowleft","16.665423076922217","640","288.5","109","4","1","20","35","25","35","false"
"null","null","psychophysics","223","376638","0.0-3.0-1.108","","key","null","16.6646610169486","640","288.5","","","","","","","",""
"593","arrowleft","psychophysics","224","377238","0.0-3.0-0.109","","key","arrowleft","16.659542857143762","640","288.5","110","4","-1","27","35","25","35","true"
"null","null","psychophysics","225","378255","0.0-3.0-1.109","","key","null","16.66625000000058","640","288.5","","","","","","","",""
"373.09999999403954","arrowright","psychophysics","226","378633","0.0-3.0-0.110","","key","arrowright","16.661500000000657","640","288.5","111","4","-1","20","15","25","35","false"
"null","null","psychophysics","227","379639","0.0-3.0-1.110","","key","null","16.663000000000466","640","288.5","","","","","","","",""
"423.40000000596046","arrowleft","psychophysics","228","380066","0.0-3.0-0.111","","key","arrowleft","16.662333333333663","640","288.5","112","5","1","23","15","25","35","false"
"null","null","psychophysics","229","381071","0.0-3.0-1.111","","key","null","16.66247457627136","640","288.5","","","","","","","",""
"3157.800000011921","arrowright","html-keyboard-response","230","384230","0.0-3.0-2.111-0.111","<div style=""color: white; text-align: center; vertical-align: top; display: inline-block; width: 800px; margin: auto""><p>You have completed 40% of the trials. You are on block 5 of 10. <br>Good job! Take a break if you need to.</p><p>Press any key to continue the experiment.</p></div>","","","","","","","","","","","","",""
"670.9000000059605","arrowright","psychophysics","231","385915","0.0-3.0-0.112","","key","arrowright","16.663900000001014","640","288.5","113","5","1","23","35","25","35","true"
"null","null","psychophysics","232","386921","0.0-3.0-1.112","","key","null","16.66351666666742","640","288.5","","","","","","","",""
"480.70000000298023","arrowleft","psychophysics","233","387405","0.0-3.0-0.113","","key","arrowleft","16.65985714285801","640","288.5","114","5","1","20","35","25","35","false"
"null","null","psychophysics","234","388415","0.0-3.0-1.113","","key","null","16.6623389830505","640","288.5","","","","","","","",""
"491.70000000298023","arrowleft","psychophysics","235","388910","0.0-3.0-0.114","","key","arrowleft","16.67003448275801","640","288.5","115","5","1","25","35","25","35","false"
"null","null","psychophysics","236","389919","0.0-3.0-1.114","","key","null","16.661745762710964","640","288.5","","","","","","","",""
"646.2000000029802","arrowright","psychophysics","237","390570","0.0-3.0-0.115","","key","arrowright","16.66523076922973","640","288.5","116","5","1","27","35","25","35","true"
"null","null","psychophysics","238","391580","0.0-3.0-1.115","","key","null","16.663016949152826","640","288.5","","","","","","","",""
"502.8999999910593","arrowleft","psychophysics","239","392086","0.0-3.0-0.116","","key","arrowleft","16.65496666666586","640","288.5","117","5","1","23","35","25","35","false"
"null","null","psychophysics","240","393100","0.0-3.0-1.116","","key","null","16.663372881355365","640","288.5","","","","","","","",""
"564.7999999970198","arrowright","psychophysics","241","393671","0.0-3.0-0.117","","key","arrowright","16.671264705883324","640","288.5","118","5","1","26","15","25","35","true"
"null","null","psychophysics","242","394677","0.0-3.0-1.117","","key","null","16.66330508474592","640","288.5","","","","","","","",""
"501.09999999403954","arrowleft","psychophysics","243","395181","0.0-3.0-0.118","","key","arrowleft","16.664689655172847","640","288.5","119","5","1","24","35","25","35","false"
"null","null","psychophysics","244","396184","0.0-3.0-1.118","","key","null","16.662033898305044","640","288.5","","","","","","","",""
"531.1000000089407","arrowleft","psychophysics","245","396721","0.0-3.0-0.119","","key","arrowleft","16.66271874999984","640","288.5","120","5","1","20","35","25","35","false"
"null","null","psychophysics","246","397725","0.0-3.0-1.119","","key","null","16.667661016949026","640","288.5","","","","","","","",""
"503.40000000596046","arrowright","psychophysics","247","398231","0.0-3.0-0.120","","key","arrowright","16.665379310343898","640","288.5","121","5","-1","23","35","25","35","false"
"null","null","psychophysics","248","399235","0.0-3.0-1.120","","key","null","16.666616666667203","640","288.5","","","","","","","",""
"533.6000000089407","arrowleft","psychophysics","249","399773","0.0-3.0-0.121","","key","arrowleft","16.66032258064426","640","288.5","122","5","-1","26","15","25","35","true"
"null","null","psychophysics","250","400783","0.0-3.0-1.121","","key","null","16.661220338982847","640","288.5","","","","","","","",""
"463.1000000089407","arrowleft","psychophysics","251","401251","0.0-3.0-0.122","","key","arrowleft","16.661392857143905","640","288.5","123","5","-1","30","15","25","35","true"
"null","null","psychophysics","252","402267","0.0-3.0-1.122","","key","null","16.659966666666637","640","288.5","","","","","","","",""
"463.59999999403954","arrowright","psychophysics","253","402736","0.0-3.0-0.123","","key","arrowright","16.664148148147095","640","288.5","124","5","-1","23","15","25","35","false"
"null","null","psychophysics","254","403750","0.0-3.0-1.123","","key","null","16.663300000000163","640","288.5","","","","","","","",""
"473","arrowleft","psychophysics","255","404226","0.0-3.0-0.124","","key","arrowleft","16.66822222222281","640","288.5","125","5","-1","25","15","25","35","true"
"null","null","psychophysics","256","405233","0.0-3.0-1.124","","key","null","16.6616440677968","640","288.5","","","","","","","",""
"468.40000000596046","arrowleft","psychophysics","257","405706","0.0-3.0-0.125","","key","arrowleft","16.66767857142882","640","288.5","126","5","-1","25","15","25","35","true"
"null","null","psychophysics","258","406716","0.0-3.0-1.125","","key","null","16.666135593219778","640","288.5","","","","","","","",""
"414.5","arrowleft","psychophysics","259","407136","0.0-3.0-0.126","","key","arrowleft","16.656359999999403","640","288.5","127","5","-1","30","15","25","35","true"
"null","null","psychophysics","260","408146","0.0-3.0-1.126","","key","null","16.662152542373544","640","288.5","","","","","","","",""
"496.40000000596046","arrowright","psychophysics","261","408646","0.0-3.0-0.127","","key","arrowright","16.669896551725007","640","288.5","128","5","1","25","35","25","35","true"
"null","null","psychophysics","262","409648","0.0-3.0-1.127","","key","null","16.66820338983049","640","288.5","","","","","","","",""
"557.7000000029802","arrowright","psychophysics","263","410211","0.0-3.0-0.128","","key","arrowright","16.66169696969728","640","288.5","129","5","1","25","15","25","35","true"
"null","null","psychophysics","264","411215","0.0-3.0-1.128","","key","null","16.662864406779605","640","288.5","","","","","","","",""
"727","arrowright","psychophysics","265","411947","0.0-3.0-0.129","","key","arrowright","16.662558139534667","640","288.5","130","5","-1","23","15","25","35","false"
"null","null","psychophysics","266","412955","0.0-3.0-1.129","","key","null","16.667666666666626","640","288.5","","","","","","","",""
"554.7999999970198","arrowright","psychophysics","267","413513","0.0-3.0-0.130","","key","arrowright","16.660000000001673","640","288.5","131","5","1","30","35","25","35","true"
"null","null","psychophysics","268","414515","0.0-3.0-1.130","","key","null","16.667133333333187","640","288.5","","","","","","","",""
"542.3000000119209","arrowleft","psychophysics","269","415063","0.0-3.0-0.131","","key","arrowleft","16.664193548387924","640","288.5","132","5","1","23","35","25","35","false"
"null","null","psychophysics","270","416065","0.0-3.0-1.131","","key","null","16.664833333333565","640","288.5","","","","","","","",""
"508.79999999701977","arrowleft","psychophysics","271","416578","0.0-3.0-0.132","","key","arrowleft","16.67020689655328","640","288.5","133","5","1","23","35","25","35","false"
"null","null","psychophysics","272","417597","0.0-3.0-1.132","","key","null","16.66570000000065","640","288.5","","","","","","","",""
"546.1999999880791","arrowleft","psychophysics","273","418148","0.0-3.0-0.133","","key","arrowleft","16.6614848484839","640","288.5","134","5","-1","27","35","25","35","true"
"null","null","psychophysics","274","419160","0.0-3.0-1.133","","key","null","16.662220338982987","640","288.5","","","","","","","",""
"656.7000000029802","arrowleft","psychophysics","275","419820","0.0-3.0-0.134","","key","arrowleft","16.66694871794868","640","288.5","135","5","-1","25","15","25","35","true"
"null","null","psychophysics","276","420830","0.0-3.0-1.134","","key","null","16.664610169491517","640","288.5","","","","","","","",""
"614.1999999880791","arrowright","psychophysics","277","421449","0.0-3.0-0.135","","key","arrowright","16.65902702702757","640","288.5","136","5","-1","20","15","25","35","false"
"null","null","psychophysics","278","422464","0.0-3.0-1.135","","key","null","16.664916666666976","640","288.5","","","","","","","",""
"536","arrowright","psychophysics","279","423005","0.0-3.0-0.136","","key","arrowright","16.65912903225868","640","288.5","137","5","1","25","35","25","35","true"
"null","null","psychophysics","280","424012","0.0-3.0-1.136","","key","null","16.664423728813574","640","288.5","","","","","","","",""
"597.8000000119209","arrowleft","psychophysics","281","424615","0.0-3.0-0.137","","key","arrowleft","16.660277777776678","640","288.5","138","5","-1","27","35","25","35","true"
"null","null","psychophysics","282","425627","0.0-3.0-1.137","","key","null","16.662288135593418","640","288.5","","","","","","","",""
"572","arrowright","psychophysics","283","426202","0.0-3.0-0.138","","key","arrowright","16.667470588235815","640","288.5","139","5","1","24","15","25","35","true"
"null","null","psychophysics","284","427211","0.0-3.0-1.138","","key","null","16.659779661017375","640","288.5","","","","","","","",""
"555.4000000059605","arrowright","psychophysics","285","427772","0.0-3.0-0.139","","key","arrowright","16.6706060606062","640","288.5","140","6","-1","25","35","25","35","false"
"null","null","psychophysics","286","428778","0.0-3.0-1.139","","key","null","16.662559322034152","640","288.5","","","","","","","",""
"802.5","arrowright","html-keyboard-response","287","429587","0.0-3.0-2.139-0.139","<div style=""color: white; text-align: center; vertical-align: top; display: inline-block; width: 800px; margin: auto""><p>You have completed 50% of the trials. You are on block 6 of 10. <br>Good job! Take a break if you need to.</p><p>Press any key to continue the experiment.</p></div>","","","","","","","","","","","","",""
"596.5999999940395","arrowright","psychophysics","288","431202","0.0-3.0-0.140","","key","arrowright","16.67100000000048","640","288.5","141","6","-1","20","35","25","35","false"
"null","null","psychophysics","289","432210","0.0-3.0-1.140","","key","null","16.666118644067417","640","288.5","","","","","","","",""
"446.59999999403954","arrowright","psychophysics","290","432663","0.0-3.0-0.141","","key","arrowright","16.674259259257706","640","288.5","142","6","-1","26","35","25","35","false"
"null","null","psychophysics","291","433677","0.0-3.0-1.141","","key","null","16.664237288135634","640","288.5","","","","","","","",""
"383.79999999701977","arrowright","psychophysics","292","434067","0.0-3.0-0.142","","key","arrowright","16.66208695652186","640","288.5","143","6","1","30","35","25","35","true"
"null","null","psychophysics","293","435079","0.0-3.0-1.142","","key","null","16.6623000000002","640","288.5","","","","","","","",""
"930.4000000059605","arrowleft","psychophysics","294","436013","0.0-3.0-0.143","","key","arrowleft","16.664418181818274","640","288.5","144","6","-1","26","15","25","35","true"
"null","null","psychophysics","295","437024","0.0-3.0-1.143","","key","null","16.66398305084726","640","288.5","","","","","","","",""
"482.5","arrowright","psychophysics","296","437514","0.0-3.0-0.144","","key","arrowright","16.66272413793044","640","288.5","145","6","1","27","35","25","35","true"
"null","null","psychophysics","297","438528","0.0-3.0-1.144","","key","null","16.66341666666655","640","288.5","","","","","","","",""
"491.70000000298023","arrowright","psychophysics","298","439023","0.0-3.0-0.145","","key","arrowright","16.66635714285699","640","288.5","146","6","-1","24","35","25","35","false"
"null","null","psychophysics","299","440028","0.0-3.0-1.145","","key","null","16.66634999999951","640","288.5","","","","","","","",""
"479.5","arrowright","psychophysics","300","440511","0.0-3.0-0.146","","key","arrowright","16.65596428571319","640","288.5","147","6","1","27","35","25","35","true"
"null","null","psychophysics","301","441526","0.0-3.0-1.146","","key","null","16.665661016949727","640","288.5","","","","","","","",""
"457.69999998807907","arrowleft","psychophysics","302","441989","0.0-3.0-0.147","","key","arrowleft","16.656740740741412","640","288.5","148","6","-1","30","35","25","35","true"
"null","null","psychophysics","303","442994","0.0-3.0-1.147","","key","null","16.665033333333366","640","288.5","","","","","","","",""
"451.59999999403954","arrowright","psychophysics","304","443449","0.0-3.0-0.148","","key","arrowright","16.6578076923078","640","288.5","149","6","-1","26","35","25","35","false"
"null","null","psychophysics","305","444459","0.0-3.0-1.148","","key","null","16.662118644067835","640","288.5","","","","","","","",""
"491.90000000596046","arrowright","psychophysics","306","444954","0.0-3.0-0.149","","key","arrowright","16.656517241378957","640","288.5","150","6","-1","24","35","25","35","false"
"null","null","psychophysics","307","445958","0.0-3.0-1.149","","key","null","16.66306779660991","640","288.5","","","","","","","",""
"495.59999999403954","arrowleft","psychophysics","308","446460","0.0-3.0-0.150","","key","arrowleft","16.666499999999846","640","288.5","151","6","-1","30","35","25","35","true"
"null","null","psychophysics","309","447470","0.0-3.0-1.150","","key","null","16.663627118643735","640","288.5","","","","","","","",""
"419.40000000596046","arrowright","psychophysics","310","447893","0.0-3.0-0.151","","key","arrowright","16.66","640","288.5","152","6","-1","24","15","25","35","false"
"null","null","psychophysics","311","448899","0.0-3.0-1.151","","key","null","16.66815254237341","640","288.5","","","","","","","",""
"442.09999999403954","arrowleft","psychophysics","312","449351","0.0-3.0-0.152","","key","arrowleft","16.668153846152844","640","288.5","153","6","1","27","15","25","35","false"
"null","null","psychophysics","313","450357","0.0-3.0-1.152","","key","null","16.660881355931682","640","288.5","","","","","","","",""
"458.90000000596046","arrowright","psychophysics","314","450822","0.0-3.0-0.153","","key","arrowright","16.665111111110523","640","288.5","154","6","-1","20","35","25","35","false"
"null","null","psychophysics","315","451825","0.0-3.0-1.153","","key","null","16.667216666666597","640","288.5","","","","","","","",""
"581.5999999940395","arrowleft","psychophysics","316","452411","0.0-3.0-0.154","","key","arrowleft","16.665235294116428","640","288.5","155","6","-1","27","15","25","35","true"
"null","null","psychophysics","317","453423","0.0-3.0-1.154","","key","null","16.663830508475026","640","288.5","","","","","","","",""
"424.70000000298023","arrowright","psychophysics","318","453854","0.0-3.0-0.155","","key","arrowright","16.656599999999163","640","288.5","156","6","1","30","15","25","35","true"
"null","null","psychophysics","319","454858","0.0-3.0-1.155","","key","null","16.6669166666669","640","288.5","","","","","","","",""
"633.3999999910593","arrowleft","psychophysics","320","455495","0.0-3.0-0.156","","key","arrowleft","16.6621891891889","640","288.5","157","6","1","24","35","25","35","false"
"null","null","psychophysics","321","456506","0.0-3.0-1.156","","key","null","16.66322033898313","640","288.5","","","","","","","",""
"637.7999999970198","arrowright","psychophysics","322","457150","0.0-3.0-0.157","","key","arrowright","16.661684210525557","640","288.5","158","6","1","23","15","25","35","true"
"null","null","psychophysics","323","458155","0.0-3.0-1.157","","key","null","16.659322033897713","640","288.5","","","","","","","",""
"596.5","arrowleft","psychophysics","324","458758","0.0-3.0-0.158","","key","arrowleft","16.66002777777774","640","288.5","159","6","-1","25","15","25","35","true"
"null","null","psychophysics","325","459768","0.0-3.0-1.158","","key","null","16.66072881355846","640","288.5","","","","","","","",""
"554.3000000119209","arrowleft","psychophysics","326","460324","0.0-3.0-0.159","","key","arrowleft","16.66206060606055","640","288.5","160","6","1","20","35","25","35","false"
"null","null","psychophysics","327","461339","0.0-3.0-1.159","","key","null","16.66394915254155","640","288.5","","","","","","","",""
"502","arrowright","psychophysics","328","461847","0.0-3.0-0.160","","key","arrowright","16.663199999998323","640","288.5","161","6","-1","20","35","25","35","false"
"null","null","psychophysics","329","462855","0.0-3.0-1.160","","key","null","16.668677966102514","640","288.5","","","","","","","",""
"772.5","arrowleft","psychophysics","330","463633","0.0-3.0-0.161","","key","arrowleft","16.663065217391072","640","288.5","162","6","-1","26","15","25","35","true"
"null","null","psychophysics","331","464637","0.0-3.0-1.161","","key","null","16.662593220338874","640","288.5","","","","","","","",""
"584.5999999940395","arrowleft","psychophysics","332","465228","0.0-3.0-0.162","","key","arrowleft","16.663428571427772","640","288.5","163","6","-1","25","15","25","35","true"
"null","null","psychophysics","333","466239","0.0-3.0-1.162","","key","null","16.66369999999976","640","288.5","","","","","","","",""
"535.9000000059605","arrowright","psychophysics","334","466779","0.0-3.0-0.163","","key","arrowright","16.658580645162147","640","288.5","164","6","1","26","15","25","35","true"
"null","null","psychophysics","335","467787","0.0-3.0-1.163","","key","null","16.661016949152543","640","288.5","","","","","","","",""
"481.29999999701977","arrowright","psychophysics","336","468274","0.0-3.0-0.164","","key","arrowright","16.65824137930959","640","288.5","165","6","1","30","35","25","35","true"
"null","null","psychophysics","337","469288","0.0-3.0-1.164","","key","null","16.66111666666693","640","288.5","","","","","","","",""
"456","arrowright","psychophysics","338","469748","0.0-3.0-0.165","","key","arrowright","16.668038461538693","640","288.5","166","6","-1","23","35","25","35","false"
"null","null","psychophysics","339","470754","0.0-3.0-1.165","","key","null","16.663542372880947","640","288.5","","","","","","","",""
"624.5999999940395","arrowright","psychophysics","340","471384","0.0-3.0-0.166","","key","arrowright","16.660324324323557","640","288.5","167","6","1","27","15","25","35","true"
"null","null","psychophysics","341","472388","0.0-3.0-1.166","","key","null","16.665149999999752","640","288.5","","","","","","","",""
"663.7000000029802","arrowright","psychophysics","342","473056","0.0-3.0-0.167","","key","arrowright","16.66230769230811","640","288.5","168","7","1","27","15","25","35","true"
"null","null","psychophysics","343","474065","0.0-3.0-1.167","","key","null","16.66401694915297","640","288.5","","","","","","","",""
"445325.09999999404","arrowright","html-keyboard-response","344","919392","0.0-3.0-2.167-0.167","<div style=""color: white; text-align: center; vertical-align: top; display: inline-block; width: 800px; margin: auto""><p>You have completed 60% of the trials. You are on block 7 of 10. <br>Good job! Take a break if you need to.</p><p>Press any key to continue the experiment.</p></div>","","","","","","","","","","","","",""
"873.5","arrowleft","psychophysics","345","921278","0.0-3.0-0.168","","key","arrowleft","16.66096153846145","640","288.5","169","7","-1","27","15","25","35","true"
"null","null","psychophysics","346","922282","0.0-3.0-1.168","","key","null","16.66469999999972","640","288.5","","","","","","","",""
"528.2000000029802","arrowright","psychophysics","347","922813","0.0-3.0-0.169","","key","arrowright","16.662433333330167","640","288.5","170","7","-1","20","15","25","35","false"
"null","null","psychophysics","348","923815","0.0-3.0-1.169","","key","null","16.666583333333257","640","288.5","","","","","","","",""
"1081.5","arrowleft","psychophysics","349","924900","0.0-3.0-0.170","","key","arrowleft","16.6608906249985","640","288.5","171","7","1","24","15","25","35","false"
"null","null","psychophysics","350","925914","0.0-3.0-1.170","","key","null","16.666305084746348","640","288.5","","","","","","","",""
"462.29999999701977","arrowleft","psychophysics","351","926381","0.0-3.0-0.171","","key","arrowleft","16.659571428571194","640","288.5","172","7","1","20","15","25","35","false"
"null","null","psychophysics","352","927396","0.0-3.0-1.171","","key","null","16.663644067797083","640","288.5","","","","","","","",""
"600.1999999880791","arrowright","psychophysics","353","928002","0.0-3.0-0.172","","key","arrowright","16.66199999999824","640","288.5","173","7","-1","20","15","25","35","false"
"null","null","psychophysics","354","929013","0.0-3.0-1.172","","key","null","16.661966666666558","640","288.5","","","","","","","",""
"479.1000000089407","arrowleft","psychophysics","355","929496","0.0-3.0-0.173","","key","arrowleft","16.6582962962954","640","288.5","174","7","1","20","15","25","35","false"
"null","null","psychophysics","356","930497","0.0-3.0-1.173","","key","null","16.665733333333627","640","288.5","","","","","","","",""
"479.70000000298023","arrowright","psychophysics","357","930981","0.0-3.0-0.174","","key","arrowright","16.665285714286647","640","288.5","175","7","1","26","35","25","35","true"
"null","null","psychophysics","358","931997","0.0-3.0-1.174","","key","null","16.663466666666015","640","288.5","","","","","","","",""
"475.20000000298023","arrowleft","psychophysics","359","932475","0.0-3.0-0.175","","key","arrowleft","16.66088888889041","640","288.5","176","7","-1","30","15","25","35","true"
"null","null","psychophysics","360","933479","0.0-3.0-1.175","","key","null","16.662627118643595","640","288.5","","","","","","","",""
"526.8999999910593","arrowleft","psychophysics","361","934011","0.0-3.0-0.176","","key","arrowleft","16.65677419355169","640","288.5","177","7","1","20","35","25","35","false"
"null","null","psychophysics","362","935012","0.0-3.0-1.176","","key","null","16.664849999999085","640","288.5","","","","","","","",""
"497.1000000089407","arrowright","psychophysics","363","935511","0.0-3.0-0.177","","key","arrowright","16.66121428571309","640","288.5","178","7","1","27","15","25","35","true"
"null","null","psychophysics","364","936512","0.0-3.0-1.177","","key","null","16.667599999999705","640","288.5","","","","","","","",""
"475.20000000298023","arrowright","psychophysics","365","936990","0.0-3.0-0.178","","key","arrowright","16.663037037037107","640","288.5","179","7","-1","24","35","25","35","false"
"null","null","psychophysics","366","937994","0.0-3.0-1.178","","key","null","16.667101694914212","640","288.5","","","","","","","",""
"515.7000000029802","arrowleft","psychophysics","367","938516","0.0-3.0-0.179","","key","arrowleft","16.665580645162283","640","288.5","180","7","1","23","15","25","35","false"
"null","null","psychophysics","368","939526","0.0-3.0-1.179","","key","null","16.661220338982847","640","288.5","","","","","","","",""
"447.5","arrowright","psychophysics","369","939976","0.0-3.0-0.180","","key","arrowright","16.669307692307765","640","288.5","181","7","1","26","15","25","35","true"
"null","null","psychophysics","370","940978","0.0-3.0-1.180","","key","null","16.665250000000622","640","288.5","","","","","","","",""
"675","arrowright","psychophysics","371","941656","0.0-3.0-0.181","","key","arrowright","16.666256410254835","640","288.5","182","7","-1","20","15","25","35","false"
"null","null","psychophysics","372","942661","0.0-3.0-1.181","","key","null","16.664449999999487","640","288.5","","","","","","","",""
"547","arrowleft","psychophysics","373","943211","0.0-3.0-0.182","","key","arrowleft","16.66175000000294","640","288.5","183","7","-1","24","15","25","35","true"
"null","null","psychophysics","374","944226","0.0-3.0-1.182","","key","null","16.66386440677876","640","288.5","","","","","","","",""
"415.5","arrowright","psychophysics","375","944647","0.0-3.0-0.183","","key","arrowright","16.6606799999997","640","288.5","184","7","-1","20","35","25","35","false"
"null","null","psychophysics","376","945661","0.0-3.0-1.183","","key","null","16.665733333333627","640","288.5","","","","","","","",""
"531.6999999880791","arrowleft","psychophysics","377","946197","0.0-3.0-0.184","","key","arrowleft","16.66400000000102","640","288.5","185","7","-1","27","15","25","35","true"
"null","null","psychophysics","378","947209","0.0-3.0-1.184","","key","null","16.66252542372943","640","288.5","","","","","","","",""
"447.79999999701977","arrowright","psychophysics","379","947666","0.0-3.0-0.185","","key","arrowright","16.65862962963163","640","288.5","186","7","1","26","15","25","35","true"
"null","null","psychophysics","380","948677","0.0-3.0-1.185","","key","null","16.665483333333395","640","288.5","","","","","","","",""
"621.5999999940395","arrowleft","psychophysics","381","949302","0.0-3.0-0.186","","key","arrowleft","16.66663888888757","640","288.5","187","7","-1","26","15","25","35","true"
"null","null","psychophysics","382","950309","0.0-3.0-1.186","","key","null","16.663762711862624","640","288.5","","","","","","","",""
"433.90000000596046","arrowright","psychophysics","383","950748","0.0-3.0-0.187","","key","arrowright","16.654576923080292","640","288.5","188","7","1","30","35","25","35","true"
"null","null","psychophysics","384","951757","0.0-3.0-1.187","","key","null","16.663627118643735","640","288.5","","","","","","","",""
"409.20000000298023","arrowleft","psychophysics","385","952169","0.0-3.0-0.188","","key","arrowleft","16.67216666666597","640","288.5","189","7","-1","25","15","25","35","true"
"null","null","psychophysics","386","953175","0.0-3.0-1.188","","key","null","16.6635254237276","640","288.5","","","","","","","",""
"406.5","arrowright","psychophysics","387","953586","0.0-3.0-0.189","","key","arrowright","16.662708333329647","640","288.5","190","7","-1","20","15","25","35","false"
"null","null","psychophysics","388","954591","0.0-3.0-1.189","","key","null","16.663949152543527","640","288.5","","","","","","","",""
"416","arrowright","psychophysics","389","955011","0.0-3.0-0.190","","key","arrowright","16.672520000003278","640","288.5","191","7","1","27","15","25","35","true"
"null","null","psychophysics","390","956019","0.0-3.0-1.190","","key","null","16.663457627118156","640","288.5","","","","","","","",""
"435.09999999403954","arrowleft","psychophysics","391","956457","0.0-3.0-0.191","","key","arrowleft","16.657639999999663","640","288.5","192","7","-1","30","35","25","35","true"
"null","null","psychophysics","392","957475","0.0-3.0-1.191","","key","null","16.666409836066734","640","288.5","","","","","","","",""
"622.2999999970198","arrowleft","psychophysics","393","958101","0.0-3.0-0.192","","key","arrowleft","16.66263888888837","640","288.5","193","7","-1","24","35","25","35","true"
"null","null","psychophysics","394","959107","0.0-3.0-1.192","","key","null","16.661118644066708","640","288.5","","","","","","","",""
"594.7999999970198","arrowleft","psychophysics","395","959707","0.0-3.0-0.193","","key","arrowleft","16.66402857142966","640","288.5","194","7","-1","25","35","25","35","true"
"null","null","psychophysics","396","960708","0.0-3.0-1.193","","key","null","16.665650000000216","640","288.5","","","","","","","",""
"567.5","arrowleft","psychophysics","397","961279","0.0-3.0-0.194","","key","arrowleft","16.66493939393849","640","288.5","195","7","-1","30","35","25","35","true"
"null","null","psychophysics","398","962290","0.0-3.0-1.194","","key","null","16.667220338981725","640","288.5","","","","","","","",""
"433.79999999701977","arrowright","psychophysics","399","962728","0.0-3.0-0.195","","key","arrowright","16.662961538460177","640","288.5","196","8","1","27","15","25","35","true"
"null","null","psychophysics","400","963738","0.0-3.0-1.195","","key","null","16.667644067795678","640","288.5","","","","","","","",""
"714.2999999970198","arrowright","html-keyboard-response","401","964454","0.0-3.0-2.195-0.195","<div style=""color: white; text-align: center; vertical-align: top; display: inline-block; width: 800px; margin: auto""><p>You have completed 70% of the trials. You are on block 8 of 10. <br>Good job! Take a break if you need to.</p><p>Press any key to continue the experiment.</p></div>","","","","","","","","","","","","",""
"551.2000000029802","arrowleft","psychophysics","402","966029","0.0-3.0-0.196","","key","arrowleft","16.660090909089018","640","288.5","197","8","-1","30","15","25","35","true"
"null","null","psychophysics","403","967038","0.0-3.0-1.196","","key","null","16.662237288136335","640","288.5","","","","","","","",""
"504.70000000298023","arrowright","psychophysics","404","967548","0.0-3.0-0.197","","key","arrowright","16.663833333334576","640","288.5","198","8","-1","23","35","25","35","false"
"null","null","psychophysics","405","968556","0.0-3.0-1.197","","key","null","16.66579999999958","640","288.5","","","","","","","",""
"398","arrowleft","psychophysics","406","968958","0.0-3.0-0.198","","key","arrowleft","16.661608695654888","640","288.5","199","8","-1","30","35","25","35","true"
"null","null","psychophysics","407","969963","0.0-3.0-1.198","","key","null","16.66518644067672","640","288.5","","","","","","","",""
"397.59999999403954","arrowright","psychophysics","408","970363","0.0-3.0-0.199","","key","arrowright","16.663347826086227","640","288.5","200","8","1","30","15","25","35","true"
"null","null","psychophysics","409","971371","0.0-3.0-1.199","","key","null","16.665745762713506","640","288.5","","","","","","","",""
"391.8999999910593","arrowleft","psychophysics","410","971768","0.0-3.0-0.200","","key","arrowleft","16.66195652173812","640","288.5","201","8","-1","24","35","25","35","true"
"null","null","psychophysics","411","972772","0.0-3.0-1.200","","key","null","16.66618333333366","640","288.5","","","","","","","",""
"597.1000000089407","arrowleft","psychophysics","412","973373","0.0-3.0-0.201","","key","arrowleft","16.660514285714765","640","288.5","202","8","-1","23","15","25","35","true"
"null","null","psychophysics","413","974387","0.0-3.0-1.201","","key","null","16.665389830508996","640","288.5","","","","","","","",""
"465.09999999403954","arrowleft","psychophysics","414","974858","0.0-3.0-0.202","","key","arrowleft","16.66328571428312","640","288.5","203","8","1","20","35","25","35","false"
"null","null","psychophysics","415","975871","0.0-3.0-1.202","","key","null","16.666499999999846","640","288.5","","","","","","","",""
"539.3999999910593","arrowleft","psychophysics","416","976414","0.0-3.0-0.203","","key","arrowleft","16.663806451612242","640","288.5","204","8","-1","27","15","25","35","true"
"null","null","psychophysics","417","977421","0.0-3.0-1.203","","key","null","16.6630500000009","640","288.5","","","","","","","",""
"499.40000000596046","arrowleft","psychophysics","418","977924","0.0-3.0-0.204","","key","arrowleft","16.658896551724396","640","288.5","205","8","-1","27","35","25","35","true"
"null","null","psychophysics","419","978937","0.0-3.0-1.204","","key","null","16.666066666667273","640","288.5","","","","","","","",""
"488.09999999403954","arrowright","psychophysics","420","979429","0.0-3.0-0.205","","key","arrowright","16.659321428571793","640","288.5","206","8","1","30","35","25","35","true"
"null","null","psychophysics","421","980437","0.0-3.0-1.205","","key","null","16.66441666666651","640","288.5","","","","","","","",""
"413.6000000089407","arrowleft","psychophysics","422","980854","0.0-3.0-0.206","","key","arrowleft","16.657874999999574","640","288.5","207","8","1","20","15","25","35","false"
"null","null","psychophysics","423","981869","0.0-3.0-1.206","","key","null","16.663355932203988","640","288.5","","","","","","","",""
"475.5","arrowleft","psychophysics","424","982350","0.0-3.0-0.207","","key","arrowleft","16.661714285716048","640","288.5","208","8","1","26","15","25","35","false"
"null","null","psychophysics","425","983353","0.0-3.0-1.207","","key","null","16.665233333333163","640","288.5","","","","","","","",""
"573","arrowleft","psychophysics","426","983930","0.0-3.0-0.208","","key","arrowleft","16.67039393939459","640","288.5","209","8","1","26","35","25","35","false"
"null","null","psychophysics","427","984935","0.0-3.0-1.208","","key","null","16.663423728813434","640","288.5","","","","","","","",""
"519.2999999970198","arrowright","psychophysics","428","985460","0.0-3.0-0.209","","key","arrowright","16.668322580648706","640","288.5","210","8","1","25","15","25","35","true"
"null","null","psychophysics","429","986468","0.0-3.0-1.209","","key","null","16.663406779660086","640","288.5","","","","","","","",""
"442.20000000298023","arrowleft","psychophysics","430","986915","0.0-3.0-0.210","","key","arrowleft","16.667769230772347","640","288.5","211","8","-1","26","35","25","35","true"
"null","null","psychophysics","431","987919","0.0-3.0-1.210","","key","null","16.6650833333338","640","288.5","","","","","","","",""
"412","arrowright","psychophysics","432","988334","0.0-3.0-0.211","","key","arrowright","16.658521739128247","640","288.5","212","8","-1","23","35","25","35","false"
"null","null","psychophysics","433","989336","0.0-3.0-1.211","","key","null","16.666033333334294","640","288.5","","","","","","","",""
"351.19999998807907","arrowright","psychophysics","434","989690","0.0-3.0-0.212","","key","arrowright","16.663000000000466","640","288.5","213","8","1","26","15","25","35","true"
"null","null","psychophysics","435","990702","0.0-3.0-1.212","","key","null","16.664283333334605","640","288.5","","","","","","","",""
"523","arrowleft","psychophysics","436","991229","0.0-3.0-0.213","","key","arrowleft","16.658566666666108","640","288.5","214","8","-1","25","15","25","35","true"
"null","null","psychophysics","437","992234","0.0-3.0-1.213","","key","null","16.66588135593042","640","288.5","","","","","","","",""
"365.80000001192093","arrowright","psychophysics","438","992605","0.0-3.0-0.214","","key","arrowright","16.674727272729136","640","288.5","215","8","1","27","15","25","35","true"
"null","null","psychophysics","439","993613","0.0-3.0-1.214","","key","null","16.661474576271218","640","288.5","","","","","","","",""
"448.20000000298023","arrowleft","psychophysics","440","994064","0.0-3.0-0.215","","key","arrowleft","16.66030769230565","640","288.5","216","8","1","25","15","25","35","false"
"null","null","psychophysics","441","995067","0.0-3.0-1.215","","key","null","16.662644067796943","640","288.5","","","","","","","",""
"462.79999999701977","arrowright","psychophysics","442","995534","0.0-3.0-0.216","","key","arrowright","16.656857142856875","640","288.5","217","8","1","27","15","25","35","true"
"null","null","psychophysics","443","996543","0.0-3.0-1.216","","key","null","16.66430508474606","640","288.5","","","","","","","",""
"599.7999999970198","arrowleft","psychophysics","444","997149","0.0-3.0-0.217","","key","arrowleft","16.665914285715136","640","288.5","218","8","-1","26","35","25","35","true"
"null","null","psychophysics","445","998150","0.0-3.0-1.217","","key","null","16.667416666665424","640","288.5","","","","","","","",""
"459.6000000089407","arrowleft","psychophysics","446","998614","0.0-3.0-0.218","","key","arrowleft","16.658730769229944","640","288.5","219","8","1","24","35","25","35","false"
"null","null","psychophysics","447","999616","0.0-3.0-1.218","","key","null","16.667559322032886","640","288.5","","","","","","","",""
"437.79999999701977","arrowleft","psychophysics","448","1000059","0.0-3.0-0.219","","key","arrowleft","16.663807692306225","640","288.5","220","8","-1","25","35","25","35","true"
"null","null","psychophysics","449","1001065","0.0-3.0-1.219","","key","null","16.660999999999195","640","288.5","","","","","","","",""
"544.7000000029802","arrowleft","psychophysics","450","1001619","0.0-3.0-0.220","","key","arrowleft","16.6632727272738","640","288.5","221","8","-1","24","15","25","35","true"
"null","null","psychophysics","451","1002633","0.0-3.0-1.220","","key","null","16.665033333333366","640","288.5","","","","","","","",""
"463.09999999403954","arrowleft","psychophysics","452","1003100","0.0-3.0-0.221","","key","arrowleft","16.657259259256534","640","288.5","222","8","1","23","15","25","35","false"
"null","null","psychophysics","453","1004110","0.0-3.0-1.221","","key","null","16.663542372880947","640","288.5","","","","","","","",""
"331.20000000298023","arrowleft","psychophysics","454","1004443","0.0-3.0-0.222","","key","arrowleft","16.659894736839068","640","288.5","223","8","1","27","35","25","35","false"
"null","null","psychophysics","455","1005448","0.0-3.0-1.222","","key","null","16.663508474576222","640","288.5","","","","","","","",""
"520.6000000089407","arrowleft","psychophysics","456","1005974","0.0-3.0-0.223","","key","arrowleft","16.661903225809276","640","288.5","224","9","-1","27","15","25","35","true"
"null","null","psychophysics","457","1006982","0.0-3.0-1.223","","key","null","16.66341666666752","640","288.5","","","","","","","",""
"675.1000000089407","arrowleft","html-keyboard-response","458","1007659","0.0-3.0-2.223-0.223","<div style=""color: white; text-align: center; vertical-align: top; display: inline-block; width: 800px; margin: auto""><p>You have completed 80% of the trials. You are on block 9 of 10. <br>Good job! Take a break if you need to.</p><p>Press any key to continue the experiment.</p></div>","","","","","","","","","","","","",""
"649.2000000029802","arrowleft","psychophysics","459","1009331","0.0-3.0-0.224","","key","arrowleft","17.098894736842915","640","288.5","225","9","1","23","35","25","35","false"
"null","null","psychophysics","460","1010349","0.0-3.0-1.224","","key","null","16.664934426229294","640","288.5","","","","","","","",""
"531.7000000029802","arrowright","psychophysics","461","1010884","0.0-3.0-0.225","","key","arrowright","16.661129032257914","640","288.5","226","9","1","30","35","25","35","true"
"null","null","psychophysics","462","1011899","0.0-3.0-1.225","","key","null","16.663349999999628","640","288.5","","","","","","","",""
"637.8999999910593","arrowright","psychophysics","463","1012540","0.0-3.0-0.226","","key","arrowright","16.66051351351072","640","288.5","227","9","1","27","15","25","35","true"
"null","null","psychophysics","464","1013547","0.0-3.0-1.226","","key","null","16.662152542373544","640","288.5","","","","","","","",""
"552.7000000029802","arrowleft","psychophysics","465","1014106","0.0-3.0-0.227","","key","arrowleft","16.663515151517156","640","288.5","228","9","1","26","15","25","35","false"
"null","null","psychophysics","466","1015113","0.0-3.0-1.227","","key","null","16.66388135593211","640","288.5","","","","","","","",""
"395","arrowright","psychophysics","467","1015520","0.0-3.0-0.228","","key","arrowright","16.66425000000163","640","288.5","229","9","-1","24","15","25","35","false"
"null","null","psychophysics","468","1016530","0.0-3.0-1.228","","key","null","16.66189830508517","640","288.5","","","","","","","",""
"417.5","arrowleft","psychophysics","469","1016954","0.0-3.0-0.229","","key","arrowleft","16.659719999996014","640","288.5","230","9","-1","27","35","25","35","true"
"null","null","psychophysics","470","1017964","0.0-3.0-1.229","","key","null","16.658883333334234","640","288.5","","","","","","","",""
"467.40000000596046","arrowleft","psychophysics","471","1018435","0.0-3.0-0.230","","key","arrowleft","16.66596296296403","640","288.5","231","9","1","20","15","25","35","false"
"null","null","psychophysics","472","1019446","0.0-3.0-1.230","","key","null","16.667220338981725","640","288.5","","","","","","","",""
"562.5","arrowleft","psychophysics","473","1020015","0.0-3.0-0.231","","key","arrowleft","16.655441176468123","640","288.5","232","9","-1","27","15","25","35","true"
"null","null","psychophysics","474","1021019","0.0-3.0-1.231","","key","null","16.665033898306458","640","288.5","","","","","","","",""
"532.7999999970198","arrowleft","psychophysics","475","1021555","0.0-3.0-0.232","","key","arrowleft","16.661709677420497","640","288.5","233","9","-1","27","15","25","35","true"
"null","null","psychophysics","476","1022562","0.0-3.0-1.232","","key","null","16.663559322034292","640","288.5","","","","","","","",""
"500.5","arrowleft","psychophysics","477","1023070","0.0-3.0-0.233","","key","arrowleft","16.66286666666856","640","288.5","234","9","-1","26","35","25","35","true"
"null","null","psychophysics","478","1024079","0.0-3.0-1.233","","key","null","16.661305084745635","640","288.5","","","","","","","",""
"405.29999999701977","arrowleft","psychophysics","479","1024490","0.0-3.0-0.234","","key","arrowleft","16.666791666667752","640","288.5","235","9","-1","30","15","25","35","true"
"null","null","psychophysics","480","1025495","0.0-3.0-1.234","","key","null","16.662508474576082","640","288.5","","","","","","","",""
"688.4000000059605","arrowright","psychophysics","481","1026190","0.0-3.0-0.235","","key","arrowright","16.66482926829343","640","288.5","236","9","1","27","35","25","35","true"
"null","null","psychophysics","482","1027195","0.0-3.0-1.235","","key","null","16.65967796610321","640","288.5","","","","","","","",""
"635","arrowright","psychophysics","483","1027841","0.0-3.0-0.236","","key","arrowright","16.663236842104723","640","288.5","237","9","-1","23","15","25","35","false"
"null","null","psychophysics","484","1028844","0.0-3.0-1.236","","key","null","16.66550847457651","640","288.5","","","","","","","",""
"570.2000000029802","arrowright","psychophysics","485","1029421","0.0-3.0-0.237","","key","arrowright","16.662735294115812","640","288.5","238","9","1","26","35","25","35","true"
"null","null","psychophysics","486","1030427","0.0-3.0-1.237","","key","null","16.66632203389772","640","288.5","","","","","","","",""
"482.20000000298023","arrowright","psychophysics","487","1030916","0.0-3.0-0.238","","key","arrowright","16.66148275861934","640","288.5","239","9","1","24","35","25","35","true"
"null","null","psychophysics","488","1031926","0.0-3.0-1.238","","key","null","16.663644067797083","640","288.5","","","","","","","",""
"637.0999999940395","arrowleft","psychophysics","489","1032571","0.0-3.0-0.239","","key","arrowleft","16.6599999999989","640","288.5","240","9","-1","23","15","25","35","true"
"null","null","psychophysics","490","1033577","0.0-3.0-1.239","","key","null","16.66162711864345","640","288.5","","","","","","","",""
"495.5","arrowright","psychophysics","491","1034079","0.0-3.0-0.240","","key","arrowright","16.654666666667133","640","288.5","241","9","-1","23","35","25","35","false"
"null","null","psychophysics","492","1035088","0.0-3.0-1.240","","key","null","16.66432203389941","640","288.5","","","","","","","",""
"515.7999999970198","arrowright","psychophysics","493","1035607","0.0-3.0-0.241","","key","arrowright","16.665400000001924","640","288.5","242","9","1","27","15","25","35","true"
"null","null","psychophysics","494","1036609","0.0-3.0-1.241","","key","null","16.66667796610223","640","288.5","","","","","","","",""
"541.2999999970198","arrowleft","psychophysics","495","1037157","0.0-3.0-0.242","","key","arrowleft","16.665062499996566","640","288.5","243","9","1","24","15","25","35","false"
"null","null","psychophysics","496","1038161","0.0-3.0-1.242","","key","null","16.66351666666645","640","288.5","","","","","","","",""
"608.2999999970198","arrowright","psychophysics","497","1038772","0.0-3.0-0.243","","key","arrowright","16.658457142859696","640","288.5","244","9","1","26","15","25","35","true"
"null","null","psychophysics","498","1039777","0.0-3.0-1.243","","key","null","16.665650000000216","640","288.5","","","","","","","",""
"867.7999999970198","arrowright","psychophysics","499","1040648","0.0-3.0-0.244","","key","arrowright","16.665745098038816","640","288.5","245","9","-1","25","35","25","35","false"
"null","null","psychophysics","500","1041658","0.0-3.0-1.244","","key","null","16.662881355931965","640","288.5","","","","","","","",""
"448","arrowright","psychophysics","501","1042114","0.0-3.0-0.245","","key","arrowright","16.664703703705325","640","288.5","246","9","-1","20","35","25","35","false"
"null","null","psychophysics","502","1043124","0.0-3.0-1.245","","key","null","16.663254237287852","640","288.5","","","","","","","",""
"432.5","arrowright","psychophysics","503","1043563","0.0-3.0-0.246","","key","arrowright","16.66450000000007","640","288.5","247","9","-1","26","35","25","35","false"
"null","null","psychophysics","504","1044574","0.0-3.0-1.246","","key","null","16.663983050846273","640","288.5","","","","","","","",""
"557","arrowleft","psychophysics","505","1045138","0.0-3.0-0.247","","key","arrowleft","16.66472727272688","640","288.5","248","9","-1","24","15","25","35","true"
"null","null","psychophysics","506","1046142","0.0-3.0-1.247","","key","null","16.66349999999899","640","288.5","","","","","","","",""
"458.3999999910593","arrowleft","psychophysics","507","1046604","0.0-3.0-0.248","","key","arrowleft","16.662461538458818","640","288.5","249","9","-1","30","15","25","35","true"
"null","null","psychophysics","508","1047607","0.0-3.0-1.248","","key","null","16.66589830508377","640","288.5","","","","","","","",""
"430.70000000298023","arrowleft","psychophysics","509","1048044","0.0-3.0-0.249","","key","arrowleft","16.6638846153868","640","288.5","250","9","-1","30","15","25","35","true"
"null","null","psychophysics","510","1049056","0.0-3.0-1.249","","key","null","16.660118644066564","640","288.5","","","","","","","",""
"446.19999998807907","arrowleft","psychophysics","511","1049509","0.0-3.0-0.250","","key","arrowleft","16.663370370364714","640","288.5","251","9","1","20","35","25","35","false"
"null","null","psychophysics","512","1050523","0.0-3.0-1.250","","key","null","16.66425423728602","640","288.5","","","","","","","",""
"540.7000000029802","arrowright","psychophysics","513","1051075","0.0-3.0-0.251","","key","arrowright","16.666939393934708","640","288.5","252","10","1","30","15","25","35","true"
"null","null","psychophysics","514","1052089","0.0-3.0-1.251","","key","null","16.661661016948173","640","288.5","","","","","","","",""
"1515.4000000059605","arrowright","html-keyboard-response","515","1053607","0.0-3.0-2.251-0.251","<div style=""color: white; text-align: center; vertical-align: top; display: inline-block; width: 800px; margin: auto""><p>You have completed 90% of the trials. You are on block 10 of 10. <br>Good job! Take a break if you need to.</p><p>Press any key to continue the experiment.</p></div>","","","","","","","","","","","","",""
"466.20000000298023","arrowright","psychophysics","516","1055087","0.0-3.0-0.252","","key","arrowright","16.66571428571894","640","288.5","253","10","-1","23","35","25","35","false"
"null","null","psychophysics","517","1056089","0.0-3.0-1.252","","key","null","16.66810000000211","640","288.5","","","","","","","",""
"430.90000000596046","arrowright","psychophysics","518","1056524","0.0-3.0-0.253","","key","arrowright","16.657719999998807","640","288.5","254","10","1","30","35","25","35","true"
"null","null","psychophysics","519","1057538","0.0-3.0-1.253","","key","null","16.66405084745769","640","288.5","","","","","","","",""
"417.80000001192093","arrowleft","psychophysics","520","1057962","0.0-3.0-0.254","","key","arrowleft","16.663119999999182","640","288.5","255","10","-1","27","35","25","35","true"
"null","null","psychophysics","521","1058971","0.0-3.0-1.254","","key","null","16.662169491524917","640","288.5","","","","","","","",""
"515.7999999970198","arrowright","psychophysics","522","1059494","0.0-3.0-0.255","","key","arrowright","16.66287096773815","640","288.5","256","10","-1","24","35","25","35","false"
"null","null","psychophysics","523","1060499","0.0-3.0-1.255","","key","null","16.660728813559448","640","288.5","","","","","","","",""
"471.29999999701977","arrowright","psychophysics","524","1060973","0.0-3.0-0.256","","key","arrowright","16.6560000000006","640","288.5","257","10","-1","23","35","25","35","false"
"null","null","psychophysics","525","1061983","0.0-3.0-1.256","","key","null","16.663644067797083","640","288.5","","","","","","","",""
"732.5","arrowleft","psychophysics","526","1062718","0.0-3.0-0.257","","key","arrowleft","16.663860465118358","640","288.5","258","10","1","24","15","25","35","false"
"null","null","psychophysics","527","1063719","0.0-3.0-1.257","","key","null","16.66737288135593","640","288.5","","","","","","","",""
"482.29999999701977","arrowleft","psychophysics","528","1064208","0.0-3.0-0.258","","key","arrowleft","16.660551724136518","640","288.5","259","10","-1","27","15","25","35","true"
"null","null","psychophysics","529","1065219","0.0-3.0-1.258","","key","null","16.66547457626784","640","288.5","","","","","","","",""
"466.90000000596046","arrowleft","psychophysics","530","1065692","0.0-3.0-0.259","","key","arrowleft","16.661178571429836","640","288.5","260","10","-1","27","35","25","35","true"
"null","null","psychophysics","531","1066702","0.0-3.0-1.259","","key","null","16.661237288136192","640","288.5","","","","","","","",""
"402.40000000596046","arrowleft","psychophysics","532","1067118","0.0-3.0-0.260","","key","arrowleft","16.662916666663175","640","288.5","261","10","1","26","35","25","35","false"
"null","null","psychophysics","533","1068121","0.0-3.0-1.260","","key","null","16.667233333336966","640","288.5","","","","","","","",""
"436.09999999403954","arrowleft","psychophysics","534","1068561","0.0-3.0-0.261","","key","arrowleft","16.666359999999404","640","288.5","262","10","1","23","15","25","35","false"
"null","null","psychophysics","535","1069568","0.0-3.0-1.261","","key","null","16.6623389830505","640","288.5","","","","","","","",""
"417.5","arrowleft","psychophysics","536","1069992","0.0-3.0-0.262","","key","arrowleft","16.66339999999851","640","288.5","263","10","1","20","15","25","35","false"
"null","null","psychophysics","537","1071002","0.0-3.0-1.262","","key","null","16.667254237288418","640","288.5","","","","","","","",""
"368","arrowleft","psychophysics","538","1071377","0.0-3.0-0.263","","key","arrowleft","16.660090909096073","640","288.5","264","10","1","23","15","25","35","false"
"null","null","psychophysics","539","1072384","0.0-3.0-1.263","","key","null","16.663271186439225","640","288.5","","","","","","","",""
"350.90000000596046","arrowright","psychophysics","540","1072746","0.0-3.0-0.264","","key","arrowright","16.67604761904416","640","288.5","265","10","-1","27","35","25","35","false"
"null","null","psychophysics","541","1073751","0.0-3.0-1.264","","key","null","16.664830508476154","640","288.5","","","","","","","",""
"495.29999999701977","arrowleft","psychophysics","542","1074253","0.0-3.0-0.265","","key","arrowleft","16.656099999998695","640","288.5","266","10","1","24","35","25","35","false"
"null","null","psychophysics","543","1075267","0.0-3.0-1.265","","key","null","16.663813559322666","640","288.5","","","","","","","",""
"699.1000000089407","arrowright","psychophysics","544","1075973","0.0-3.0-0.266","","key","arrowright","16.66126190476297","640","288.5","267","10","-1","25","35","25","35","false"
"null","null","psychophysics","545","1076984","0.0-3.0-1.266","","key","null","16.665728813558186","640","288.5","","","","","","","",""
"467.90000000596046","arrowleft","psychophysics","546","1077463","0.0-3.0-0.267","","key","arrowleft","16.66103571428851","640","288.5","268","10","-1","30","15","25","35","true"
"null","null","psychophysics","547","1078467","0.0-3.0-1.267","","key","null","16.662406779659943","640","288.5","","","","","","","",""
"434.20000000298023","arrowleft","psychophysics","548","1078907","0.0-3.0-0.268","","key","arrowleft","16.662076923073844","640","288.5","269","10","-1","26","15","25","35","true"
"null","null","psychophysics","549","1079916","0.0-3.0-1.268","","key","null","16.661661016948173","640","288.5","","","","","","","",""
"667.5","arrowleft","psychophysics","550","1080588","0.0-3.0-0.269","","key","arrowleft","16.667574999999488","640","288.5","270","10","1","23","35","25","35","false"
"null","null","psychophysics","551","1081600","0.0-3.0-1.269","","key","null","16.665457627116467","640","288.5","","","","","","","",""
"682.7000000029802","arrowright","psychophysics","552","1082288","0.0-3.0-0.270","","key","arrowright","16.662365853655857","640","288.5","271","10","-1","23","15","25","35","false"
"null","null","psychophysics","553","1083299","0.0-3.0-1.270","","key","null","16.663491525422877","640","288.5","","","","","","","",""
"498.20000000298023","arrowleft","psychophysics","554","1083804","0.0-3.0-0.271","","key","arrowleft","16.669166666665113","640","288.5","272","10","1","23","35","25","35","false"
"null","null","psychophysics","555","1084816","0.0-3.0-1.271","","key","null","16.65957627118707","640","288.5","","","","","","","",""
"648.3999999910593","arrowleft","psychophysics","556","1085470","0.0-3.0-0.272","","key","arrowleft","16.662205128208136","640","288.5","273","10","-1","24","15","25","35","true"
"null","null","psychophysics","557","1086482","0.0-3.0-1.272","","key","null","16.665830508474325","640","288.5","","","","","","","",""
"470.69999998807907","arrowleft","psychophysics","558","1086959","0.0-3.0-0.273","","key","arrowleft","16.65732142856411","640","288.5","274","10","-1","30","15","25","35","true"
"null","null","psychophysics","559","1087963","0.0-3.0-1.273","","key","null","16.663457627120128","640","288.5","","","","","","","",""
"429.59999999403954","arrowleft","psychophysics","560","1088400","0.0-3.0-0.274","","key","arrowleft","16.664730769232847","640","288.5","275","10","1","26","35","25","35","false"
"null","null","psychophysics","561","1089410","0.0-3.0-1.274","","key","null","16.66133898305233","640","288.5","","","","","","","",""
"510.79999999701977","arrowleft","psychophysics","562","1089924","0.0-3.0-0.275","","key","arrowleft","16.66186666667151","640","288.5","276","10","1","23","15","25","35","false"
"null","null","psychophysics","563","1090931","0.0-3.0-1.275","","key","null","16.659067796610326","640","288.5","","","","","","","",""
"441.5","arrowright","psychophysics","564","1091379","0.0-3.0-0.276","","key","arrowright","16.668346153849807","640","288.5","277","10","1","30","35","25","35","true"
"null","null","psychophysics","565","1092381","0.0-3.0-1.276","","key","null","16.66705084746009","640","288.5","","","","","","","",""
"462","arrowleft","psychophysics","566","1092850","0.0-3.0-0.277","","key","arrowleft","16.672214285711693","640","288.5","278","10","-1","27","15","25","35","true"
"null","null","psychophysics","567","1093859","0.0-3.0-1.277","","key","null","16.665237288132815","640","288.5","","","","","","","",""
"482.5","arrowright","psychophysics","568","1094344","0.0-3.0-0.278","","key","arrowright","16.669535714284784","640","288.5","279","10","-1","24","35","25","35","false"
"null","null","psychophysics","569","1095347","0.0-3.0-1.278","","key","null","16.665610169490673","640","288.5","","","","","","","",""
"451.70000000298023","arrowleft","psychophysics","570","1095805","0.0-3.0-0.279","","key","arrowleft","16.663777777778538","640","288.5","280","11","1","23","15","25","35","false"
"null","null","psychophysics","571","1096813","0.0-3.0-1.279","","key","null","16.659779661015403","640","288.5","","","","","","","",""
