"rt","response","trial_type","trial_index","time_elapsed","internal_node_id","stimulus","response_type","key_press","avg_frame_time","center_x","center_y","trial","block","test_pos","test_inner_radius","test_outer_radius","ref_inner_radius","ref_outer_radius","test_bigger"
"6338.600000000093","{""p_id"":""3500"",""age"":""20"",""handedness"":""right"",""sex"":""female"",""other_sex"":""""}","survey-html-form","0","6344","0.0-0.0","","","","","","","","","","","","","",""
"47303"," ","html-keyboard-response","1","53650","0.0-1.0","<p style=""color: white"">Welcome to the Size Judgment Experiment. <br>There will be 10 blocks in this experiment. <br>There will be 28 trials in each block. <br>You will be given a chance to take a break between blocks. <br>Press any key to start the experiment.</p>","","","","","","","","","","","","",""
"2064.7000000001863"," ","psychophysics","2","55718","0.0-2.0","","key"," ","16.674000000000014","640","360.5","","","","","","","",""
"959","arrowleft","psychophysics","3","56680","0.0-3.0-0.0","","key","arrowleft","16.673999999999978","640","360.5","1","1","1","24","35","25","35","false"
"null","null","psychophysics","4","57685","0.0-3.0-1.0","","key","null","16.67400000000004","640","360.5","","","","","","","",""
"548.3999999999069","arrowright","psychophysics","5","58237","0.0-3.0-0.1","","key","arrowright","16.673999999999978","640","360.5","2","1","-1","20","15","25","35","false"
"null","null","psychophysics","6","59240","0.0-3.0-1.1","","key","null","16.673999999999932","640","360.5","","","","","","","",""
"562.8999999999069","arrowleft","psychophysics","7","59805","0.0-3.0-0.2","","key","arrowleft","16.747545454545506","640","360.5","3","1","1","24","35","25","35","false"
"null","null","psychophysics","8","60808","0.0-3.0-1.2","","key","null","16.674000000000056","640","360.5","","","","","","","",""
"868.2000000001863","arrowleft","psychophysics","9","61678","0.0-3.0-0.3","","key","arrowleft","16.673999999999925","640","360.5","4","1","-1","27","35","25","35","true"
"null","null","psychophysics","10","62682","0.0-3.0-1.3","","key","null","16.674000000000056","640","360.5","","","","","","","",""
"1916.6000000000931","arrowright","psychophysics","11","64601","0.0-3.0-0.4","","key","arrowright","16.674000000000024","640","360.5","5","1","-1","26","15","25","35","false"
"null","null","psychophysics","12","65605","0.0-3.0-1.4","","key","null","16.673999999999932","640","360.5","","","","","","","",""
"546.3000000002794","arrowleft","psychophysics","13","66157","0.0-3.0-0.5","","key","arrowleft","16.67399999999995","640","360.5","6","1","1","25","35","25","35","false"
"null","null","psychophysics","14","67160","0.0-3.0-1.5","","key","null","16.674000000000056","640","360.5","","","","","","","",""
"934","arrowright","psychophysics","15","68096","0.0-3.0-0.6","","key","arrowright","16.674000000000127","640","360.5","7","1","-1","24","15","25","35","false"
"null","null","psychophysics","16","69102","0.0-3.0-1.6","","key","null","16.674000000000056","640","360.5","","","","","","","",""
"591.8000000002794","arrowleft","psychophysics","17","69696","0.0-3.0-0.7","","key","arrowleft","16.6739999999999","640","360.5","8","1","1","27","35","25","35","false"
"null","null","psychophysics","18","70702","0.0-3.0-1.7","","key","null","16.674000000000056","640","360.5","","","","","","","",""
"2497.399999999907","arrowleft","psychophysics","19","73203","0.0-3.0-0.8","","key","arrowleft","16.673999999999946","640","360.5","9","1","1","26","15","25","35","false"
"null","null","psychophysics","20","74205","0.0-3.0-1.8","","key","null","16.674000000000056","640","360.5","","","","","","","",""
"1258.3999999999069","arrowleft","psychophysics","21","75466","0.0-3.0-0.9","","key","arrowleft","16.67400000000004","640","360.5","10","1","-1","25","35","25","35","true"
"null","null","psychophysics","22","76471","0.0-3.0-1.9","","key","null","16.674000000000056","640","360.5","","","","","","","",""
"715.9000000003725","arrowright","psychophysics","23","77189","0.0-3.0-0.10","","key","arrowright","16.67400000000011","640","360.5","11","1","-1","24","15","25","35","false"
"null","null","psychophysics","24","78194","0.0-3.0-1.10","","key","null","16.674000000000056","640","360.5","","","","","","","",""
"973","arrowright","psychophysics","25","79173","0.0-3.0-0.11","","key","arrowright","16.673999999999822","640","360.5","12","1","-1","20","15","25","35","false"
"null","null","psychophysics","26","80175","0.0-3.0-1.11","","key","null","16.687542372881396","640","360.5","","","","","","","",""
"617.6000000000931","arrowleft","psychophysics","27","80795","0.0-3.0-0.12","","key","arrowleft","16.67400000000028","640","360.5","13","1","1","23","15","25","35","false"
"null","null","psychophysics","28","81799","0.0-3.0-1.12","","key","null","16.673999999999797","640","360.5","","","","","","","",""
"477.5","arrowright","psychophysics","29","82280","0.0-3.0-0.13","","key","arrowright","16.67399999999961","640","360.5","14","1","-1","20","15","25","35","false"
"null","null","psychophysics","30","83282","0.0-3.0-1.13","","key","null","16.674000000000056","640","360.5","","","","","","","",""
"492.60000000009313","arrowright","psychophysics","31","83779","0.0-3.0-0.14","","key","arrowright","16.67400000000007","640","360.5","15","1","-1","26","15","25","35","false"
"null","null","psychophysics","32","84782","0.0-3.0-1.14","","key","null","16.674000000000056","640","360.5","","","","","","","",""
"947.6999999997206","arrowright","psychophysics","33","85735","0.0-3.0-0.15","","key","arrowright","16.67400000000011","640","360.5","16","1","-1","20","15","25","35","false"
"null","null","psychophysics","34","86738","0.0-3.0-1.15","","key","null","16.673999999999797","640","360.5","","","","","","","",""
"931.2999999998137","arrowleft","psychophysics","35","87672","0.0-3.0-0.16","","key","arrowleft","16.674000000000127","640","360.5","17","1","-1","24","35","25","35","true"
"null","null","psychophysics","36","88678","0.0-3.0-1.16","","key","null","16.674000000000056","640","360.5","","","","","","","",""
"3382.399999999907","arrowleft","psychophysics","37","92063","0.0-3.0-0.17","","key","arrowleft","16.756955223880603","640","360.5","18","1","1","26","35","25","35","false"
"null","null","psychophysics","38","93065","0.0-3.0-1.17","","key","null","16.674000000000056","640","360.5","","","","","","","",""
"533.7000000001863","arrowright","psychophysics","39","93601","0.0-3.0-0.18","","key","arrowright","16.674000000000007","640","360.5","19","1","-1","30","15","25","35","false"
"null","null","psychophysics","40","94604","0.0-3.0-1.18","","key","null","16.674000000000056","640","360.5","","","","","","","",""
"767.5","arrowleft","psychophysics","41","95376","0.0-3.0-0.19","","key","arrowleft","16.674000000000017","640","360.5","20","1","-1","30","35","25","35","true"
"null","null","psychophysics","42","96382","0.0-3.0-1.19","","key","null","16.673999999999808","640","360.5","","","","","","","",""
"559.2000000001863","arrowleft","psychophysics","43","96944","0.0-3.0-0.20","","key","arrowleft","16.67400000000039","640","360.5","21","1","-1","24","35","25","35","true"
"null","null","psychophysics","44","97945","0.0-3.0-1.20","","key","null","16.673999999999808","640","360.5","","","","","","","",""
"671","arrowleft","psychophysics","45","98619","0.0-3.0-0.21","","key","arrowleft","16.674000000000188","640","360.5","22","1","-1","24","35","25","35","true"
"null","null","psychophysics","46","99623","0.0-3.0-1.21","","key","null","16.68571186440669","640","360.5","","","","","","","",""
"459.5","arrowright","psychophysics","47","100087","0.0-3.0-0.22","","key","arrowright","16.674000000000145","640","360.5","23","1","-1","27","15","25","35","false"
"null","null","psychophysics","48","101091","0.0-3.0-1.22","","key","null","16.674000000000056","640","360.5","","","","","","","",""
"627.6999999997206","arrowleft","psychophysics","49","101724","0.0-3.0-0.23","","key","arrowleft","16.673999999999854","640","360.5","24","1","-1","20","35","25","35","true"
"null","null","psychophysics","50","102727","0.0-3.0-1.23","","key","null","16.673999999999797","640","360.5","","","","","","","",""
"836.8999999999069","arrowleft","psychophysics","51","103567","0.0-3.0-0.24","","key","arrowleft","16.674000000000255","640","360.5","25","1","-1","24","35","25","35","true"
"null","null","psychophysics","52","104570","0.0-3.0-1.24","","key","null","16.673999999999808","640","360.5","","","","","","","",""
"1214.6000000000931","arrowleft","psychophysics","53","105787","0.0-3.0-0.25","","key","arrowleft","16.674000000000078","640","360.5","26","1","1","26","35","25","35","false"
"null","null","psychophysics","54","106790","0.0-3.0-1.25","","key","null","16.674000000000056","640","360.5","","","","","","","",""
"614.8999999999069","arrowleft","psychophysics","55","107407","0.0-3.0-0.26","","key","arrowleft","16.67399999999988","640","360.5","27","1","-1","26","35","25","35","true"
"null","null","psychophysics","56","108410","0.0-3.0-1.26","","key","null","16.674000000000056","640","360.5","","","","","","","",""
"434.8000000002794","arrowleft","psychophysics","57","108849","0.0-3.0-0.27","","key","arrowleft","16.674000000000188","640","360.5","28","2","1","20","15","25","35","false"
"null","null","psychophysics","58","109855","0.0-3.0-1.27","","key","null","16.674000000000056","640","360.5","","","","","","","",""
"1104.6000000000931"," ","html-keyboard-response","59","110966","0.0-3.0-2.27-0.27","<div style=""color: white; text-align: center; vertical-align: top; display: inline-block; width: 800px; margin: auto""><p>You have completed 10% of the trials. You are on block 2 of 10. <br>Good job! Take a break if you need to.</p><p>Press any key to continue the experiment.</p></div>","","","","","","","","","","","","",""
"1479.1999999997206","arrowleft","psychophysics","60","113450","0.0-3.0-0.28","","key","arrowleft","16.67400000000005","640","360.5","29","2","1","25","35","25","35","false"
"null","null","psychophysics","61","114452","0.0-3.0-1.28","","key","null","16.673999999999808","640","360.5","","","","","","","",""
"2045.3000000002794","arrowright","psychophysics","62","116499","0.0-3.0-0.29","","key","arrowright","16.674000000000024","640","360.5","30","2","1","30","35","25","35","true"
"null","null","psychophysics","63","117502","0.0-3.0-1.29","","key","null","16.674000000000056","640","360.5","","","","","","","",""
"3808.100000000093","arrowleft","psychophysics","64","121317","0.0-3.0-0.30","","key","arrowleft","16.639570175438596","640","360.5","31","2","1","27","35","25","35","false"
"null","null","psychophysics","65","122318","0.0-3.0-1.30","","key","null","16.674000000000056","640","360.5","","","","","","","",""
"483.10000000009313","arrowright","psychophysics","66","122804","0.0-3.0-0.31","","key","arrowright","16.67400000000011","640","360.5","32","2","-1","26","15","25","35","false"
"null","null","psychophysics","67","123810","0.0-3.0-1.31","","key","null","16.674000000000056","640","360.5","","","","","","","",""
"1319.5999999996275","arrowright","psychophysics","68","125136","0.0-3.0-0.32","","key","arrowright","16.67399999999999","640","360.5","33","2","-1","27","35","25","35","false"
"null","null","psychophysics","69","126137","0.0-3.0-1.32","","key","null","16.674000000000056","640","360.5","","","","","","","",""
"812.7000000001863","arrowleft","psychophysics","70","126953","0.0-3.0-0.33","","key","arrowleft","16.673999999999978","640","360.5","34","2","-1","20","35","25","35","true"
"null","null","psychophysics","71","127954","0.0-3.0-1.33","","key","null","16.674000000000056","640","360.5","","","","","","","",""
"552.2999999998137","arrowright","psychophysics","72","128509","0.0-3.0-0.34","","key","arrowright","16.673999999999978","640","360.5","35","2","-1","23","15","25","35","false"
"null","null","psychophysics","73","129513","0.0-3.0-1.34","","key","null","16.674000000000056","640","360.5","","","","","","","",""
"653.2000000001863","arrowleft","psychophysics","74","130175","0.0-3.0-0.35","","key","arrowleft","16.673999999999815","640","360.5","36","2","1","30","35","25","35","false"
"null","null","psychophysics","75","131179","0.0-3.0-1.35","","key","null","16.673999999999808","640","360.5","","","","","","","",""
"502","arrowleft","psychophysics","76","131687","0.0-3.0-0.36","","key","arrowleft","16.67399999999907","640","360.5","37","2","1","25","15","25","35","false"
"null","null","psychophysics","77","132689","0.0-3.0-1.36","","key","null","16.674000000000056","640","360.5","","","","","","","",""
"1123.2000000001863","arrowright","psychophysics","78","133814","0.0-3.0-0.37","","key","arrowright","16.67400000000039","640","360.5","38","2","-1","23","35","25","35","false"
"null","null","psychophysics","79","134816","0.0-3.0-1.37","","key","null","16.673999999999563","640","360.5","","","","","","","",""
"573.8999999999069","arrowleft","psychophysics","80","135394","0.0-3.0-0.38","","key","arrowleft","16.67400000000078","640","360.5","39","2","1","25","35","25","35","false"
"null","null","psychophysics","81","136399","0.0-3.0-1.38","","key","null","16.673999999999563","640","360.5","","","","","","","",""
"501.59999999962747","arrowleft","psychophysics","82","136905","0.0-3.0-0.39","","key","arrowleft","16.67399999999907","640","360.5","40","2","1","27","15","25","35","false"
"null","null","psychophysics","83","137907","0.0-3.0-1.39","","key","null","16.673999999999563","640","360.5","","","","","","","",""
"432.39999999990687","arrowleft","psychophysics","84","138341","0.0-3.0-0.40","","key","arrowleft","16.674000000000234","640","360.5","41","2","1","20","15","25","35","false"
"null","null","psychophysics","85","139344","0.0-3.0-1.40","","key","null","16.674000000000056","640","360.5","","","","","","","",""
"441","arrowleft","psychophysics","86","139788","0.0-3.0-0.41","","key","arrowleft","16.69919230769245","640","360.5","42","2","1","27","15","25","35","false"
"null","null","psychophysics","87","140790","0.0-3.0-1.41","","key","null","16.674000000000056","640","360.5","","","","","","","",""
"765.2000000001863","arrowright","psychophysics","88","141557","0.0-3.0-0.42","","key","arrowright","16.673999999999715","640","360.5","43","2","1","25","35","25","35","true"
"null","null","psychophysics","89","142559","0.0-3.0-1.42","","key","null","16.674000000000056","640","360.5","","","","","","","",""
"447.60000000009313","arrowleft","psychophysics","90","143009","0.0-3.0-0.43","","key","arrowleft","16.674000000000188","640","360.5","44","2","1","25","15","25","35","false"
"null","null","psychophysics","91","144011","0.0-3.0-1.43","","key","null","16.674000000000056","640","360.5","","","","","","","",""
"671.3000000002794","arrowright","psychophysics","92","144685","0.0-3.0-0.44","","key","arrowright","16.673999999999815","640","360.5","45","2","1","24","35","25","35","true"
"null","null","psychophysics","93","145688","0.0-3.0-1.44","","key","null","16.674000000000056","640","360.5","","","","","","","",""
"814.8000000002794","arrowleft","psychophysics","94","146507","0.0-3.0-0.45","","key","arrowleft","17.028765957447096","640","360.5","46","2","1","24","35","25","35","false"
"null","null","psychophysics","95","147509","0.0-3.0-1.45","","key","null","16.67400000000004","640","360.5","","","","","","","",""
"1034.1000000000931","arrowright","psychophysics","96","148545","0.0-3.0-0.46","","key","arrowright","16.674000000000024","640","360.5","47","2","-1","27","35","25","35","false"
"null","null","psychophysics","97","149547","0.0-3.0-1.46","","key","null","16.674000000000056","640","360.5","","","","","","","",""
"897.3999999999069","arrowleft","psychophysics","98","150446","0.0-3.0-0.47","","key","arrowleft","16.674000000000166","640","360.5","48","2","-1","26","35","25","35","true"
"null","null","psychophysics","99","151450","0.0-3.0-1.47","","key","null","16.673999999999563","640","360.5","","","","","","","",""
"547.5","arrowleft","psychophysics","100","152000","0.0-3.0-0.48","","key","arrowleft","16.673999999999978","640","360.5","49","2","1","27","35","25","35","false"
"null","null","psychophysics","101","153002","0.0-3.0-1.48","","key","null","16.673999999999563","640","360.5","","","","","","","",""
"446.09999999962747","arrowright","psychophysics","102","153450","0.0-3.0-0.49","","key","arrowright","16.674000000000188","640","360.5","50","2","-1","30","15","25","35","false"
"null","null","psychophysics","103","154452","0.0-3.0-1.49","","key","null","16.674000000000056","640","360.5","","","","","","","",""
"452.10000000009313","arrowright","psychophysics","104","154906","0.0-3.0-0.50","","key","arrowright","16.674000000000188","640","360.5","51","2","-1","20","15","25","35","false"
"null","null","psychophysics","105","155908","0.0-3.0-1.50","","key","null","16.674000000000056","640","360.5","","","","","","","",""
"418.90000000037253","arrowleft","psychophysics","106","156333","0.0-3.0-0.51","","key","arrowleft","16.674000000000234","640","360.5","52","2","1","20","15","25","35","false"
"null","null","psychophysics","107","157336","0.0-3.0-1.51","","key","null","16.674000000000056","640","360.5","","","","","","","",""
"429.70000000018626","arrowleft","psychophysics","108","157768","0.0-3.0-0.52","","key","arrowleft","16.674000000000234","640","360.5","53","2","1","27","15","25","35","false"
"null","null","psychophysics","109","158772","0.0-3.0-1.52","","key","null","16.673999999999563","640","360.5","","","","","","","",""
"659.2000000001863","arrowright","psychophysics","110","159434","0.0-3.0-0.53","","key","arrowright","16.673999999999815","640","360.5","54","2","1","24","35","25","35","true"
"null","null","psychophysics","111","160438","0.0-3.0-1.53","","key","null","16.684508474576248","640","360.5","","","","","","","",""
"1026.5","arrowleft","psychophysics","112","161467","0.0-3.0-0.54","","key","arrowleft","16.674000000000024","640","360.5","55","2","1","25","35","25","35","false"
"null","null","psychophysics","113","162469","0.0-3.0-1.54","","key","null","16.674000000000056","640","360.5","","","","","","","",""
"635.3999999999069","arrowright","psychophysics","114","163107","0.0-3.0-0.55","","key","arrowright","16.673999999999854","640","360.5","56","3","-1","24","15","25","35","false"
"null","null","psychophysics","115","164110","0.0-3.0-1.55","","key","null","16.674000000000056","640","360.5","","","","","","","",""
"1414.1999999997206","arrowleft","html-keyboard-response","116","165525","0.0-3.0-2.55-0.55","<div style=""color: white; text-align: center; vertical-align: top; display: inline-block; width: 800px; margin: auto""><p>You have completed 20% of the trials. You are on block 3 of 10. <br>Good job! Take a break if you need to.</p><p>Press any key to continue the experiment.</p></div>","","","","","","","","","","","","",""
"1406.2000000001863","arrowright","psychophysics","117","167937","0.0-3.0-0.56","","key","arrowright","16.673999999999754","640","360.5","57","3","-1","30","35","25","35","false"
"null","null","psychophysics","118","168939","0.0-3.0-1.56","","key","null","16.674000000000056","640","360.5","","","","","","","",""
"442.70000000018626","arrowright","psychophysics","119","169384","0.0-3.0-0.57","","key","arrowright","16.674000000000188","640","360.5","58","3","-1","30","15","25","35","false"
"null","null","psychophysics","120","170386","0.0-3.0-1.57","","key","null","16.674000000000056","640","360.5","","","","","","","",""
"494.29999999981374","arrowleft","psychophysics","121","170883","0.0-3.0-0.58","","key","arrowleft","16.67400000000011","640","360.5","59","3","1","30","15","25","35","false"
"null","null","psychophysics","122","171884","0.0-3.0-1.58","","key","null","16.67400000000004","640","360.5","","","","","","","",""
"472.89999999990687","arrowright","psychophysics","123","172360","0.0-3.0-0.59","","key","arrowright","16.674000000000145","640","360.5","60","3","-1","23","15","25","35","false"
"null","null","psychophysics","124","173361","0.0-3.0-1.59","","key","null","16.674000000000056","640","360.5","","","","","","","",""
"660.7000000001863","arrowleft","psychophysics","125","174026","0.0-3.0-0.60","","key","arrowleft","16.673999999999815","640","360.5","61","3","1","23","35","25","35","false"
"null","null","psychophysics","126","175028","0.0-3.0-1.60","","key","null","16.674000000000056","640","360.5","","","","","","","",""
"789.1000000000931","arrowleft","psychophysics","127","175820","0.0-3.0-0.61","","key","arrowleft","16.673999999999687","640","360.5","62","3","-1","30","35","25","35","true"
"null","null","psychophysics","128","176826","0.0-3.0-1.61","","key","null","16.674000000000056","640","360.5","","","","","","","",""
"1245.4000000003725","arrowleft","psychophysics","129","178074","0.0-3.0-0.62","","key","arrowleft","16.674000000000248","640","360.5","63","3","-1","25","35","25","35","true"
"null","null","psychophysics","130","179076","0.0-3.0-1.62","","key","null","16.674000000000056","640","360.5","","","","","","","",""
"1079.5","arrowleft","psychophysics","131","180158","0.0-3.0-0.63","","key","arrowleft","16.57856249999986","640","360.5","64","3","1","26","35","25","35","false"
"null","null","psychophysics","132","181159","0.0-3.0-1.63","","key","null","16.674000000000056","640","360.5","","","","","","","",""
"488.8000000002794","arrowleft","psychophysics","133","181655","0.0-3.0-0.64","","key","arrowleft","16.67400000000007","640","360.5","65","3","1","25","15","25","35","false"
"null","null","psychophysics","134","182658","0.0-3.0-1.64","","key","null","16.674000000000056","640","360.5","","","","","","","",""
"1145.3999999999069","arrowleft","psychophysics","135","183806","0.0-3.0-0.65","","key","arrowleft","16.673999999999925","640","360.5","66","3","-1","26","35","25","35","true"
"null","null","psychophysics","136","184811","0.0-3.0-1.65","","key","null","16.674000000000056","640","360.5","","","","","","","",""
"1428.5","arrowright","psychophysics","137","186242","0.0-3.0-0.66","","key","arrowright","16.674000000000095","640","360.5","67","3","1","26","35","25","35","true"
"null","null","psychophysics","138","187246","0.0-3.0-1.66","","key","null","16.674000000000056","640","360.5","","","","","","","",""
"623.1000000000931","arrowleft","psychophysics","139","187871","0.0-3.0-0.67","","key","arrowleft","16.673999999999854","640","360.5","68","3","-1","23","35","25","35","true"
"null","null","psychophysics","140","188873","0.0-3.0-1.67","","key","null","16.674000000000056","640","360.5","","","","","","","",""
"489.10000000009313","arrowleft","psychophysics","141","189364","0.0-3.0-0.68","","key","arrowleft","16.67400000000011","640","360.5","69","3","1","23","15","25","35","false"
"null","null","psychophysics","142","190369","0.0-3.0-1.68","","key","null","16.674000000000056","640","360.5","","","","","","","",""
"1260.1999999997206","arrowleft","psychophysics","143","191635","0.0-3.0-0.69","","key","arrowleft","16.673999999999843","640","360.5","70","3","-1","23","35","25","35","true"
"null","null","psychophysics","144","192638","0.0-3.0-1.69","","key","null","16.67400000000004","640","360.5","","","","","","","",""
"488.1999999997206","arrowleft","psychophysics","145","193130","0.0-3.0-0.70","","key","arrowleft","16.67400000000011","640","360.5","71","3","1","23","15","25","35","false"
"null","null","psychophysics","146","194131","0.0-3.0-1.70","","key","null","16.674000000000056","640","360.5","","","","","","","",""
"510.89999999990687","arrowleft","psychophysics","147","194645","0.0-3.0-0.71","","key","arrowleft","16.67400000000004","640","360.5","72","3","1","26","15","25","35","false"
"null","null","psychophysics","148","195651","0.0-3.0-1.71","","key","null","16.674000000000056","640","360.5","","","","","","","",""
"1002.8999999999069","arrowright","psychophysics","149","196656","0.0-3.0-0.72","","key","arrowright","16.674000000000056","640","360.5","73","3","1","30","35","25","35","true"
"null","null","psychophysics","150","197660","0.0-3.0-1.72","","key","null","16.67400000000004","640","360.5","","","","","","","",""
"483.20000000018626","arrowleft","psychophysics","151","198146","0.0-3.0-0.73","","key","arrowleft","16.67399999999907","640","360.5","74","3","1","26","15","25","35","false"
"null","null","psychophysics","152","199147","0.0-3.0-1.73","","key","null","16.673999999999563","640","360.5","","","","","","","",""
"1159.2000000001863","arrowleft","psychophysics","153","200308","0.0-3.0-0.74","","key","arrowleft","16.684235294117943","640","360.5","75","3","-1","24","35","25","35","true"
"null","null","psychophysics","154","201310","0.0-3.0-1.74","","key","null","16.67400000000004","640","360.5","","","","","","","",""
"451.3000000002794","arrowright","psychophysics","155","201764","0.0-3.0-0.75","","key","arrowright","16.674000000000188","640","360.5","76","3","-1","30","15","25","35","false"
"null","null","psychophysics","156","202766","0.0-3.0-1.75","","key","null","16.673999999999563","640","360.5","","","","","","","",""
"581.9000000003725","arrowleft","psychophysics","157","203350","0.0-3.0-0.76","","key","arrowleft","16.67400000000078","640","360.5","77","3","1","20","15","25","35","false"
"null","null","psychophysics","158","204353","0.0-3.0-1.76","","key","null","16.674000000000056","640","360.5","","","","","","","",""
"1578.1000000000931","arrowleft","psychophysics","159","205934","0.0-3.0-0.77","","key","arrowleft","16.673999999999996","640","360.5","78","3","-1","25","35","25","35","true"
"null","null","psychophysics","160","206935","0.0-3.0-1.77","","key","null","16.673999999999563","640","360.5","","","","","","","",""
"1414.2999999998137","arrowleft","psychophysics","161","208352","0.0-3.0-0.78","","key","arrowleft","16.67400000000011","640","360.5","79","3","-1","30","35","25","35","true"
"null","null","psychophysics","162","209353","0.0-3.0-1.78","","key","null","16.674000000000056","640","360.5","","","","","","","",""
"640","arrowright","psychophysics","163","209996","0.0-3.0-0.79","","key","arrowright","16.673999999999854","640","360.5","80","3","-1","25","15","25","35","false"
"null","null","psychophysics","164","210998","0.0-3.0-1.79","","key","null","16.67400000000004","640","360.5","","","","","","","",""
"1339.4000000003725","arrowleft","psychophysics","165","212340","0.0-3.0-0.80","","key","arrowleft","16.674000000000174","640","360.5","81","3","-1","20","35","25","35","true"
"null","null","psychophysics","166","213343","0.0-3.0-1.80","","key","null","16.674000000000056","640","360.5","","","","","","","",""
"1510.2000000001863","arrowleft","psychophysics","167","214855","0.0-3.0-0.81","","key","arrowleft","16.67400000000004","640","360.5","82","3","-1","20","35","25","35","true"
"null","null","psychophysics","168","215857","0.0-3.0-1.81","","key","null","16.674000000000056","640","360.5","","","","","","","",""
"1532.6000000000931","arrowleft","psychophysics","169","217392","0.0-3.0-0.82","","key","arrowleft","16.674000000000028","640","360.5","83","3","-1","26","35","25","35","true"
"null","null","psychophysics","170","218393","0.0-3.0-1.82","","key","null","16.673999999999563","640","360.5","","","","","","","",""
"761.7000000001863","arrowleft","psychophysics","171","219157","0.0-3.0-0.83","","key","arrowleft","16.674000000000362","640","360.5","84","4","1","24","35","25","35","false"
"null","null","psychophysics","172","220159","0.0-3.0-1.83","","key","null","16.685576271186328","640","360.5","","","","","","","",""
"899.1000000000931","arrowleft","html-keyboard-response","173","221059","0.0-3.0-2.83-0.83","<div style=""color: white; text-align: center; vertical-align: top; display: inline-block; width: 800px; margin: auto""><p>You have completed 30% of the trials. You are on block 4 of 10. <br>Good job! Take a break if you need to.</p><p>Press any key to continue the experiment.</p></div>","","","","","","","","","","","","",""
"432.5","arrowleft","psychophysics","174","222497","0.0-3.0-0.84","","key","arrowleft","16.674000000000188","640","360.5","85","4","1","25","15","25","35","false"
"null","null","psychophysics","175","223499","0.0-3.0-1.84","","key","null","16.674000000000056","640","360.5","","","","","","","",""
"424.70000000018626","arrowright","psychophysics","176","223926","0.0-3.0-0.85","","key","arrowright","16.67399999999907","640","360.5","86","4","-1","25","15","25","35","false"
"null","null","psychophysics","177","224927","0.0-3.0-1.85","","key","null","16.674000000000056","640","360.5","","","","","","","",""
"384.29999999981374","arrowleft","psychophysics","178","225314","0.0-3.0-0.86","","key","arrowleft","16.67400000000039","640","360.5","87","4","1","20","15","25","35","false"
"null","null","psychophysics","179","226317","0.0-3.0-1.86","","key","null","16.674000000000056","640","360.5","","","","","","","",""
"539","arrowright","psychophysics","180","226858","0.0-3.0-0.87","","key","arrowright","16.673999999999978","640","360.5","88","4","-1","24","15","25","35","false"
"null","null","psychophysics","181","227859","0.0-3.0-1.87","","key","null","16.674000000000056","640","360.5","","","","","","","",""
"375.5","arrowright","psychophysics","182","228237","0.0-3.0-0.88","","key","arrowright","16.674000000000454","640","360.5","89","4","-1","20","15","25","35","false"
"null","null","psychophysics","183","229240","0.0-3.0-1.88","","key","null","16.67400000000004","640","360.5","","","","","","","",""
"421.8000000002794","arrowleft","psychophysics","184","229665","0.0-3.0-0.89","","key","arrowleft","16.67399999999907","640","360.5","90","4","1","25","35","25","35","false"
"null","null","psychophysics","185","230668","0.0-3.0-1.89","","key","null","16.674000000000056","640","360.5","","","","","","","",""
"350.10000000009313","arrowright","psychophysics","186","231021","0.0-3.0-0.90","","key","arrowright","16.674000000000525","640","360.5","91","4","-1","25","15","25","35","false"
"null","null","psychophysics","187","232024","0.0-3.0-1.90","","key","null","16.674000000000056","640","360.5","","","","","","","",""
"467.09999999962747","arrowleft","psychophysics","188","232497","0.0-3.0-0.91","","key","arrowleft","16.67400000000011","640","360.5","92","4","1","20","35","25","35","false"
"null","null","psychophysics","189","233501","0.0-3.0-1.91","","key","null","16.674000000000056","640","360.5","","","","","","","",""
"445.60000000009313","arrowright","psychophysics","190","233949","0.0-3.0-0.92","","key","arrowright","16.674000000000188","640","360.5","93","4","-1","27","15","25","35","false"
"null","null","psychophysics","191","234952","0.0-3.0-1.92","","key","null","16.674000000000056","640","360.5","","","","","","","",""
"379.90000000037253","arrowright","psychophysics","192","235334","0.0-3.0-0.93","","key","arrowright","16.67399999999907","640","360.5","94","4","-1","25","15","25","35","false"
"null","null","psychophysics","193","236335","0.0-3.0-1.93","","key","null","16.674000000000056","640","360.5","","","","","","","",""
"382","arrowleft","psychophysics","194","236720","0.0-3.0-0.94","","key","arrowleft","16.67400000000039","640","360.5","95","4","1","30","15","25","35","false"
"null","null","psychophysics","195","237723","0.0-3.0-1.94","","key","null","16.674000000000056","640","360.5","","","","","","","",""
"374.09999999962747","arrowleft","psychophysics","196","238100","0.0-3.0-0.95","","key","arrowleft","16.67400000000039","640","360.5","96","4","1","27","15","25","35","false"
"null","null","psychophysics","197","239101","0.0-3.0-1.95","","key","null","16.674000000000056","640","360.5","","","","","","","",""
"428.89999999990687","arrowleft","psychophysics","198","239532","0.0-3.0-0.96","","key","arrowleft","16.67399999999907","640","360.5","97","4","1","30","15","25","35","false"
"null","null","psychophysics","199","240536","0.0-3.0-1.96","","key","null","16.685559322033967","640","360.5","","","","","","","",""
"381.8000000002794","arrowright","psychophysics","200","240920","0.0-3.0-0.97","","key","arrowright","16.67400000000039","640","360.5","98","4","-1","26","15","25","35","false"
"null","null","psychophysics","201","241922","0.0-3.0-1.97","","key","null","16.674000000000056","640","360.5","","","","","","","",""
"353.1999999997206","arrowright","psychophysics","202","242277","0.0-3.0-0.98","","key","arrowright","16.674000000000525","640","360.5","99","4","-1","24","15","25","35","false"
"null","null","psychophysics","203","243280","0.0-3.0-1.98","","key","null","16.674000000000056","640","360.5","","","","","","","",""
"352","arrowleft","psychophysics","204","243637","0.0-3.0-0.99","","key","arrowleft","16.67399999999907","640","360.5","100","4","1","24","15","25","35","false"
"null","null","psychophysics","205","244640","0.0-3.0-1.99","","key","null","16.674000000000056","640","360.5","","","","","","","",""
"826.3999999999069","arrowleft","psychophysics","206","245469","0.0-3.0-0.100","","key","arrowleft","16.674000000000255","640","360.5","101","4","-1","30","35","25","35","true"
"null","null","psychophysics","207","246471","0.0-3.0-1.100","","key","null","16.674000000000056","640","360.5","","","","","","","",""
"403","arrowright","psychophysics","208","246876","0.0-3.0-0.101","","key","arrowright","16.67399999999907","640","360.5","102","4","-1","30","15","25","35","false"
"null","null","psychophysics","209","247877","0.0-3.0-1.101","","key","null","16.674000000000056","640","360.5","","","","","","","",""
"617.2000000001863","arrowleft","psychophysics","210","248497","0.0-3.0-0.102","","key","arrowleft","16.674000000000685","640","360.5","103","4","1","27","35","25","35","false"
"null","null","psychophysics","211","249500","0.0-3.0-1.102","","key","null","16.673999999999555","640","360.5","","","","","","","",""
"884.7999999998137","arrowleft","psychophysics","212","250388","0.0-3.0-0.103","","key","arrowleft","16.67399999999963","640","360.5","104","4","-1","27","35","25","35","true"
"null","null","psychophysics","213","251390","0.0-3.0-1.103","","key","null","16.674000000000056","640","360.5","","","","","","","",""
"480.10000000009313","arrowright","psychophysics","214","251872","0.0-3.0-0.104","","key","arrowright","16.67400000000011","640","360.5","105","4","-1","26","15","25","35","false"
"null","null","psychophysics","215","252874","0.0-3.0-1.104","","key","null","16.674000000000056","640","360.5","","","","","","","",""
"1014.6999999997206","arrowleft","psychophysics","216","253890","0.0-3.0-0.105","","key","arrowleft","16.67400000000004","640","360.5","106","4","1","20","35","25","35","false"
"null","null","psychophysics","217","254896","0.0-3.0-1.105","","key","null","16.674000000000056","640","360.5","","","","","","","",""
"678","arrowleft","psychophysics","218","255577","0.0-3.0-0.106","","key","arrowleft","16.673999999999797","640","360.5","107","4","-1","27","35","25","35","true"
"null","null","psychophysics","219","256581","0.0-3.0-1.106","","key","null","16.674000000000056","640","360.5","","","","","","","",""
"461.3000000002794","arrowright","psychophysics","220","257045","0.0-3.0-0.107","","key","arrowright","16.674000000000145","640","360.5","108","4","-1","25","15","25","35","false"
"null","null","psychophysics","221","258048","0.0-3.0-1.107","","key","null","16.674000000000056","640","360.5","","","","","","","",""
"858.3999999999069","arrowleft","psychophysics","222","258909","0.0-3.0-0.108","","key","arrowleft","16.67400000000021","640","360.5","109","4","1","27","35","25","35","false"
"null","null","psychophysics","223","259911","0.0-3.0-1.108","","key","null","16.68627118644052","640","360.5","","","","","","","",""
"1401.2999999998137","arrowleft","psychophysics","224","261314","0.0-3.0-0.109","","key","arrowleft","16.67400000000012","640","360.5","110","4","1","20","35","25","35","false"
"null","null","psychophysics","225","262318","0.0-3.0-1.109","","key","null","16.674000000000056","640","360.5","","","","","","","",""
"1331.8999999999069","arrowleft","psychophysics","226","263652","0.0-3.0-0.110","","key","arrowleft","16.673999999999804","640","360.5","111","4","-1","25","35","25","35","true"
"null","null","psychophysics","227","264656","0.0-3.0-1.110","","key","null","16.674000000000056","640","360.5","","","","","","","",""
"1379.7999999998137","arrowleft","psychophysics","228","266039","0.0-3.0-0.111","","key","arrowleft","16.67399999999978","640","360.5","112","5","1","23","35","25","35","false"
"null","null","psychophysics","229","267042","0.0-3.0-1.111","","key","null","16.674000000000056","640","360.5","","","","","","","",""
"11551.80000000028","arrowleft","html-keyboard-response","230","278596","0.0-3.0-2.111-0.111","<div style=""color: white; text-align: center; vertical-align: top; display: inline-block; width: 800px; margin: auto""><p>You have completed 40% of the trials. You are on block 5 of 10. <br>Good job! Take a break if you need to.</p><p>Press any key to continue the experiment.</p></div>","","","","","","","","","","","","",""
"647.1000000000931","arrowright","psychophysics","231","280251","0.0-3.0-0.112","","key","arrowright","16.67400000000056","640","360.5","113","5","-1","27","15","25","35","false"
"null","null","psychophysics","232","281253","0.0-3.0-1.112","","key","null","16.674000000000056","640","360.5","","","","","","","",""
"522.6000000000931","arrowleft","psychophysics","233","281778","0.0-3.0-0.113","","key","arrowleft","16.67399999999907","640","360.5","114","5","-1","20","35","25","35","true"
"null","null","psychophysics","234","282783","0.0-3.0-1.113","","key","null","16.674000000000056","640","360.5","","","","","","","",""
"422.29999999981374","arrowleft","psychophysics","235","283213","0.0-3.0-0.114","","key","arrowleft","16.674000000001396","640","360.5","115","5","1","23","15","25","35","false"
"null","null","psychophysics","236","284216","0.0-3.0-1.114","","key","null","16.674000000000056","640","360.5","","","","","","","",""
"620.1000000000931","arrowright","psychophysics","237","284840","0.0-3.0-0.115","","key","arrowright","16.67399999999907","640","360.5","116","5","-1","27","15","25","35","false"
"null","null","psychophysics","238","285842","0.0-3.0-1.115","","key","null","16.674000000000056","640","360.5","","","","","","","",""
"650.6999999997206","arrowleft","psychophysics","239","286497","0.0-3.0-0.116","","key","arrowleft","16.67400000000056","640","360.5","117","5","-1","24","35","25","35","true"
"null","null","psychophysics","240","287501","0.0-3.0-1.116","","key","null","16.674000000000056","640","360.5","","","","","","","",""
"597.3999999999069","arrowleft","psychophysics","241","288102","0.0-3.0-0.117","","key","arrowleft","16.67399999999907","640","360.5","118","5","-1","26","35","25","35","true"
"null","null","psychophysics","242","289105","0.0-3.0-1.117","","key","null","16.674000000000056","640","360.5","","","","","","","",""
"496.39999999990687","arrowright","psychophysics","243","289604","0.0-3.0-0.118","","key","arrowright","16.674000000001076","640","360.5","119","5","-1","27","15","25","35","false"
"null","null","psychophysics","244","290609","0.0-3.0-1.118","","key","null","16.674000000000056","640","360.5","","","","","","","",""
"753.8999999999069","arrowleft","psychophysics","245","291366","0.0-3.0-0.119","","key","arrowleft","16.67399999999907","640","360.5","120","5","-1","24","35","25","35","true"
"null","null","psychophysics","246","292372","0.0-3.0-1.119","","key","null","16.674000000000056","640","360.5","","","","","","","",""
"594.3999999999069","arrowleft","psychophysics","247","292970","0.0-3.0-0.120","","key","arrowleft","16.67400000000073","640","360.5","121","5","1","27","15","25","35","false"
"null","null","psychophysics","248","293974","0.0-3.0-1.120","","key","null","16.674000000000056","640","360.5","","","","","","","",""
"874.2000000001863","arrowleft","psychophysics","249","294851","0.0-3.0-0.121","","key","arrowleft","16.674000000000188","640","360.5","122","5","1","24","35","25","35","false"
"null","null","psychophysics","250","295854","0.0-3.0-1.121","","key","null","16.674000000000056","640","360.5","","","","","","","",""
"493.39999999990687","arrowright","psychophysics","251","296350","0.0-3.0-0.122","","key","arrowright","16.67399999999907","640","360.5","123","5","-1","25","15","25","35","false"
"null","null","psychophysics","252","297353","0.0-3.0-1.122","","key","null","16.674000000000056","640","360.5","","","","","","","",""
"505.60000000009313","arrowleft","psychophysics","253","297861","0.0-3.0-0.123","","key","arrowleft","16.674000000001076","640","360.5","124","5","1","26","35","25","35","false"
"null","null","psychophysics","254","298862","0.0-3.0-1.123","","key","null","16.56543333333296","640","360.5","","","","","","","",""
"500.10000000009313","arrowleft","psychophysics","255","299365","0.0-3.0-0.124","","key","arrowleft","16.674000000001076","640","360.5","125","5","1","23","15","25","35","false"
"null","null","psychophysics","256","300371","0.0-3.0-1.124","","key","null","16.674000000000056","640","360.5","","","","","","","",""
"1009.2000000001863","arrowleft","psychophysics","257","301382","0.0-3.0-0.125","","key","arrowleft","16.67400000000004","640","360.5","126","5","-1","30","35","25","35","true"
"null","null","psychophysics","258","302385","0.0-3.0-1.125","","key","null","16.67399999999907","640","360.5","","","","","","","",""
"427.20000000018626","arrowleft","psychophysics","259","302815","0.0-3.0-0.126","","key","arrowleft","16.674000000001396","640","360.5","127","5","1","26","15","25","35","false"
"null","null","psychophysics","260","303816","0.0-3.0-1.126","","key","null","16.674000000000056","640","360.5","","","","","","","",""
"1257.8999999999069","arrowleft","psychophysics","261","305077","0.0-3.0-0.127","","key","arrowleft","16.673999999999854","640","360.5","128","5","-1","27","35","25","35","true"
"null","null","psychophysics","262","306078","0.0-3.0-1.127","","key","null","16.674000000000056","640","360.5","","","","","","","",""
"476.79999999981374","arrowright","psychophysics","263","306560","0.0-3.0-0.128","","key","arrowright","16.67399999999907","640","360.5","129","5","-1","26","15","25","35","false"
"null","null","psychophysics","264","307565","0.0-3.0-1.128","","key","null","16.67400000000004","640","360.5","","","","","","","",""
"526.8999999999069","arrowleft","psychophysics","265","308095","0.0-3.0-0.129","","key","arrowleft","16.67400000000101","640","360.5","130","5","1","30","15","25","35","false"
"null","null","psychophysics","266","309097","0.0-3.0-1.129","","key","null","16.674000000000056","640","360.5","","","","","","","",""
"523.1000000000931","arrowright","psychophysics","267","309628","0.0-3.0-0.130","","key","arrowright","16.67399999999907","640","360.5","131","5","-1","25","15","25","35","false"
"null","null","psychophysics","268","310631","0.0-3.0-1.130","","key","null","16.67400000000004","640","360.5","","","","","","","",""
"427.20000000018626","arrowleft","psychophysics","269","311062","0.0-3.0-0.131","","key","arrowleft","16.674000000001495","640","360.5","132","5","1","23","15","25","35","false"
"null","null","psychophysics","270","312065","0.0-3.0-1.131","","key","null","16.674000000000056","640","360.5","","","","","","","",""
"424.5","arrowleft","psychophysics","271","312495","0.0-3.0-0.132","","key","arrowleft","16.67399999999907","640","360.5","133","5","1","25","15","25","35","false"
"null","null","psychophysics","272","313499","0.0-3.0-1.132","","key","null","16.674000000000056","640","360.5","","","","","","","",""
"499.59999999962747","arrowright","psychophysics","273","314004","0.0-3.0-0.133","","key","arrowright","16.67400000000101","640","360.5","134","5","-1","24","15","25","35","false"
"null","null","psychophysics","274","315005","0.0-3.0-1.133","","key","null","16.674000000000056","640","360.5","","","","","","","",""
"481","arrowleft","psychophysics","275","315489","0.0-3.0-0.134","","key","arrowleft","16.67399999999907","640","360.5","135","5","-1","23","35","25","35","true"
"null","null","psychophysics","276","316490","0.0-3.0-1.134","","key","null","16.674000000000056","640","360.5","","","","","","","",""
"490.09999999962747","arrowright","psychophysics","277","316982","0.0-3.0-0.135","","key","arrowright","16.67399999999907","640","360.5","136","5","-1","24","15","25","35","false"
"null","null","psychophysics","278","317985","0.0-3.0-1.135","","key","null","16.674000000000056","640","360.5","","","","","","","",""
"415.5","arrowleft","psychophysics","279","318405","0.0-3.0-0.136","","key","arrowleft","16.674000000001396","640","360.5","137","5","1","24","15","25","35","false"
"null","null","psychophysics","280","319406","0.0-3.0-1.136","","key","null","16.68545762711832","640","360.5","","","","","","","",""
"667.5","arrowleft","psychophysics","281","320075","0.0-3.0-0.137","","key","arrowleft","16.67400000000056","640","360.5","138","5","-1","30","35","25","35","true"
"null","null","psychophysics","282","321081","0.0-3.0-1.137","","key","null","16.674000000000056","640","360.5","","","","","","","",""
"708.1000000000931","arrowleft","psychophysics","283","321791","0.0-3.0-0.138","","key","arrowleft","16.67399999999907","640","360.5","139","5","1","27","35","25","35","false"
"null","null","psychophysics","284","322792","0.0-3.0-1.138","","key","null","16.674000000000056","640","360.5","","","","","","","",""
"461.79999999981374","arrowleft","psychophysics","285","323257","0.0-3.0-0.139","","key","arrowleft","16.674000000001225","640","360.5","140","6","1","27","15","25","35","false"
"null","null","psychophysics","286","324258","0.0-3.0-1.139","","key","null","16.674000000000056","640","360.5","","","","","","","",""
"1005.7000000001863","arrowleft","html-keyboard-response","287","325265","0.0-3.0-2.139-0.139","<div style=""color: white; text-align: center; vertical-align: top; display: inline-block; width: 800px; margin: auto""><p>You have completed 50% of the trials. You are on block 6 of 10. <br>Good job! Take a break if you need to.</p><p>Press any key to continue the experiment.</p></div>","","","","","","","","","","","","",""
"3625","arrowleft","psychophysics","288","329896","0.0-3.0-0.140","","key","arrowleft","16.673999999999868","640","360.5","141","6","1","26","35","25","35","false"
"null","null","psychophysics","289","330897","0.0-3.0-1.140","","key","null","16.674000000000056","640","360.5","","","","","","","",""
"530.2000000001863","arrowleft","psychophysics","290","331430","0.0-3.0-0.141","","key","arrowleft","16.674000000000948","640","360.5","142","6","1","27","15","25","35","false"
"null","null","psychophysics","291","332432","0.0-3.0-1.141","","key","null","16.674000000000056","640","360.5","","","","","","","",""
"1214.2000000001863","arrowleft","psychophysics","292","333648","0.0-3.0-0.142","","key","arrowleft","16.67399999999988","640","360.5","143","6","1","27","35","25","35","false"
"null","null","psychophysics","293","334649","0.0-3.0-1.142","","key","null","16.674000000000056","640","360.5","","","","","","","",""
"1472.7000000001863","arrowleft","psychophysics","294","336124","0.0-3.0-0.143","","key","arrowleft","16.673999999999737","640","360.5","144","6","-1","25","35","25","35","true"
"null","null","psychophysics","295","337126","0.0-3.0-1.143","","key","null","16.674000000000056","640","360.5","","","","","","","",""
"2528.6999999997206","arrowleft","psychophysics","296","339664","0.0-3.0-0.144","","key","arrowleft","16.678807947019866","640","360.5","145","6","-1","23","35","25","35","true"
"null","null","psychophysics","297","340667","0.0-3.0-1.144","","key","null","16.674000000000056","640","360.5","","","","","","","",""
"444.89999999990687","arrowleft","psychophysics","298","341117","0.0-3.0-0.145","","key","arrowleft","16.674000000001307","640","360.5","146","6","1","26","15","25","35","false"
"null","null","psychophysics","299","342122","0.0-3.0-1.145","","key","null","16.67400000000004","640","360.5","","","","","","","",""
"1210.5","arrowright","psychophysics","300","343337","0.0-3.0-0.146","","key","arrowright","16.67399999999989","640","360.5","147","6","1","26","35","25","35","true"
"null","null","psychophysics","301","344341","0.0-3.0-1.146","","key","null","16.674000000000056","640","360.5","","","","","","","",""
"802.6000000000931","arrowright","psychophysics","302","345150","0.0-3.0-0.147","","key","arrowright","16.67399999999907","640","360.5","148","6","-1","20","35","25","35","false"
"null","null","psychophysics","303","346152","0.0-3.0-1.147","","key","null","16.674000000000056","640","360.5","","","","","","","",""
"1813.1999999997206","arrowleft","psychophysics","304","347969","0.0-3.0-0.148","","key","arrowleft","16.674000000000145","640","360.5","149","6","1","25","35","25","35","false"
"null","null","psychophysics","305","348972","0.0-3.0-1.148","","key","null","16.674000000000056","640","360.5","","","","","","","",""
"548","arrowright","psychophysics","306","349523","0.0-3.0-0.149","","key","arrowright","16.674000000000888","640","360.5","150","6","-1","27","15","25","35","false"
"null","null","psychophysics","307","350525","0.0-3.0-1.149","","key","null","16.674000000000056","640","360.5","","","","","","","",""
"797.1999999997206","arrowleft","psychophysics","308","351325","0.0-3.0-0.150","","key","arrowleft","16.67399999999907","640","360.5","151","6","-1","26","35","25","35","true"
"null","null","psychophysics","309","352332","0.0-3.0-1.150","","key","null","16.674000000000056","640","360.5","","","","","","","",""
"1168.6000000000931","arrowleft","psychophysics","310","353504","0.0-3.0-0.151","","key","arrowleft","16.67399999999991","640","360.5","152","6","1","20","35","25","35","false"
"null","null","psychophysics","311","354507","0.0-3.0-1.151","","key","null","16.67400000000004","640","360.5","","","","","","","",""
"1469","arrowright","psychophysics","312","355979","0.0-3.0-0.152","","key","arrowright","16.674000000000408","640","360.5","153","6","-1","20","35","25","35","false"
"null","null","psychophysics","313","356986","0.0-3.0-1.152","","key","null","16.674000000000056","640","360.5","","","","","","","",""
"1484.7999999998137","arrowleft","psychophysics","314","358474","0.0-3.0-0.153","","key","arrowleft","16.67399999999973","640","360.5","154","6","1","23","35","25","35","false"
"null","null","psychophysics","315","359477","0.0-3.0-1.153","","key","null","16.68558333333349","640","360.5","","","","","","","",""
"801.5","arrowright","psychophysics","316","360281","0.0-3.0-0.154","","key","arrowright","16.67400000000031","640","360.5","155","6","-1","25","35","25","35","false"
"null","null","psychophysics","317","361287","0.0-3.0-1.154","","key","null","16.674000000000056","640","360.5","","","","","","","",""
"683.6000000000931","arrowright","psychophysics","318","361974","0.0-3.0-0.155","","key","arrowright","16.67399999999907","640","360.5","156","6","1","20","35","25","35","true"
"null","null","psychophysics","319","362979","0.0-3.0-1.155","","key","null","16.674000000000056","640","360.5","","","","","","","",""
"519.1999999997206","arrowright","psychophysics","320","363504","0.0-3.0-0.156","","key","arrowright","16.674000000000948","640","360.5","157","6","-1","30","15","25","35","false"
"null","null","psychophysics","321","364510","0.0-3.0-1.156","","key","null","16.674000000000056","640","360.5","","","","","","","",""
"1628.5","arrowleft","psychophysics","322","366142","0.0-3.0-0.157","","key","arrowleft","16.67399999999967","640","360.5","158","6","-1","27","35","25","35","true"
"null","null","psychophysics","323","367144","0.0-3.0-1.157","","key","null","16.674000000000056","640","360.5","","","","","","","",""
"548.2999999998137","arrowright","psychophysics","324","367694","0.0-3.0-0.158","","key","arrowright","16.674000000000888","640","360.5","159","6","-1","25","15","25","35","false"
"null","null","psychophysics","325","368700","0.0-3.0-1.158","","key","null","16.67400000000004","640","360.5","","","","","","","",""
"551.4000000003725","arrowright","psychophysics","326","369255","0.0-3.0-0.159","","key","arrowright","16.67399999999907","640","360.5","160","6","-1","23","15","25","35","false"
"null","null","psychophysics","327","370257","0.0-3.0-1.159","","key","null","16.674000000000056","640","360.5","","","","","","","",""
"496.79999999981374","arrowright","psychophysics","328","370756","0.0-3.0-0.160","","key","arrowright","16.674000000001076","640","360.5","161","6","-1","23","15","25","35","false"
"null","null","psychophysics","329","371759","0.0-3.0-1.160","","key","null","16.674000000000056","640","360.5","","","","","","","",""
"700.2000000001863","arrowleft","psychophysics","330","372462","0.0-3.0-0.161","","key","arrowleft","16.67400000000049","640","360.5","162","6","1","25","35","25","35","false"
"null","null","psychophysics","331","373466","0.0-3.0-1.161","","key","null","16.67399999999907","640","360.5","","","","","","","",""
"860.4000000003725","arrowright","psychophysics","332","374329","0.0-3.0-0.162","","key","arrowright","16.67399999999907","640","360.5","163","6","1","20","35","25","35","true"
"null","null","psychophysics","333","375331","0.0-3.0-1.162","","key","null","16.674000000000056","640","360.5","","","","","","","",""
"456.39999999990687","arrowright","psychophysics","334","375790","0.0-3.0-0.163","","key","arrowright","16.674000000001225","640","360.5","164","6","-1","20","15","25","35","false"
"null","null","psychophysics","335","376793","0.0-3.0-1.163","","key","null","16.674000000000056","640","360.5","","","","","","","",""
"510.70000000018626","arrowright","psychophysics","336","377305","0.0-3.0-0.164","","key","arrowright","16.67399999999907","640","360.5","165","6","1","23","35","25","35","true"
"null","null","psychophysics","337","378308","0.0-3.0-1.164","","key","null","16.67400000000004","640","360.5","","","","","","","",""
"521.8000000002794","arrowleft","psychophysics","338","378832","0.0-3.0-0.165","","key","arrowleft","16.695433333333735","640","360.5","166","6","1","20","15","25","35","false"
"null","null","psychophysics","339","379841","0.0-3.0-1.165","","key","null","16.674000000000056","640","360.5","","","","","","","",""
"753.2000000001863","arrowright","psychophysics","340","380600","0.0-3.0-0.166","","key","arrowright","16.674000000000362","640","360.5","167","6","1","23","35","25","35","true"
"null","null","psychophysics","341","381603","0.0-3.0-1.166","","key","null","16.674000000000056","640","360.5","","","","","","","",""
"476","arrowright","psychophysics","342","382081","0.0-3.0-0.167","","key","arrowright","16.67399999999907","640","360.5","168","7","-1","30","15","25","35","false"
"null","null","psychophysics","343","383087","0.0-3.0-1.167","","key","null","16.674000000000056","640","360.5","","","","","","","",""
"1021.7999999998137","arrowleft","html-keyboard-response","344","384111","0.0-3.0-2.167-0.167","<div style=""color: white; text-align: center; vertical-align: top; display: inline-block; width: 800px; margin: auto""><p>You have completed 60% of the trials. You are on block 7 of 10. <br>Good job! Take a break if you need to.</p><p>Press any key to continue the experiment.</p></div>","","","","","","","","","","","","",""
"682.2999999998137","arrowleft","psychophysics","345","385799","0.0-3.0-0.168","","key","arrowleft","16.67400000000049","640","360.5","169","7","-1","23","35","25","35","true"
"null","null","psychophysics","346","386801","0.0-3.0-1.168","","key","null","16.674000000000056","640","360.5","","","","","","","",""
"897.7000000001863","arrowleft","psychophysics","347","387701","0.0-3.0-0.169","","key","arrowleft","16.67399999999907","640","360.5","170","7","1","23","35","25","35","false"
"null","null","psychophysics","348","388704","0.0-3.0-1.169","","key","null","16.674000000000056","640","360.5","","","","","","","",""
"532.6000000000931","arrowleft","psychophysics","349","389239","0.0-3.0-0.170","","key","arrowleft","16.674000000000948","640","360.5","171","7","1","20","15","25","35","false"
"null","null","psychophysics","350","390245","0.0-3.0-1.170","","key","null","16.674000000000056","640","360.5","","","","","","","",""
"980.1999999997206","arrowleft","psychophysics","351","391228","0.0-3.0-0.171","","key","arrowleft","16.67400000000007","640","360.5","172","7","-1","23","35","25","35","true"
"null","null","psychophysics","352","392230","0.0-3.0-1.171","","key","null","16.674000000000056","640","360.5","","","","","","","",""
"530.1000000000931","arrowleft","psychophysics","353","392764","0.0-3.0-0.172","","key","arrowleft","16.67399999999907","640","360.5","173","7","1","20","15","25","35","false"
"null","null","psychophysics","354","393765","0.0-3.0-1.172","","key","null","16.674000000000056","640","360.5","","","","","","","",""
"440.60000000009313","arrowleft","psychophysics","355","394212","0.0-3.0-0.173","","key","arrowleft","16.674000000001307","640","360.5","174","7","1","24","15","25","35","false"
"null","null","psychophysics","356","395216","0.0-3.0-1.173","","key","null","16.67400000000004","640","360.5","","","","","","","",""
"433","arrowleft","psychophysics","357","395653","0.0-3.0-0.174","","key","arrowleft","16.67399999999907","640","360.5","175","7","1","26","15","25","35","false"
"null","null","psychophysics","358","396656","0.0-3.0-1.174","","key","null","16.674000000000056","640","360.5","","","","","","","",""
"868.3000000002794","arrowright","psychophysics","359","397526","0.0-3.0-0.175","","key","arrowright","16.67400000000021","640","360.5","176","7","1","30","35","25","35","true"
"null","null","psychophysics","360","398528","0.0-3.0-1.175","","key","null","16.674000000000056","640","360.5","","","","","","","",""
"1026.8999999999069","arrowright","psychophysics","361","399557","0.0-3.0-0.176","","key","arrowright","16.68578688524564","640","360.5","177","7","-1","23","35","25","35","false"
"null","null","psychophysics","362","400563","0.0-3.0-1.176","","key","null","16.674000000000056","640","360.5","","","","","","","",""
"447.5","arrowright","psychophysics","363","401012","0.0-3.0-0.177","","key","arrowright","16.674000000001307","640","360.5","178","7","-1","23","15","25","35","false"
"null","null","psychophysics","364","402014","0.0-3.0-1.177","","key","null","16.67399999999907","640","360.5","","","","","","","",""
"519.1000000000931","arrowleft","psychophysics","365","402535","0.0-3.0-0.178","","key","arrowleft","16.67399999999907","640","360.5","179","7","1","27","15","25","35","false"
"null","null","psychophysics","366","403537","0.0-3.0-1.178","","key","null","16.674000000000056","640","360.5","","","","","","","",""
"799.7999999998137","arrowright","psychophysics","367","404343","0.0-3.0-0.179","","key","arrowright","16.67400000000028","640","360.5","180","7","-1","25","35","25","35","false"
"null","null","psychophysics","368","405344","0.0-3.0-1.179","","key","null","16.674000000000056","640","360.5","","","","","","","",""
"623.6000000000931","arrowright","psychophysics","369","405970","0.0-3.0-0.180","","key","arrowright","16.67399999999907","640","360.5","181","7","-1","30","15","25","35","false"
"null","null","psychophysics","370","406972","0.0-3.0-1.180","","key","null","16.674000000000056","640","360.5","","","","","","","",""
"451.60000000009313","arrowright","psychophysics","371","407430","0.0-3.0-0.181","","key","arrowright","16.674000000001225","640","360.5","182","7","-1","26","15","25","35","false"
"null","null","psychophysics","372","408432","0.0-3.0-1.181","","key","null","16.674000000000056","640","360.5","","","","","","","",""
"1256.7999999998137","arrowright","psychophysics","373","409691","0.0-3.0-0.182","","key","arrowright","16.673999999999843","640","360.5","183","7","-1","20","35","25","35","false"
"null","null","psychophysics","374","410694","0.0-3.0-1.182","","key","null","16.674000000000056","640","360.5","","","","","","","",""
"517.1000000000931","arrowleft","psychophysics","375","411213","0.0-3.0-0.183","","key","arrowleft","16.67399999999907","640","360.5","184","7","1","26","15","25","35","false"
"null","null","psychophysics","376","412214","0.0-3.0-1.183","","key","null","16.674000000000056","640","360.5","","","","","","","",""
"440.70000000018626","arrowleft","psychophysics","377","412657","0.0-3.0-0.184","","key","arrowleft","16.674000000001396","640","360.5","185","7","1","26","15","25","35","false"
"null","null","psychophysics","378","413659","0.0-3.0-1.184","","key","null","16.67400000000004","640","360.5","","","","","","","",""
"769.7999999998137","arrowright","psychophysics","379","414433","0.0-3.0-0.185","","key","arrowright","16.67399999999907","640","360.5","186","7","1","30","35","25","35","true"
"null","null","psychophysics","380","415437","0.0-3.0-1.185","","key","null","16.674000000000056","640","360.5","","","","","","","",""
"1477.5","arrowleft","psychophysics","381","416917","0.0-3.0-0.186","","key","arrowleft","16.67400000000039","640","360.5","187","7","-1","24","35","25","35","true"
"null","null","psychophysics","382","417918","0.0-3.0-1.186","","key","null","16.674000000000056","640","360.5","","","","","","","",""
"1201.2999999998137","arrowright","psychophysics","383","419122","0.0-3.0-0.187","","key","arrowright","16.683845070422738","640","360.5","188","7","-1","27","35","25","35","false"
"null","null","psychophysics","384","420128","0.0-3.0-1.187","","key","null","16.67399999999907","640","360.5","","","","","","","",""
"1522.2000000001863","arrowright","psychophysics","385","421654","0.0-3.0-0.188","","key","arrowright","16.674000000000348","640","360.5","189","7","1","24","35","25","35","true"
"null","null","psychophysics","386","422656","0.0-3.0-1.188","","key","null","16.674000000000056","640","360.5","","","","","","","",""
"1404.1000000000931","arrowleft","psychophysics","387","424062","0.0-3.0-0.189","","key","arrowleft","16.67399999999977","640","360.5","190","7","1","24","35","25","35","false"
"null","null","psychophysics","388","425065","0.0-3.0-1.189","","key","null","16.674000000000056","640","360.5","","","","","","","",""
"540.7000000001863","arrowright","psychophysics","389","425611","0.0-3.0-0.190","","key","arrowright","16.674000000000888","640","360.5","191","7","-1","23","15","25","35","false"
"null","null","psychophysics","390","426616","0.0-3.0-1.190","","key","null","16.674000000000056","640","360.5","","","","","","","",""
"451.60000000009313","arrowleft","psychophysics","391","427071","0.0-3.0-0.191","","key","arrowleft","16.67399999999907","640","360.5","192","7","1","26","15","25","35","false"
"null","null","psychophysics","392","428072","0.0-3.0-1.191","","key","null","16.674000000000056","640","360.5","","","","","","","",""
"430.89999999990687","arrowleft","psychophysics","393","428506","0.0-3.0-0.192","","key","arrowleft","16.674000000001396","640","360.5","193","7","1","24","15","25","35","false"
"null","null","psychophysics","394","429507","0.0-3.0-1.192","","key","null","16.67399999999907","640","360.5","","","","","","","",""
"389.39999999990687","arrowleft","psychophysics","395","429898","0.0-3.0-0.193","","key","arrowleft","16.67399999999907","640","360.5","194","7","1","25","15","25","35","false"
"null","null","psychophysics","396","430901","0.0-3.0-1.193","","key","null","16.674000000000056","640","360.5","","","","","","","",""
"462","arrowright","psychophysics","397","431369","0.0-3.0-0.194","","key","arrowright","16.67399999999907","640","360.5","195","7","-1","30","35","25","35","false"
"null","null","psychophysics","398","432372","0.0-3.0-1.194","","key","null","16.674000000000056","640","360.5","","","","","","","",""
"473.10000000009313","arrowright","psychophysics","399","432847","0.0-3.0-0.195","","key","arrowright","16.674000000001225","640","360.5","196","8","-1","26","15","25","35","false"
"null","null","psychophysics","400","433852","0.0-3.0-1.195","","key","null","16.674000000000056","640","360.5","","","","","","","",""
"42120.60000000009","arrowright","html-keyboard-response","401","475980","0.0-3.0-2.195-0.195","<div style=""color: white; text-align: center; vertical-align: top; display: inline-block; width: 800px; margin: auto""><p>You have completed 70% of the trials. You are on block 8 of 10. <br>Good job! Take a break if you need to.</p><p>Press any key to continue the experiment.</p></div>","","","","","","","","","","","","",""
"505","arrowright","psychophysics","402","477491","0.0-3.0-0.196","","key","arrowright","16.67399999999907","640","360.5","197","8","-1","30","15","25","35","false"
"null","null","psychophysics","403","478495","0.0-3.0-1.196","","key","null","16.674000000000056","640","360.5","","","","","","","",""
"532","arrowleft","psychophysics","404","479029","0.0-3.0-0.197","","key","arrowleft","16.674000000000948","640","360.5","198","8","1","25","35","25","35","false"
"null","null","psychophysics","405","480034","0.0-3.0-1.197","","key","null","16.674000000000056","640","360.5","","","","","","","",""
"868.5999999996275","arrowleft","psychophysics","406","480905","0.0-3.0-0.198","","key","arrowleft","16.67399999999907","640","360.5","199","8","1","26","35","25","35","false"
"null","null","psychophysics","407","481911","0.0-3.0-1.198","","key","null","16.674000000000056","640","360.5","","","","","","","",""
"547.6000000000931","arrowleft","psychophysics","408","482462","0.0-3.0-0.199","","key","arrowleft","16.674000000000888","640","360.5","200","8","1","20","35","25","35","false"
"null","null","psychophysics","409","483465","0.0-3.0-1.199","","key","null","16.674000000000056","640","360.5","","","","","","","",""
"611.6999999997206","arrowleft","psychophysics","410","484079","0.0-3.0-0.200","","key","arrowleft","16.67399999999907","640","360.5","201","8","-1","26","35","25","35","true"
"null","null","psychophysics","411","485084","0.0-3.0-1.200","","key","null","16.674000000000056","640","360.5","","","","","","","",""
"492.39999999990687","arrowleft","psychophysics","412","485579","0.0-3.0-0.201","","key","arrowleft","16.674000000001076","640","360.5","202","8","1","24","15","25","35","false"
"null","null","psychophysics","413","486581","0.0-3.0-1.201","","key","null","16.674000000000056","640","360.5","","","","","","","",""
"475.3000000002794","arrowleft","psychophysics","414","487060","0.0-3.0-0.202","","key","arrowleft","16.67399999999907","640","360.5","203","8","1","30","15","25","35","false"
"null","null","psychophysics","415","488065","0.0-3.0-1.202","","key","null","16.674000000000056","640","360.5","","","","","","","",""
"448.8000000002794","arrowleft","psychophysics","416","488518","0.0-3.0-0.203","","key","arrowleft","16.674000000001307","640","360.5","204","8","1","24","15","25","35","false"
"null","null","psychophysics","417","489519","0.0-3.0-1.203","","key","null","16.674000000000056","640","360.5","","","","","","","",""
"594","arrowleft","psychophysics","418","490116","0.0-3.0-0.204","","key","arrowleft","16.67399999999907","640","360.5","205","8","1","25","15","25","35","false"
"null","null","psychophysics","419","491123","0.0-3.0-1.204","","key","null","16.674000000000056","640","360.5","","","","","","","",""
"577.3000000002794","arrowright","psychophysics","420","491702","0.0-3.0-0.205","","key","arrowright","16.67400000000078","640","360.5","206","8","-1","27","15","25","35","false"
"null","null","psychophysics","421","492705","0.0-3.0-1.205","","key","null","16.674000000000056","640","360.5","","","","","","","",""
"623.8999999999069","arrowleft","psychophysics","422","493331","0.0-3.0-0.206","","key","arrowleft","16.67399999999907","640","360.5","207","8","1","30","35","25","35","false"
"null","null","psychophysics","423","494333","0.0-3.0-1.206","","key","null","16.674000000000056","640","360.5","","","","","","","",""
"453.29999999981374","arrowleft","psychophysics","424","494789","0.0-3.0-0.207","","key","arrowleft","16.674000000001307","640","360.5","208","8","1","24","15","25","35","false"
"null","null","psychophysics","425","495794","0.0-3.0-1.207","","key","null","16.674000000000056","640","360.5","","","","","","","",""
"480.10000000009313","arrowright","psychophysics","426","496278","0.0-3.0-0.208","","key","arrowright","16.399965517240947","640","360.5","209","8","-1","23","15","25","35","false"
"null","null","psychophysics","427","497280","0.0-3.0-1.208","","key","null","16.674000000000056","640","360.5","","","","","","","",""
"900.2000000001863","arrowleft","psychophysics","428","498186","0.0-3.0-0.209","","key","arrowleft","16.674000000000166","640","360.5","210","8","-1","20","35","25","35","true"
"null","null","psychophysics","429","499188","0.0-3.0-1.209","","key","null","16.674000000000056","640","360.5","","","","","","","",""
"868.1999999997206","arrowright","psychophysics","430","500060","0.0-3.0-0.210","","key","arrowright","16.67399999999907","640","360.5","211","8","1","20","35","25","35","true"
"null","null","psychophysics","431","501063","0.0-3.0-1.210","","key","null","16.67399999999907","640","360.5","","","","","","","",""
"471.89999999990687","arrowleft","psychophysics","432","501537","0.0-3.0-0.211","","key","arrowleft","16.674000000001225","640","360.5","212","8","1","26","15","25","35","false"
"null","null","psychophysics","433","502543","0.0-3.0-1.211","","key","null","16.67400000000004","640","360.5","","","","","","","",""
"493.60000000009313","arrowright","psychophysics","434","503039","0.0-3.0-0.212","","key","arrowright","16.67399999999907","640","360.5","213","8","-1","27","15","25","35","false"
"null","null","psychophysics","435","504040","0.0-3.0-1.212","","key","null","16.67400000000004","640","360.5","","","","","","","",""
"483","arrowright","psychophysics","436","504527","0.0-3.0-0.213","","key","arrowright","16.674000000001147","640","360.5","214","8","-1","27","15","25","35","false"
"null","null","psychophysics","437","505529","0.0-3.0-1.213","","key","null","16.674000000000056","640","360.5","","","","","","","",""
"482.3000000002794","arrowleft","psychophysics","438","506014","0.0-3.0-0.214","","key","arrowleft","16.67399999999907","640","360.5","215","8","1","23","15","25","35","false"
"null","null","psychophysics","439","507015","0.0-3.0-1.214","","key","null","16.674000000000056","640","360.5","","","","","","","",""
"406.10000000009313","arrowleft","psychophysics","440","507424","0.0-3.0-0.215","","key","arrowleft","16.674000000001598","640","360.5","216","8","1","24","15","25","35","false"
"null","null","psychophysics","441","508430","0.0-3.0-1.215","","key","null","16.67400000000004","640","360.5","","","","","","","",""
"565.7000000001863","arrowright","psychophysics","442","508998","0.0-3.0-0.216","","key","arrowright","16.67399999999907","640","360.5","217","8","-1","20","15","25","35","false"
"null","null","psychophysics","443","509999","0.0-3.0-1.216","","key","null","16.674000000000056","640","360.5","","","","","","","",""
"652","arrowright","psychophysics","444","510653","0.0-3.0-0.217","","key","arrowright","16.6740000000006","640","360.5","218","8","-1","23","15","25","35","false"
"null","null","psychophysics","445","511655","0.0-3.0-1.217","","key","null","16.674000000000056","640","360.5","","","","","","","",""
"1618.9000000003725","arrowleft","psychophysics","446","513276","0.0-3.0-0.218","","key","arrowleft","16.673999999999676","640","360.5","219","8","-1","25","35","25","35","true"
"null","null","psychophysics","447","514279","0.0-3.0-1.218","","key","null","16.67400000000004","640","360.5","","","","","","","",""
"499.10000000009313","arrowleft","psychophysics","448","514782","0.0-3.0-0.219","","key","arrowleft","16.674000000001076","640","360.5","220","8","1","27","15","25","35","false"
"null","null","psychophysics","449","515783","0.0-3.0-1.219","","key","null","16.674000000000056","640","360.5","","","","","","","",""
"486.5","arrowright","psychophysics","450","516272","0.0-3.0-0.220","","key","arrowright","16.698714285712672","640","360.5","221","8","-1","30","15","25","35","false"
"null","null","psychophysics","451","517274","0.0-3.0-1.220","","key","null","16.674000000000056","640","360.5","","","","","","","",""
"342.20000000018626","arrowleft","psychophysics","452","517618","0.0-3.0-0.221","","key","arrowleft","16.67400000000198","640","360.5","222","8","1","20","15","25","35","false"
"null","null","psychophysics","453","518624","0.0-3.0-1.221","","key","null","16.674000000000056","640","360.5","","","","","","","",""
"543.5","arrowleft","psychophysics","454","519170","0.0-3.0-0.222","","key","arrowleft","16.67399999999907","640","360.5","223","8","1","30","15","25","35","false"
"null","null","psychophysics","455","520175","0.0-3.0-1.222","","key","null","16.674000000000056","640","360.5","","","","","","","",""
"430.10000000009313","arrowleft","psychophysics","456","520608","0.0-3.0-0.223","","key","arrowleft","16.674000000001396","640","360.5","224","9","1","23","15","25","35","false"
"null","null","psychophysics","457","521609","0.0-3.0-1.223","","key","null","16.67399999999907","640","360.5","","","","","","","",""
"724.8999999999069","arrowleft","html-keyboard-response","458","522336","0.0-3.0-2.223-0.223","<div style=""color: white; text-align: center; vertical-align: top; display: inline-block; width: 800px; margin: auto""><p>You have completed 80% of the trials. You are on block 9 of 10. <br>Good job! Take a break if you need to.</p><p>Press any key to continue the experiment.</p></div>","","","","","","","","","","","","",""
"401.79999999981374","arrowright","psychophysics","459","523745","0.0-3.0-0.224","","key","arrowright","16.674000000001495","640","360.5","225","9","-1","27","15","25","35","false"
"null","null","psychophysics","460","524746","0.0-3.0-1.224","","key","null","16.67399999999907","640","360.5","","","","","","","",""
"595.5999999996275","arrowleft","psychophysics","461","525344","0.0-3.0-0.225","","key","arrowleft","16.674000000002394","640","360.5","226","9","-1","24","35","25","35","true"
"null","null","psychophysics","462","526346","0.0-3.0-1.225","","key","null","16.67399999999907","640","360.5","","","","","","","",""
"625.8999999999069","arrowleft","psychophysics","463","526974","0.0-3.0-0.226","","key","arrowleft","16.67399999999907","640","360.5","227","9","-1","25","35","25","35","true"
"null","null","psychophysics","464","527978","0.0-3.0-1.226","","key","null","16.67400000000104","640","360.5","","","","","","","",""
"511.89999999990687","arrowright","psychophysics","465","528492","0.0-3.0-0.227","","key","arrowright","16.67399999999907","640","360.5","228","9","-1","20","15","25","35","false"
"null","null","psychophysics","466","529498","0.0-3.0-1.227","","key","null","16.67400000000104","640","360.5","","","","","","","",""
"475.39999999990687","arrowright","psychophysics","467","529975","0.0-3.0-0.228","","key","arrowright","16.67399999999907","640","360.5","229","9","-1","24","15","25","35","false"
"null","null","psychophysics","468","530981","0.0-3.0-1.228","","key","null","16.67399999999907","640","360.5","","","","","","","",""
"353.90000000037253","arrowleft","psychophysics","469","531337","0.0-3.0-0.229","","key","arrowleft","16.67399999999907","640","360.5","230","9","1","25","15","25","35","false"
"null","null","psychophysics","470","532344","0.0-3.0-1.229","","key","null","16.67400000000101","640","360.5","","","","","","","",""
"822.3000000002794","arrowright","psychophysics","471","533169","0.0-3.0-0.230","","key","arrowright","16.67399999999907","640","360.5","231","9","-1","24","35","25","35","false"
"null","null","psychophysics","472","534172","0.0-3.0-1.230","","key","null","16.67400000000101","640","360.5","","","","","","","",""
"369.5","arrowleft","psychophysics","473","534545","0.0-3.0-0.231","","key","arrowleft","16.67399999999907","640","360.5","232","9","1","20","15","25","35","false"
"null","null","psychophysics","474","535547","0.0-3.0-1.231","","key","null","16.67399999999907","640","360.5","","","","","","","",""
"1322.2999999998137","arrowright","psychophysics","475","536872","0.0-3.0-0.232","","key","arrowright","16.682807692308696","640","360.5","233","9","1","30","35","25","35","true"
"null","null","psychophysics","476","537876","0.0-3.0-1.232","","key","null","16.67399999999907","640","360.5","","","","","","","",""
"1719.3999999999069","arrowleft","psychophysics","477","539598","0.0-3.0-0.233","","key","arrowleft","16.67400000000021","640","360.5","234","9","1","27","35","25","35","false"
"null","null","psychophysics","478","540601","0.0-3.0-1.233","","key","null","16.67400000000104","640","360.5","","","","","","","",""
"754.2999999998137","arrowleft","psychophysics","479","541358","0.0-3.0-0.234","","key","arrowleft","16.67399999999907","640","360.5","235","9","1","30","35","25","35","false"
"null","null","psychophysics","480","542360","0.0-3.0-1.234","","key","null","16.67399999999907","640","360.5","","","","","","","",""
"450.40000000037253","arrowleft","psychophysics","481","542815","0.0-3.0-0.235","","key","arrowleft","16.67400000000338","640","360.5","236","9","1","23","15","25","35","false"
"null","null","psychophysics","482","543816","0.0-3.0-1.235","","key","null","16.67399999999907","640","360.5","","","","","","","",""
"1191.1000000000931","arrowright","psychophysics","483","545009","0.0-3.0-0.236","","key","arrowright","16.67400000000073","640","360.5","237","9","-1","20","35","25","35","false"
"null","null","psychophysics","484","546012","0.0-3.0-1.236","","key","null","16.67399999999907","640","360.5","","","","","","","",""
"851.1000000000931","arrowright","psychophysics","485","546866","0.0-3.0-0.237","","key","arrowright","16.674000000001396","640","360.5","238","9","1","25","35","25","35","true"
"null","null","psychophysics","486","547870","0.0-3.0-1.237","","key","null","16.67399999999907","640","360.5","","","","","","","",""
"539.3000000002794","arrowright","psychophysics","487","548413","0.0-3.0-0.238","","key","arrowright","16.67399999999907","640","360.5","239","9","-1","26","15","25","35","false"
"null","null","psychophysics","488","549416","0.0-3.0-1.238","","key","null","16.67400000000101","640","360.5","","","","","","","",""
"663.8999999999069","arrowleft","psychophysics","489","550082","0.0-3.0-0.239","","key","arrowleft","16.67399999999907","640","360.5","240","9","1","20","35","25","35","false"
"null","null","psychophysics","490","551085","0.0-3.0-1.239","","key","null","16.67400000000104","640","360.5","","","","","","","",""
"515.9000000003725","arrowleft","psychophysics","491","551603","0.0-3.0-0.240","","key","arrowleft","16.67399999999907","640","360.5","241","9","1","30","15","25","35","false"
"null","null","psychophysics","492","552604","0.0-3.0-1.240","","key","null","16.67399999999907","640","360.5","","","","","","","",""
"1087.5","arrowright","psychophysics","493","553694","0.0-3.0-0.241","","key","arrowright","16.674000000000888","640","360.5","242","9","1","30","35","25","35","true"
"null","null","psychophysics","494","554698","0.0-3.0-1.241","","key","null","16.67399999999907","640","360.5","","","","","","","",""
"648.5999999996275","arrowleft","psychophysics","495","555352","0.0-3.0-0.242","","key","arrowleft","16.674000000002053","640","360.5","243","9","1","24","15","25","35","false"
"null","null","psychophysics","496","556354","0.0-3.0-1.242","","key","null","16.685677966100986","640","360.5","","","","","","","",""
"905.6000000000931","arrowright","psychophysics","497","557262","0.0-3.0-0.243","","key","arrowright","16.67399999999907","640","360.5","244","9","-1","27","35","25","35","false"
"null","null","psychophysics","498","558266","0.0-3.0-1.243","","key","null","16.67400000000104","640","360.5","","","","","","","",""
"825.1000000000931","arrowright","psychophysics","499","559097","0.0-3.0-0.244","","key","arrowright","16.67399999999907","640","360.5","245","9","-1","26","35","25","35","false"
"null","null","psychophysics","500","560101","0.0-3.0-1.244","","key","null","16.67400000000104","640","360.5","","","","","","","",""
"550.1000000000931","arrowleft","psychophysics","501","560656","0.0-3.0-0.245","","key","arrowleft","16.67399999999907","640","360.5","246","9","1","30","15","25","35","false"
"null","null","psychophysics","502","561662","0.0-3.0-1.245","","key","null","16.67400000000104","640","360.5","","","","","","","",""
"833.6000000000931","arrowright","psychophysics","503","562498","0.0-3.0-0.246","","key","arrowright","16.67399999999907","640","360.5","247","9","-1","26","35","25","35","false"
"null","null","psychophysics","504","563502","0.0-3.0-1.246","","key","null","16.67399999999907","640","360.5","","","","","","","",""
"1068.2000000001863","arrowright","psychophysics","505","564574","0.0-3.0-0.247","","key","arrowright","16.674000000000888","640","360.5","248","9","-1","23","35","25","35","false"
"null","null","psychophysics","506","565579","0.0-3.0-1.247","","key","null","16.67399999999907","640","360.5","","","","","","","",""
"1226.5","arrowleft","psychophysics","507","566808","0.0-3.0-0.248","","key","arrowleft","16.674000000000664","640","360.5","249","9","1","23","15","25","35","false"
"null","null","psychophysics","508","567810","0.0-3.0-1.248","","key","null","16.67400000000104","640","360.5","","","","","","","",""
"839.1000000000931","arrowright","psychophysics","509","568650","0.0-3.0-0.249","","key","arrowright","16.67399999999907","640","360.5","250","9","-1","30","35","25","35","false"
"null","null","psychophysics","510","569655","0.0-3.0-1.249","","key","null","16.67399999999907","640","360.5","","","","","","","",""
"501","arrowright","psychophysics","511","570162","0.0-3.0-0.250","","key","arrowright","16.67400000000295","640","360.5","251","9","-1","26","15","25","35","false"
"null","null","psychophysics","512","571164","0.0-3.0-1.250","","key","null","16.67399999999907","640","360.5","","","","","","","",""
"532.2999999998137","arrowleft","psychophysics","513","571698","0.0-3.0-0.251","","key","arrowleft","16.67399999999907","640","360.5","252","10","1","24","15","25","35","false"
"null","null","psychophysics","514","572700","0.0-3.0-1.251","","key","null","16.67400000000104","640","360.5","","","","","","","",""
"774.1999999997206","arrowleft","html-keyboard-response","515","573479","0.0-3.0-2.251-0.251","<div style=""color: white; text-align: center; vertical-align: top; display: inline-block; width: 800px; margin: auto""><p>You have completed 90% of the trials. You are on block 10 of 10. <br>Good job! Take a break if you need to.</p><p>Press any key to continue the experiment.</p></div>","","","","","","","","","","","","",""
"1551.2000000001863","arrowleft","psychophysics","516","576037","0.0-3.0-0.252","","key","arrowleft","16.67399999999907","640","360.5","253","10","1","23","35","25","35","false"
"null","null","psychophysics","517","577042","0.0-3.0-1.252","","key","null","16.68549152542403","640","360.5","","","","","","","",""
"471.8000000002794","arrowleft","psychophysics","518","577516","0.0-3.0-0.253","","key","arrowleft","16.674000000003225","640","360.5","254","10","1","30","15","25","35","false"
"null","null","psychophysics","519","578522","0.0-3.0-1.253","","key","null","16.67399999999907","640","360.5","","","","","","","",""
"532.6000000000931","arrowright","psychophysics","520","579057","0.0-3.0-0.254","","key","arrowright","16.67399999999907","640","360.5","255","10","-1","23","15","25","35","false"
"null","null","psychophysics","521","580062","0.0-3.0-1.254","","key","null","16.67400000000101","640","360.5","","","","","","","",""
"1411.1000000000931","arrowleft","psychophysics","522","581477","0.0-3.0-0.255","","key","arrowleft","16.67399999999907","640","360.5","256","10","-1","23","35","25","35","true"
"null","null","psychophysics","523","582480","0.0-3.0-1.255","","key","null","16.67400000000104","640","360.5","","","","","","","",""
"432","arrowright","psychophysics","524","582917","0.0-3.0-0.256","","key","arrowright","16.67399999999907","640","360.5","257","10","-1","25","15","25","35","false"
"null","null","psychophysics","525","583923","0.0-3.0-1.256","","key","null","16.67400000000104","640","360.5","","","","","","","",""
"977.2999999998137","arrowleft","psychophysics","526","584903","0.0-3.0-0.257","","key","arrowleft","16.67399999999907","640","360.5","258","10","1","30","35","25","35","false"
"null","null","psychophysics","527","585905","0.0-3.0-1.257","","key","null","16.67400000000104","640","360.5","","","","","","","",""
"1144.5","arrowleft","psychophysics","528","587052","0.0-3.0-0.258","","key","arrowleft","16.67399999999907","640","360.5","259","10","-1","26","35","25","35","true"
"null","null","psychophysics","529","588059","0.0-3.0-1.258","","key","null","16.67400000000104","640","360.5","","","","","","","",""
"467","arrowleft","psychophysics","530","588528","0.0-3.0-0.259","","key","arrowleft","16.67399999999907","640","360.5","260","10","1","25","15","25","35","false"
"null","null","psychophysics","531","589533","0.0-3.0-1.259","","key","null","16.67399999999907","640","360.5","","","","","","","",""
"760.6000000000931","arrowright","psychophysics","532","590298","0.0-3.0-0.260","","key","arrowright","16.674000000001655","640","360.5","261","10","1","27","35","25","35","true"
"null","null","psychophysics","533","591299","0.0-3.0-1.260","","key","null","16.67399999999907","640","360.5","","","","","","","",""
"552.2999999998137","arrowleft","psychophysics","534","591857","0.0-3.0-0.261","","key","arrowleft","16.67399999999907","640","360.5","262","10","1","25","15","25","35","false"
"null","null","psychophysics","535","592863","0.0-3.0-1.261","","key","null","16.67400000000104","640","360.5","","","","","","","",""
"1575.1000000000931","arrowleft","psychophysics","536","594441","0.0-3.0-0.262","","key","arrowleft","16.67400000000031","640","360.5","263","10","1","27","35","25","35","false"
"null","null","psychophysics","537","595442","0.0-3.0-1.262","","key","null","16.67399999999907","640","360.5","","","","","","","",""
"466.1999999997206","arrowleft","psychophysics","538","595910","0.0-3.0-0.263","","key","arrowleft","16.67399999999907","640","360.5","264","10","1","27","15","25","35","false"
"null","null","psychophysics","539","596916","0.0-3.0-1.263","","key","null","16.68571186440768","640","360.5","","","","","","","",""
"1310.4000000003725","arrowright","psychophysics","540","598229","0.0-3.0-0.264","","key","arrowright","16.67400000000056","640","360.5","265","10","1","23","35","25","35","true"
"null","null","psychophysics","541","599231","0.0-3.0-1.264","","key","null","16.67399999999907","640","360.5","","","","","","","",""
"771.2999999998137","arrowleft","psychophysics","542","600005","0.0-3.0-0.265","","key","arrowleft","16.67399999999907","640","360.5","266","10","1","26","35","25","35","false"
"null","null","psychophysics","543","601008","0.0-3.0-1.265","","key","null","16.67400000000101","640","360.5","","","","","","","",""
"942.2000000001863","arrowright","psychophysics","544","601953","0.0-3.0-0.266","","key","arrowright","16.67399999999907","640","360.5","267","10","-1","27","35","25","35","false"
"null","null","psychophysics","545","602957","0.0-3.0-1.266","","key","null","16.67400000000104","640","360.5","","","","","","","",""
"678.1000000000931","arrowright","psychophysics","546","603641","0.0-3.0-0.267","","key","arrowright","16.67399999999907","640","360.5","268","10","-1","25","35","25","35","false"
"null","null","psychophysics","547","604643","0.0-3.0-1.267","","key","null","16.67400000000101","640","360.5","","","","","","","",""
"1145.3999999999069","arrowright","psychophysics","548","605791","0.0-3.0-0.268","","key","arrowright","16.67399999999907","640","360.5","269","10","1","23","35","25","35","true"
"null","null","psychophysics","549","606794","0.0-3.0-1.268","","key","null","16.67400000000101","640","360.5","","","","","","","",""
"1133.7999999998137","arrowleft","psychophysics","550","607931","0.0-3.0-0.269","","key","arrowleft","16.67399999999907","640","360.5","270","10","1","23","35","25","35","false"
"null","null","psychophysics","551","608937","0.0-3.0-1.269","","key","null","16.67400000000104","640","360.5","","","","","","","",""
"542.2000000001863","arrowright","psychophysics","552","609482","0.0-3.0-0.270","","key","arrowright","16.67399999999907","640","360.5","271","10","-1","25","15","25","35","false"
"null","null","psychophysics","553","610485","0.0-3.0-1.270","","key","null","16.67399999999907","640","360.5","","","","","","","",""
"431.89999999990687","arrowright","psychophysics","554","610919","0.0-3.0-0.271","","key","arrowright","16.674000000003726","640","360.5","272","10","-1","24","15","25","35","false"
"null","null","psychophysics","555","611920","0.0-3.0-1.271","","key","null","16.67399999999907","640","360.5","","","","","","","",""
"834.9000000003725","arrowleft","psychophysics","556","612758","0.0-3.0-0.272","","key","arrowleft","16.674000000001445","640","360.5","273","10","1","26","35","25","35","false"
"null","null","psychophysics","557","613762","0.0-3.0-1.272","","key","null","16.67399999999907","640","360.5","","","","","","","",""
"743.4000000003725","arrowleft","psychophysics","558","614511","0.0-3.0-0.273","","key","arrowleft","16.67399999999907","640","360.5","274","10","1","20","35","25","35","false"
"null","null","psychophysics","559","615513","0.0-3.0-1.273","","key","null","16.67400000000101","640","360.5","","","","","","","",""
"633.5","arrowright","psychophysics","560","616151","0.0-3.0-0.274","","key","arrowright","16.692432432432305","640","360.5","275","10","-1","20","15","25","35","false"
"null","null","psychophysics","561","617153","0.0-3.0-1.274","","key","null","16.67399999999907","640","360.5","","","","","","","",""
"981.7000000001863","arrowleft","psychophysics","562","618137","0.0-3.0-0.275","","key","arrowleft","16.674000000001076","640","360.5","276","10","1","24","35","25","35","false"
"null","null","psychophysics","563","619142","0.0-3.0-1.275","","key","null","16.67399999999907","640","360.5","","","","","","","",""
"473.60000000009313","arrowright","psychophysics","564","619618","0.0-3.0-0.276","","key","arrowright","16.674000000003225","640","360.5","277","10","-1","23","15","25","35","false"
"null","null","psychophysics","565","620620","0.0-3.0-1.276","","key","null","16.67399999999907","640","360.5","","","","","","","",""
"479.90000000037253","arrowleft","psychophysics","566","621105","0.0-3.0-0.277","","key","arrowleft","16.67399999999907","640","360.5","278","10","1","30","15","25","35","false"
"null","null","psychophysics","567","622106","0.0-3.0-1.277","","key","null","16.67400000000104","640","360.5","","","","","","","",""
"1464","arrowleft","psychophysics","568","623572","0.0-3.0-0.278","","key","arrowleft","16.67399999999907","640","360.5","279","10","-1","30","35","25","35","true"
"null","null","psychophysics","569","624575","0.0-3.0-1.278","","key","null","16.67400000000104","640","360.5","","","","","","","",""
"1403.5","arrowright","psychophysics","570","625980","0.0-3.0-0.279","","key","arrowright","16.674000000000472","640","360.5","280","11","-1","24","15","25","35","false"
"null","null","psychophysics","571","626986","0.0-3.0-1.279","","key","null","16.67399999999907","640","360.5","","","","","","","",""
