"rt","response","trial_type","trial_index","time_elapsed","internal_node_id","stimulus","response_type","key_press","avg_frame_time","center_x","center_y","trial","block","test_pos","test_inner_radius","test_outer_radius","ref_inner_radius","ref_outer_radius","test_bigger"
"28214.800000071526","{""p_id"":"" 2859"",""age"":""19"",""handedness"":""left"",""sex"":""male"",""other_sex"":""""}","survey-html-form","0","28218","0.0-0.0","","","","","","","","","","","","","",""
"1490.4000000953674"," ","html-keyboard-response","1","29710","0.0-1.0","<p style=""color: white"">Welcome to the Size Judgment Experiment. <br>There will be 10 blocks in this experiment. <br>There will be 28 trials in each block. <br>You will be given a chance to take a break between blocks. <br>Press any key to start the experiment.</p>","","","","","","","","","","","","",""
"1661.6000000238419"," ","psychophysics","2","31388","0.0-2.0","","key"," ","16.672450000000026","896","504.5","","","","","","","",""
"1233.1000000238419","arrowleft","psychophysics","3","32623","0.0-3.0-0.0","","key","arrowleft","16.66600000000003","896","504.5","1","1","-1","23","15","25","35","true"
"null","null","psychophysics","4","33625","0.0-3.0-1.0","","key","null","16.665999999999986","896","504.5","","","","","","","",""
"567.6999999284744","arrowright","psychophysics","5","34196","0.0-3.0-0.1","","key","arrowright","16.665999999999865","896","504.5","2","1","1","24","15","25","35","true"
"null","null","psychophysics","6","35199","0.0-3.0-1.1","","key","null","16.665999999999904","896","504.5","","","","","","","",""
"626.3000000715256","arrowleft","psychophysics","7","35828","0.0-3.0-0.2","","key","arrowleft","16.665999999999997","896","504.5","3","1","-1","24","35","25","35","true"
"null","null","psychophysics","8","36830","0.0-3.0-1.2","","key","null","16.66600000000003","896","504.5","","","","","","","",""
"619.1000000238419","arrowright","psychophysics","9","37452","0.0-3.0-0.3","","key","arrowright","16.666000000000068","896","504.5","4","1","1","27","35","25","35","true"
"null","null","psychophysics","10","38454","0.0-3.0-1.3","","key","null","16.66600000000003","896","504.5","","","","","","","",""
"471.7000000476837","arrowright","psychophysics","11","38928","0.0-3.0-0.4","","key","arrowright","16.666000000000036","896","504.5","5","1","1","30","35","25","35","true"
"null","null","psychophysics","12","39931","0.0-3.0-1.4","","key","null","16.665999999999904","896","504.5","","","","","","","",""
"461.1999999284744","arrowleft","psychophysics","13","40395","0.0-3.0-0.5","","key","arrowleft","16.665999999999865","896","504.5","6","1","1","27","35","25","35","false"
"null","null","psychophysics","14","41398","0.0-3.0-1.5","","key","null","16.665999999999904","896","504.5","","","","","","","",""
"423.59999990463257","arrowright","psychophysics","15","41825","0.0-3.0-0.6","","key","arrowright","16.665999999999766","896","504.5","7","1","1","30","15","25","35","true"
"null","null","psychophysics","16","42831","0.0-3.0-1.6","","key","null","16.66600000000003","896","504.5","","","","","","","",""
"450.7000000476837","arrowleft","psychophysics","17","43284","0.0-3.0-0.7","","key","arrowleft","16.665999999999958","896","504.5","8","1","1","23","15","25","35","false"
"null","null","psychophysics","18","44287","0.0-3.0-1.7","","key","null","16.66600000000003","896","504.5","","","","","","","",""
"728.7000000476837","arrowleft","psychophysics","19","45019","0.0-3.0-0.8","","key","arrowleft","16.665999999999976","896","504.5","9","1","1","23","35","25","35","false"
"null","null","psychophysics","20","46021","0.0-3.0-1.8","","key","null","16.66600000000003","896","504.5","","","","","","","",""
"568.1000000238419","arrowright","psychophysics","21","46592","0.0-3.0-0.9","","key","arrowright","16.666000000000007","896","504.5","10","1","1","25","15","25","35","true"
"null","null","psychophysics","22","47593","0.0-3.0-1.9","","key","null","16.665999999999904","896","504.5","","","","","","","",""
"467.89999997615814","arrowright","psychophysics","23","48063","0.0-3.0-0.10","","key","arrowright","16.665999999999865","896","504.5","11","1","-1","25","35","25","35","false"
"null","null","psychophysics","24","49066","0.0-3.0-1.10","","key","null","16.66600000000003","896","504.5","","","","","","","",""
"504.2999999523163","arrowleft","psychophysics","25","49577","0.0-3.0-0.11","","key","arrowleft","16.665999999999947","896","504.5","12","1","-1","27","15","25","35","true"
"null","null","psychophysics","26","50579","0.0-3.0-1.11","","key","null","16.68111666666664","896","504.5","","","","","","","",""
"502.10000002384186","arrowright","psychophysics","27","51084","0.0-3.0-0.12","","key","arrowright","16.665999999999947","896","504.5","13","1","-1","20","35","25","35","false"
"null","null","psychophysics","28","52088","0.0-3.0-1.12","","key","null","16.66600000000003","896","504.5","","","","","","","",""
"972.7999999523163","arrowright","psychophysics","29","53062","0.0-3.0-0.13","","key","arrowright","16.666000000000075","896","504.5","14","1","-1","20","15","25","35","false"
"null","null","psychophysics","30","54064","0.0-3.0-1.13","","key","null","16.66600000000003","896","504.5","","","","","","","",""
"557.5","arrowleft","psychophysics","31","54624","0.0-3.0-0.14","","key","arrowleft","16.666000000000167","896","504.5","15","1","-1","27","35","25","35","true"
"null","null","psychophysics","32","55625","0.0-3.0-1.14","","key","null","16.665999999999986","896","504.5","","","","","","","",""
"547","arrowleft","psychophysics","33","56174","0.0-3.0-0.15","","key","arrowleft","16.66600000000002","896","504.5","16","1","-1","26","15","25","35","true"
"null","null","psychophysics","34","57175","0.0-3.0-1.15","","key","null","16.665999999999986","896","504.5","","","","","","","",""
"643.8999999761581","arrowleft","psychophysics","35","57821","0.0-3.0-0.16","","key","arrowleft","16.665999999999997","896","504.5","17","1","-1","25","15","25","35","true"
"null","null","psychophysics","36","58824","0.0-3.0-1.16","","key","null","16.665999999999904","896","504.5","","","","","","","",""
"822.6999999284744","arrowleft","psychophysics","37","59650","0.0-3.0-0.17","","key","arrowleft","16.665999999999965","896","504.5","18","1","1","24","35","25","35","false"
"null","null","psychophysics","38","60654","0.0-3.0-1.17","","key","null","16.66600000000003","896","504.5","","","","","","","",""
"705.3999999761581","arrowright","psychophysics","39","61363","0.0-3.0-0.18","","key","arrowright","16.666000000000036","896","504.5","19","1","-1","23","35","25","35","false"
"null","null","psychophysics","40","62364","0.0-3.0-1.18","","key","null","16.66600000000003","896","504.5","","","","","","","",""
"625.8999999761581","arrowleft","psychophysics","41","62992","0.0-3.0-0.19","","key","arrowleft","16.665999999999997","896","504.5","20","1","-1","24","35","25","35","true"
"null","null","psychophysics","42","63998","0.0-3.0-1.19","","key","null","16.66600000000003","896","504.5","","","","","","","",""
"542.6999999284744","arrowright","psychophysics","43","64543","0.0-3.0-0.20","","key","arrowright","16.66599999999994","896","504.5","21","1","-1","20","35","25","35","false"
"null","null","psychophysics","44","65544","0.0-3.0-1.20","","key","null","16.66600000000003","896","504.5","","","","","","","",""
"658.8999999761581","arrowright","psychophysics","45","66205","0.0-3.0-0.21","","key","arrowright","16.66600000000012","896","504.5","22","1","1","26","15","25","35","true"
"null","null","psychophysics","46","67207","0.0-3.0-1.21","","key","null","16.665999999999904","896","504.5","","","","","","","",""
"544","arrowleft","psychophysics","47","67755","0.0-3.0-0.22","","key","arrowleft","16.666000000000167","896","504.5","23","1","-1","30","35","25","35","true"
"null","null","psychophysics","48","68757","0.0-3.0-1.22","","key","null","16.666000000000153","896","504.5","","","","","","","",""
"467.60000002384186","arrowright","psychophysics","49","69228","0.0-3.0-0.23","","key","arrowright","16.666000000000036","896","504.5","24","1","1","30","35","25","35","true"
"null","null","psychophysics","50","70229","0.0-3.0-1.23","","key","null","16.68138983050831","896","504.5","","","","","","","",""
"452.89999997615814","arrowright","psychophysics","51","70688","0.0-3.0-0.24","","key","arrowright","16.665999999999677","896","504.5","25","1","1","27","35","25","35","true"
"null","null","psychophysics","52","71691","0.0-3.0-1.24","","key","null","16.666000000000153","896","504.5","","","","","","","",""
"462.89999997615814","arrowright","psychophysics","53","72160","0.0-3.0-0.25","","key","arrowright","16.666000000000036","896","504.5","26","1","1","26","35","25","35","true"
"null","null","psychophysics","54","73161","0.0-3.0-1.25","","key","null","16.665999999999904","896","504.5","","","","","","","",""
"454.10000002384186","arrowleft","psychophysics","55","73617","0.0-3.0-0.26","","key","arrowleft","16.665999999999677","896","504.5","27","1","1","26","15","25","35","false"
"null","null","psychophysics","56","74622","0.0-3.0-1.26","","key","null","16.666000000000153","896","504.5","","","","","","","",""
"841.5","arrowleft","psychophysics","57","75466","0.0-3.0-0.27","","key","arrowleft","16.666000000000057","896","504.5","28","2","-1","23","35","25","35","true"
"null","null","psychophysics","58","76472","0.0-3.0-1.27","","key","null","16.665999999999904","896","504.5","","","","","","","",""
"77528.89999997616"," ","html-keyboard-response","59","154003","0.0-3.0-2.27-0.27","<div style=""color: white; text-align: center; vertical-align: top; display: inline-block; width: 800px; margin: auto""><p>You have completed 10% of the trials. You are on block 2 of 10. <br>Good job! Take a break if you need to.</p><p>Press any key to continue the experiment.</p></div>","","","","","","","","","","","","",""
"470","arrowright","psychophysics","60","155483","0.0-3.0-0.28","","key","arrowright","16.666000000000558","896","504.5","29","2","-1","20","15","25","35","false"
"null","null","psychophysics","61","156487","0.0-3.0-1.28","","key","null","16.665999999999904","896","504.5","","","","","","","",""
"438.2000000476837","arrowleft","psychophysics","62","156927","0.0-3.0-0.29","","key","arrowleft","16.665999999999677","896","504.5","30","2","1","20","15","25","35","false"
"null","null","psychophysics","63","157929","0.0-3.0-1.29","","key","null","16.6660000000004","896","504.5","","","","","","","",""
"599.2999999523163","arrowleft","psychophysics","64","158530","0.0-3.0-0.30","","key","arrowleft","16.665999999999933","896","504.5","31","2","-1","30","35","25","35","true"
"null","null","psychophysics","65","159536","0.0-3.0-1.30","","key","null","16.665999999999904","896","504.5","","","","","","","",""
"391.7999999523163","arrowright","psychophysics","66","159930","0.0-3.0-0.31","","key","arrowright","16.66599999999997","896","504.5","32","2","1","27","15","25","35","true"
"null","null","psychophysics","67","160933","0.0-3.0-1.31","","key","null","16.665999999999904","896","504.5","","","","","","","",""
"407.89999997615814","arrowright","psychophysics","68","161343","0.0-3.0-0.32","","key","arrowright","16.66599999999997","896","504.5","33","2","-1","23","35","25","35","false"
"null","null","psychophysics","69","162345","0.0-3.0-1.32","","key","null","16.665999999999865","896","504.5","","","","","","","",""
"434.6999999284744","arrowleft","psychophysics","70","162782","0.0-3.0-0.33","","key","arrowleft","16.665999999999766","896","504.5","34","2","1","20","35","25","35","false"
"null","null","psychophysics","71","163786","0.0-3.0-1.33","","key","null","16.665999999999904","896","504.5","","","","","","","",""
"419.60000002384186","arrowright","psychophysics","72","164208","0.0-3.0-0.34","","key","arrowright","16.666000000001077","896","504.5","35","2","1","30","35","25","35","true"
"null","null","psychophysics","73","165211","0.0-3.0-1.34","","key","null","16.665999999999904","896","504.5","","","","","","","",""
"374.60000002384186","arrowright","psychophysics","74","165589","0.0-3.0-0.35","","key","arrowright","16.666000000000086","896","504.5","36","2","-1","25","15","25","35","false"
"null","null","psychophysics","75","166595","0.0-3.0-1.35","","key","null","16.665999999999865","896","504.5","","","","","","","",""
"521.8999999761581","arrowleft","psychophysics","76","167119","0.0-3.0-0.36","","key","arrowleft","16.66600000000035","896","504.5","37","2","-1","25","35","25","35","true"
"null","null","psychophysics","77","168121","0.0-3.0-1.36","","key","null","16.665999999999904","896","504.5","","","","","","","",""
"574.6000000238419","arrowleft","psychophysics","78","168697","0.0-3.0-0.37","","key","arrowleft","16.666000000000007","896","504.5","38","2","1","23","35","25","35","false"
"null","null","psychophysics","79","169703","0.0-3.0-1.37","","key","null","16.6660000000004","896","504.5","","","","","","","",""
"469","arrowright","psychophysics","80","170174","0.0-3.0-0.38","","key","arrowright","16.665999999999595","896","504.5","39","2","1","27","35","25","35","true"
"null","null","psychophysics","81","171177","0.0-3.0-1.38","","key","null","16.665999999999865","896","504.5","","","","","","","",""
"452.60000002384186","arrowleft","psychophysics","82","171632","0.0-3.0-0.39","","key","arrowleft","16.665999999999677","896","504.5","40","2","-1","26","15","25","35","true"
"null","null","psychophysics","83","172636","0.0-3.0-1.39","","key","null","16.665999999999904","896","504.5","","","","","","","",""
"730.5999999046326","arrowleft","psychophysics","84","173370","0.0-3.0-0.40","","key","arrowleft","16.666000000000146","896","504.5","41","2","1","23","35","25","35","false"
"null","null","psychophysics","85","174371","0.0-3.0-1.40","","key","null","16.681372881355948","896","504.5","","","","","","","",""
"504.10000002384186","arrowright","psychophysics","86","174877","0.0-3.0-0.41","","key","arrowright","16.666000000000448","896","504.5","42","2","-1","27","35","25","35","false"
"null","null","psychophysics","87","175878","0.0-3.0-1.41","","key","null","16.665999999999865","896","504.5","","","","","","","",""
"466.60000002384186","arrowright","psychophysics","88","176347","0.0-3.0-0.42","","key","arrowright","16.666000000000672","896","504.5","43","2","1","27","35","25","35","true"
"null","null","psychophysics","89","177348","0.0-3.0-1.42","","key","null","16.665999999999904","896","504.5","","","","","","","",""
"527.2000000476837","arrowright","psychophysics","90","177878","0.0-3.0-0.43","","key","arrowright","16.66600000000035","896","504.5","44","2","1","24","15","25","35","true"
"null","null","psychophysics","91","178879","0.0-3.0-1.43","","key","null","16.665999999999865","896","504.5","","","","","","","",""
"479","arrowleft","psychophysics","92","179360","0.0-3.0-0.44","","key","arrowleft","16.665999999999595","896","504.5","45","2","-1","27","15","25","35","true"
"null","null","psychophysics","93","180361","0.0-3.0-1.44","","key","null","16.6660000000004","896","504.5","","","","","","","",""
"479.2999999523163","arrowleft","psychophysics","94","180845","0.0-3.0-0.45","","key","arrowleft","16.665999999999446","896","504.5","46","2","1","20","35","25","35","false"
"null","null","psychophysics","95","181846","0.0-3.0-1.45","","key","null","16.6660000000004","896","504.5","","","","","","","",""
"462.5","arrowright","psychophysics","96","182310","0.0-3.0-0.46","","key","arrowright","16.665999999999595","896","504.5","47","2","1","30","35","25","35","true"
"null","null","psychophysics","97","183312","0.0-3.0-1.46","","key","null","16.665999999999904","896","504.5","","","","","","","",""
"400.10000002384186","arrowleft","psychophysics","98","183715","0.0-3.0-0.47","","key","arrowleft","16.66599999999997","896","504.5","48","2","1","20","35","25","35","false"
"null","null","psychophysics","99","184720","0.0-3.0-1.47","","key","null","16.665999999999904","896","504.5","","","","","","","",""
"390","arrowright","psychophysics","100","185113","0.0-3.0-0.48","","key","arrowright","16.66599999999997","896","504.5","49","2","1","27","35","25","35","true"
"null","null","psychophysics","101","186116","0.0-3.0-1.48","","key","null","16.665999999999904","896","504.5","","","","","","","",""
"372","arrowleft","psychophysics","102","186491","0.0-3.0-0.49","","key","arrowleft","16.66600000000021","896","504.5","50","2","1","24","15","25","35","false"
"null","null","psychophysics","103","187495","0.0-3.0-1.49","","key","null","16.665999999999904","896","504.5","","","","","","","",""
"646.0999999046326","arrowright","psychophysics","104","188149","0.0-3.0-0.50","","key","arrowright","16.666000000000423","896","504.5","51","2","1","27","15","25","35","true"
"null","null","psychophysics","105","189153","0.0-3.0-1.50","","key","null","16.665999999999904","896","504.5","","","","","","","",""
"483.5","arrowleft","psychophysics","106","189639","0.0-3.0-0.51","","key","arrowleft","16.666000000000558","896","504.5","52","2","-1","26","15","25","35","true"
"null","null","psychophysics","107","190642","0.0-3.0-1.51","","key","null","16.665999999999904","896","504.5","","","","","","","",""
"538.2999999523163","arrowleft","psychophysics","108","191183","0.0-3.0-0.52","","key","arrowleft","16.666000000000167","896","504.5","53","2","1","20","35","25","35","false"
"null","null","psychophysics","109","192187","0.0-3.0-1.52","","key","null","16.665999999999904","896","504.5","","","","","","","",""
"670.6000000238419","arrowright","psychophysics","110","192860","0.0-3.0-0.53","","key","arrowright","16.666000000000423","896","504.5","54","2","-1","26","35","25","35","false"
"null","null","psychophysics","111","193862","0.0-3.0-1.53","","key","null","16.665999999999865","896","504.5","","","","","","","",""
"435.8000000715256","arrowright","psychophysics","112","194300","0.0-3.0-0.54","","key","arrowright","16.7023199999996","896","504.5","55","2","-1","20","15","25","35","false"
"null","null","psychophysics","113","195304","0.0-3.0-1.54","","key","null","16.665999999999904","896","504.5","","","","","","","",""
"628.8000000715256","arrowright","psychophysics","114","195935","0.0-3.0-0.55","","key","arrowright","16.665999999999798","896","504.5","56","3","1","26","15","25","35","true"
"null","null","psychophysics","115","196937","0.0-3.0-1.55","","key","null","16.665999999999904","896","504.5","","","","","","","",""
"69330.20000004768"," ","html-keyboard-response","116","266270","0.0-3.0-2.55-0.55","<div style=""color: white; text-align: center; vertical-align: top; display: inline-block; width: 800px; margin: auto""><p>You have completed 20% of the trials. You are on block 3 of 10. <br>Good job! Take a break if you need to.</p><p>Press any key to continue the experiment.</p></div>","","","","","","","","","","","","",""
"458.2999999523163","arrowright","psychophysics","117","267734","0.0-3.0-0.56","","key","arrowright","16.665999999999517","896","504.5","57","3","1","26","35","25","35","true"
"null","null","psychophysics","118","268739","0.0-3.0-1.56","","key","null","16.665999999999904","896","504.5","","","","","","","",""
"376.60000002384186","arrowright","psychophysics","119","269118","0.0-3.0-0.57","","key","arrowright","16.666000000000086","896","504.5","58","3","-1","25","15","25","35","false"
"null","null","psychophysics","120","270122","0.0-3.0-1.57","","key","null","16.666000000000892","896","504.5","","","","","","","",""
"377.8000000715256","arrowright","psychophysics","121","270503","0.0-3.0-0.58","","key","arrowright","16.666000000000086","896","504.5","59","3","1","26","35","25","35","true"
"null","null","psychophysics","122","271508","0.0-3.0-1.58","","key","null","16.665999999999904","896","504.5","","","","","","","",""
"490.89999997615814","arrowright","psychophysics","123","272002","0.0-3.0-0.59","","key","arrowright","16.666000000000448","896","504.5","60","3","1","26","15","25","35","true"
"null","null","psychophysics","124","273006","0.0-3.0-1.59","","key","null","16.665999999999904","896","504.5","","","","","","","",""
"442.8000000715256","arrowright","psychophysics","125","273452","0.0-3.0-0.60","","key","arrowright","16.665999999999677","896","504.5","61","3","1","30","15","25","35","true"
"null","null","psychophysics","126","274452","0.0-3.0-1.60","","key","null","16.665999999999904","896","504.5","","","","","","","",""
"504.7000000476837","arrowleft","psychophysics","127","274960","0.0-3.0-0.61","","key","arrowleft","16.66599999999844","896","504.5","62","3","-1","20","15","25","35","true"
"null","null","psychophysics","128","275962","0.0-3.0-1.61","","key","null","16.665999999999904","896","504.5","","","","","","","",""
"588.3999999761581","arrowright","psychophysics","129","276554","0.0-3.0-0.62","","key","arrowright","16.665999999999933","896","504.5","63","3","1","27","15","25","35","true"
"null","null","psychophysics","130","277560","0.0-3.0-1.62","","key","null","16.665999999999904","896","504.5","","","","","","","",""
"396.10000002384186","arrowright","psychophysics","131","277958","0.0-3.0-0.63","","key","arrowright","16.665999999998704","896","504.5","64","3","-1","23","15","25","35","false"
"null","null","psychophysics","132","278960","0.0-3.0-1.63","","key","null","16.665999999999904","896","504.5","","","","","","","",""
"731.6000000238419","arrowright","psychophysics","133","279694","0.0-3.0-0.64","","key","arrowright","16.666000000000825","896","504.5","65","3","-1","26","35","25","35","false"
"null","null","psychophysics","134","280697","0.0-3.0-1.64","","key","null","16.66600000000035","896","504.5","","","","","","","",""
"419.6999999284744","arrowright","psychophysics","135","281118","0.0-3.0-0.65","","key","arrowright","16.665999999999865","896","504.5","66","3","1","30","15","25","35","true"
"null","null","psychophysics","136","282122","0.0-3.0-1.65","","key","null","16.665999999999904","896","504.5","","","","","","","",""
"595.7000000476837","arrowright","psychophysics","137","282721","0.0-3.0-0.66","","key","arrowright","16.665999999999933","896","504.5","67","3","1","26","15","25","35","true"
"null","null","psychophysics","138","283727","0.0-3.0-1.66","","key","null","16.665999999999904","896","504.5","","","","","","","",""
"453.3000000715256","arrowright","psychophysics","139","284182","0.0-3.0-0.67","","key","arrowright","16.666000000000672","896","504.5","68","3","1","26","15","25","35","true"
"null","null","psychophysics","140","285188","0.0-3.0-1.67","","key","null","16.665999999999904","896","504.5","","","","","","","",""
"435.89999997615814","arrowright","psychophysics","141","285627","0.0-3.0-0.68","","key","arrowright","16.665999999998604","896","504.5","69","3","1","26","35","25","35","true"
"null","null","psychophysics","142","286628","0.0-3.0-1.68","","key","null","16.68138983050831","896","504.5","","","","","","","",""
"449.7000000476837","arrowright","psychophysics","143","287079","0.0-3.0-0.69","","key","arrowright","16.665999999999677","896","504.5","70","3","-1","23","35","25","35","false"
"null","null","psychophysics","144","288080","0.0-3.0-1.69","","key","null","16.66600000000035","896","504.5","","","","","","","",""
"487.2000000476837","arrowright","psychophysics","145","288569","0.0-3.0-0.70","","key","arrowright","16.665999999999517","896","504.5","71","3","-1","24","35","25","35","false"
"null","null","psychophysics","146","289572","0.0-3.0-1.70","","key","null","16.665999999999904","896","504.5","","","","","","","",""
"468.5","arrowright","psychophysics","147","290042","0.0-3.0-0.71","","key","arrowright","16.666000000000672","896","504.5","72","3","1","25","35","25","35","true"
"null","null","psychophysics","148","291043","0.0-3.0-1.71","","key","null","16.665999999999904","896","504.5","","","","","","","",""
"646.5","arrowleft","psychophysics","149","291692","0.0-3.0-0.72","","key","arrowleft","16.6660000000005","896","504.5","73","3","-1","30","35","25","35","true"
"null","null","psychophysics","150","292693","0.0-3.0-1.72","","key","null","16.665999999999904","896","504.5","","","","","","","",""
"465.7999999523163","arrowright","psychophysics","151","293162","0.0-3.0-0.73","","key","arrowright","16.665999999998515","896","504.5","74","3","-1","20","35","25","35","false"
"null","null","psychophysics","152","294163","0.0-3.0-1.73","","key","null","16.665999999999904","896","504.5","","","","","","","",""
"514.3999999761581","arrowright","psychophysics","153","294681","0.0-3.0-0.74","","key","arrowright","16.665999999998377","896","504.5","75","3","-1","20","35","25","35","false"
"null","null","psychophysics","154","295687","0.0-3.0-1.74","","key","null","16.665999999999904","896","504.5","","","","","","","",""
"501.8000000715256","arrowright","psychophysics","155","296191","0.0-3.0-0.75","","key","arrowright","16.66599999999844","896","504.5","76","3","1","30","15","25","35","true"
"null","null","psychophysics","156","297194","0.0-3.0-1.75","","key","null","16.665999999999904","896","504.5","","","","","","","",""
"626.5","arrowleft","psychophysics","157","297823","0.0-3.0-0.76","","key","arrowleft","16.665999999999798","896","504.5","77","3","-1","24","35","25","35","true"
"null","null","psychophysics","158","298827","0.0-3.0-1.76","","key","null","16.665999999999904","896","504.5","","","","","","","",""
"748","arrowleft","psychophysics","159","299577","0.0-3.0-0.77","","key","arrowleft","16.666000000000086","896","504.5","78","3","-1","25","15","25","35","true"
"null","null","psychophysics","160","300579","0.0-3.0-1.77","","key","null","16.666000000000892","896","504.5","","","","","","","",""
"498.2000000476837","arrowright","psychophysics","161","301081","0.0-3.0-0.78","","key","arrowright","16.66599999999938","896","504.5","79","3","1","25","35","25","35","true"
"null","null","psychophysics","162","302082","0.0-3.0-1.78","","key","null","16.665999999999904","896","504.5","","","","","","","",""
"367.5","arrowright","psychophysics","163","302451","0.0-3.0-0.79","","key","arrowright","16.665999999998824","896","504.5","80","3","-1","27","35","25","35","false"
"null","null","psychophysics","164","303457","0.0-3.0-1.79","","key","null","16.665999999999904","896","504.5","","","","","","","",""
"805.6000000238419","arrowleft","psychophysics","165","304265","0.0-3.0-0.80","","key","arrowleft","16.665999999999865","896","504.5","81","3","-1","26","15","25","35","true"
"null","null","psychophysics","166","305269","0.0-3.0-1.80","","key","null","16.665999999999904","896","504.5","","","","","","","",""
"616.5","arrowleft","psychophysics","167","305887","0.0-3.0-0.81","","key","arrowleft","16.666000000000672","896","504.5","82","3","-1","27","15","25","35","true"
"null","null","psychophysics","168","306889","0.0-3.0-1.81","","key","null","16.681372881355948","896","504.5","","","","","","","",""
"523.6000000238419","arrowleft","psychophysics","169","307415","0.0-3.0-0.82","","key","arrowleft","16.666000000000256","896","504.5","83","3","-1","27","15","25","35","true"
"null","null","psychophysics","170","308416","0.0-3.0-1.82","","key","null","16.665999999999904","896","504.5","","","","","","","",""
"637.8999999761581","arrowright","psychophysics","171","309056","0.0-3.0-0.83","","key","arrowright","16.665999999999798","896","504.5","84","4","1","26","15","25","35","true"
"null","null","psychophysics","172","310061","0.0-3.0-1.83","","key","null","16.665999999999904","896","504.5","","","","","","","",""
"33560.39999997616"," ","html-keyboard-response","173","343623","0.0-3.0-2.83-0.83","<div style=""color: white; text-align: center; vertical-align: top; display: inline-block; width: 800px; margin: auto""><p>You have completed 30% of the trials. You are on block 4 of 10. <br>Good job! Take a break if you need to.</p><p>Press any key to continue the experiment.</p></div>","","","","","","","","","","","","",""
"607","arrowright","psychophysics","174","345236","0.0-3.0-0.84","","key","arrowright","16.665999999999798","896","504.5","85","4","1","26","35","25","35","true"
"null","null","psychophysics","175","346242","0.0-3.0-1.84","","key","null","16.665999999999904","896","504.5","","","","","","","",""
"655.6000000238419","arrowright","psychophysics","176","346900","0.0-3.0-0.85","","key","arrowright","16.66600000000117","896","504.5","86","4","1","23","35","25","35","true"
"null","null","psychophysics","177","347902","0.0-3.0-1.85","","key","null","16.665999999999904","896","504.5","","","","","","","",""
"670.5","arrowleft","psychophysics","178","348575","0.0-3.0-0.86","","key","arrowleft","16.665999999999677","896","504.5","87","4","-1","30","15","25","35","true"
"null","null","psychophysics","179","349578","0.0-3.0-1.86","","key","null","16.666000000000892","896","504.5","","","","","","","",""
"624","arrowleft","psychophysics","180","350205","0.0-3.0-0.87","","key","arrowleft","16.665999999999798","896","504.5","88","4","-1","25","35","25","35","true"
"null","null","psychophysics","181","351208","0.0-3.0-1.87","","key","null","16.665999999999904","896","504.5","","","","","","","",""
"501.89999997615814","arrowleft","psychophysics","182","351712","0.0-3.0-0.88","","key","arrowleft","16.666000000000448","896","504.5","89","4","-1","25","15","25","35","true"
"null","null","psychophysics","183","352721","0.0-3.0-1.88","","key","null","16.66599999999938","896","504.5","","","","","","","",""
"467.89999997615814","arrowleft","psychophysics","184","353191","0.0-3.0-0.89","","key","arrowleft","16.666000000000672","896","504.5","90","4","-1","25","15","25","35","true"
"null","null","psychophysics","185","354192","0.0-3.0-1.89","","key","null","16.665999999999904","896","504.5","","","","","","","",""
"397.2999999523163","arrowright","psychophysics","186","354592","0.0-3.0-0.90","","key","arrowright","16.665999999998704","896","504.5","91","4","1","25","35","25","35","true"
"null","null","psychophysics","187","355598","0.0-3.0-1.90","","key","null","16.665999999999904","896","504.5","","","","","","","",""
"465.7999999523163","arrowleft","psychophysics","188","356067","0.0-3.0-0.91","","key","arrowleft","16.666000000001596","896","504.5","92","4","-1","27","15","25","35","true"
"null","null","psychophysics","189","357069","0.0-3.0-1.91","","key","null","16.665999999999904","896","504.5","","","","","","","",""
"449.7000000476837","arrowright","psychophysics","190","357521","0.0-3.0-0.92","","key","arrowright","16.665999999999677","896","504.5","93","4","-1","20","35","25","35","false"
"null","null","psychophysics","191","358525","0.0-3.0-1.92","","key","null","16.665999999999904","896","504.5","","","","","","","",""
"513.1999999284744","arrowleft","psychophysics","192","359040","0.0-3.0-0.93","","key","arrowleft","16.66600000000132","896","504.5","94","4","-1","23","35","25","35","true"
"null","null","psychophysics","193","360042","0.0-3.0-1.93","","key","null","16.665999999999904","896","504.5","","","","","","","",""
"685.7999999523163","arrowleft","psychophysics","194","360730","0.0-3.0-0.94","","key","arrowleft","16.665999999998895","896","504.5","95","4","1","24","35","25","35","false"
"null","null","psychophysics","195","361732","0.0-3.0-1.94","","key","null","16.66600000000035","896","504.5","","","","","","","",""
"530.1999999284744","arrowright","psychophysics","196","362265","0.0-3.0-0.95","","key","arrowright","16.666000000000256","896","504.5","96","4","1","25","15","25","35","true"
"null","null","psychophysics","197","363266","0.0-3.0-1.95","","key","null","16.665999999999904","896","504.5","","","","","","","",""
"552.1000000238419","arrowright","psychophysics","198","363820","0.0-3.0-0.96","","key","arrowright","16.69434375000128","896","504.5","97","4","1","25","15","25","35","true"
"null","null","psychophysics","199","364821","0.0-3.0-1.96","","key","null","16.665999999999904","896","504.5","","","","","","","",""
"478.60000002384186","arrowright","psychophysics","200","365302","0.0-3.0-0.97","","key","arrowright","16.665999999999517","896","504.5","98","4","1","27","15","25","35","true"
"null","null","psychophysics","201","366308","0.0-3.0-1.97","","key","null","16.665999999999904","896","504.5","","","","","","","",""
"669.7000000476837","arrowright","psychophysics","202","366980","0.0-3.0-0.98","","key","arrowright","16.665999999999677","896","504.5","99","4","-1","20","35","25","35","false"
"null","null","psychophysics","203","367982","0.0-3.0-1.98","","key","null","16.665999999999904","896","504.5","","","","","","","",""
"464.7000000476837","arrowleft","psychophysics","204","368454","0.0-3.0-0.99","","key","arrowleft","16.665999999999517","896","504.5","100","4","1","20","35","25","35","false"
"null","null","psychophysics","205","369459","0.0-3.0-1.99","","key","null","16.665999999999904","896","504.5","","","","","","","",""
"391.10000002384186","arrowright","psychophysics","206","369852","0.0-3.0-0.100","","key","arrowright","16.665999999998704","896","504.5","101","4","-1","25","15","25","35","false"
"null","null","psychophysics","207","370853","0.0-3.0-1.100","","key","null","16.665999999999904","896","504.5","","","","","","","",""
"849.5","arrowright","psychophysics","208","371705","0.0-3.0-0.101","","key","arrowright","16.665999999999766","896","504.5","102","4","-1","24","15","25","35","false"
"null","null","psychophysics","209","372706","0.0-3.0-1.101","","key","null","16.666000000000892","896","504.5","","","","","","","",""
"771.9000000953674","arrowleft","psychophysics","210","373481","0.0-3.0-0.102","","key","arrowleft","16.666000000000672","896","504.5","103","4","-1","25","35","25","35","true"
"null","null","psychophysics","211","374483","0.0-3.0-1.102","","key","null","16.66600000000035","896","504.5","","","","","","","",""
"444.7000000476837","arrowright","psychophysics","212","374930","0.0-3.0-0.103","","key","arrowright","16.66600000000093","896","504.5","104","4","-1","23","15","25","35","false"
"null","null","psychophysics","213","375932","0.0-3.0-1.103","","key","null","16.665999999999904","896","504.5","","","","","","","",""
"607","arrowright","psychophysics","214","376543","0.0-3.0-0.104","","key","arrowright","16.666000000000672","896","504.5","105","4","1","26","15","25","35","true"
"null","null","psychophysics","215","377549","0.0-3.0-1.104","","key","null","16.665999999999904","896","504.5","","","","","","","",""
"620.8000000715256","arrowleft","psychophysics","216","378173","0.0-3.0-0.105","","key","arrowleft","16.665999999999798","896","504.5","106","4","-1","30","35","25","35","true"
"null","null","psychophysics","217","379175","0.0-3.0-1.105","","key","null","16.666000000000892","896","504.5","","","","","","","",""
"477.8000000715256","arrowleft","psychophysics","218","379656","0.0-3.0-0.106","","key","arrowleft","16.665999999999517","896","504.5","107","4","-1","30","35","25","35","true"
"null","null","psychophysics","219","380661","0.0-3.0-1.106","","key","null","16.665999999999904","896","504.5","","","","","","","",""
"460.89999997615814","arrowleft","psychophysics","220","381124","0.0-3.0-0.107","","key","arrowleft","16.665999999998515","896","504.5","108","4","-1","30","35","25","35","true"
"null","null","psychophysics","221","382128","0.0-3.0-1.107","","key","null","16.665999999999904","896","504.5","","","","","","","",""
"658.3999999761581","arrowright","psychophysics","222","382789","0.0-3.0-0.108","","key","arrowright","16.66600000000117","896","504.5","109","4","1","23","15","25","35","true"
"null","null","psychophysics","223","383792","0.0-3.0-1.108","","key","null","16.681372881355948","896","504.5","","","","","","","",""
"626.3999999761581","arrowright","psychophysics","224","384421","0.0-3.0-0.109","","key","arrowright","16.665999999999798","896","504.5","110","4","-1","20","15","25","35","false"
"null","null","psychophysics","225","385426","0.0-3.0-1.109","","key","null","16.665999999999904","896","504.5","","","","","","","",""
"417.89999997615814","arrowright","psychophysics","226","385846","0.0-3.0-0.110","","key","arrowright","16.665999999999865","896","504.5","111","4","-1","23","35","25","35","false"
"null","null","psychophysics","227","386850","0.0-3.0-1.110","","key","null","16.66599999999938","896","504.5","","","","","","","",""
"456.89999997615814","arrowright","psychophysics","228","387309","0.0-3.0-0.111","","key","arrowright","16.665999999999677","896","504.5","112","5","-1","20","35","25","35","false"
"null","null","psychophysics","229","388310","0.0-3.0-1.111","","key","null","16.666000000000892","896","504.5","","","","","","","",""
"15934.600000023842"," ","html-keyboard-response","230","404246","0.0-3.0-2.111-0.111","<div style=""color: white; text-align: center; vertical-align: top; display: inline-block; width: 800px; margin: auto""><p>You have completed 40% of the trials. You are on block 5 of 10. <br>Good job! Take a break if you need to.</p><p>Press any key to continue the experiment.</p></div>","","","","","","","","","","","","",""
"710.6999999284744","arrowleft","psychophysics","231","405963","0.0-3.0-0.112","","key","arrowleft","16.66600000000021","896","504.5","113","5","1","20","15","25","35","false"
"null","null","psychophysics","232","406964","0.0-3.0-1.112","","key","null","16.665999999999904","896","504.5","","","","","","","",""
"520.8999999761581","arrowleft","psychophysics","233","407487","0.0-3.0-0.113","","key","arrowleft","16.666000000000256","896","504.5","114","5","-1","30","35","25","35","true"
"null","null","psychophysics","234","408492","0.0-3.0-1.113","","key","null","16.665999999999904","896","504.5","","","","","","","",""
"474.90000009536743","arrowleft","psychophysics","235","408970","0.0-3.0-0.114","","key","arrowleft","16.666000000001596","896","504.5","115","5","-1","27","35","25","35","true"
"null","null","psychophysics","236","409973","0.0-3.0-1.114","","key","null","16.665999999999904","896","504.5","","","","","","","",""
"441.60000002384186","arrowleft","psychophysics","237","410417","0.0-3.0-0.115","","key","arrowleft","16.665999999999677","896","504.5","116","5","1","20","15","25","35","false"
"null","null","psychophysics","238","411421","0.0-3.0-1.115","","key","null","16.666000000000892","896","504.5","","","","","","","",""
"476.89999997615814","arrowleft","psychophysics","239","411900","0.0-3.0-0.116","","key","arrowleft","16.665999999999517","896","504.5","117","5","-1","26","35","25","35","true"
"null","null","psychophysics","240","412901","0.0-3.0-1.116","","key","null","16.665999999999904","896","504.5","","","","","","","",""
"465.5","arrowleft","psychophysics","241","413369","0.0-3.0-0.117","","key","arrowleft","16.665999999998515","896","504.5","118","5","1","20","35","25","35","false"
"null","null","psychophysics","242","414370","0.0-3.0-1.117","","key","null","16.665999999999904","896","504.5","","","","","","","",""
"516.5999999046326","arrowright","psychophysics","243","414889","0.0-3.0-0.118","","key","arrowright","16.66600000000132","896","504.5","119","5","1","27","15","25","35","true"
"null","null","psychophysics","244","415892","0.0-3.0-1.118","","key","null","16.665999999999904","896","504.5","","","","","","","",""
"402.60000002384186","arrowright","psychophysics","245","416297","0.0-3.0-0.119","","key","arrowright","16.665999999998704","896","504.5","120","5","-1","24","15","25","35","false"
"null","null","psychophysics","246","417298","0.0-3.0-1.119","","key","null","16.665999999999904","896","504.5","","","","","","","",""
"424.5","arrowleft","psychophysics","247","417726","0.0-3.0-0.120","","key","arrowleft","16.665999999998604","896","504.5","121","5","-1","27","15","25","35","true"
"null","null","psychophysics","248","418730","0.0-3.0-1.120","","key","null","16.665999999999904","896","504.5","","","","","","","",""
"419.5","arrowright","psychophysics","249","419152","0.0-3.0-0.121","","key","arrowright","16.66600000000093","896","504.5","122","5","1","27","35","25","35","true"
"null","null","psychophysics","250","420158","0.0-3.0-1.121","","key","null","16.665999999999904","896","504.5","","","","","","","",""
"484.7000000476837","arrowright","psychophysics","251","420645","0.0-3.0-0.122","","key","arrowright","16.665999999999517","896","504.5","123","5","1","27","15","25","35","true"
"null","null","psychophysics","252","421647","0.0-3.0-1.122","","key","null","16.665999999999904","896","504.5","","","","","","","",""
"535.6000000238419","arrowleft","psychophysics","253","422185","0.0-3.0-0.123","","key","arrowleft","16.665999999999258","896","504.5","124","5","-1","24","15","25","35","true"
"null","null","psychophysics","254","423187","0.0-3.0-1.123","","key","null","16.665999999999904","896","504.5","","","","","","","",""
"549.2000000476837","arrowright","psychophysics","255","423738","0.0-3.0-0.124","","key","arrowright","16.666000000001077","896","504.5","125","5","-1","23","35","25","35","false"
"null","null","psychophysics","256","424743","0.0-3.0-1.124","","key","null","16.68138983050831","896","504.5","","","","","","","",""
"427.39999997615814","arrowright","psychophysics","257","425172","0.0-3.0-0.125","","key","arrowright","16.665999999998604","896","504.5","126","5","-1","20","35","25","35","false"
"null","null","psychophysics","258","426174","0.0-3.0-1.125","","key","null","16.665999999999904","896","504.5","","","","","","","",""
"508.5","arrowleft","psychophysics","259","426685","0.0-3.0-0.126","","key","arrowleft","16.66599999999938","896","504.5","127","5","1","24","35","25","35","false"
"null","null","psychophysics","260","427689","0.0-3.0-1.126","","key","null","16.665999999999904","896","504.5","","","","","","","",""
"375.40000009536743","arrowright","psychophysics","261","428066","0.0-3.0-0.127","","key","arrowright","16.666000000001596","896","504.5","128","5","-1","23","15","25","35","false"
"null","null","psychophysics","262","429067","0.0-3.0-1.127","","key","null","16.66600000000035","896","504.5","","","","","","","",""
"499","arrowright","psychophysics","263","429569","0.0-3.0-0.128","","key","arrowright","16.666000000000448","896","504.5","129","5","1","30","15","25","35","true"
"null","null","psychophysics","264","430574","0.0-3.0-1.128","","key","null","16.665999999999904","896","504.5","","","","","","","",""
"458.2999999523163","arrowright","psychophysics","265","431035","0.0-3.0-0.129","","key","arrowright","16.666000000000672","896","504.5","130","5","1","30","35","25","35","true"
"null","null","psychophysics","266","432037","0.0-3.0-1.129","","key","null","16.666000000000892","896","504.5","","","","","","","",""
"501.5","arrowleft","psychophysics","267","432540","0.0-3.0-0.130","","key","arrowleft","16.666000000000448","896","504.5","131","5","-1","30","15","25","35","true"
"null","null","psychophysics","268","433541","0.0-3.0-1.130","","key","null","16.666000000000892","896","504.5","","","","","","","",""
"472.10000002384186","arrowleft","psychophysics","269","434016","0.0-3.0-0.131","","key","arrowleft","16.666000000000672","896","504.5","132","5","-1","30","15","25","35","true"
"null","null","psychophysics","270","435017","0.0-3.0-1.131","","key","null","16.66600000000035","896","504.5","","","","","","","",""
"421.39999997615814","arrowright","psychophysics","271","435441","0.0-3.0-0.132","","key","arrowright","16.665999999999865","896","504.5","133","5","1","30","15","25","35","true"
"null","null","psychophysics","272","436442","0.0-3.0-1.132","","key","null","16.665999999999904","896","504.5","","","","","","","",""
"444.2999999523163","arrowright","psychophysics","273","436889","0.0-3.0-0.133","","key","arrowright","16.665999999999677","896","504.5","134","5","1","27","15","25","35","true"
"null","null","psychophysics","274","437895","0.0-3.0-1.133","","key","null","16.666000000000892","896","504.5","","","","","","","",""
"426.2000000476837","arrowright","psychophysics","275","438323","0.0-3.0-0.134","","key","arrowright","16.66600000000093","896","504.5","135","5","-1","20","15","25","35","false"
"null","null","psychophysics","276","439324","0.0-3.0-1.134","","key","null","16.665999999999904","896","504.5","","","","","","","",""
"752.4000000953674","arrowright","psychophysics","277","440079","0.0-3.0-0.135","","key","arrowright","16.666000000000086","896","504.5","136","5","-1","26","35","25","35","false"
"null","null","psychophysics","278","441081","0.0-3.0-1.135","","key","null","16.665999999999904","896","504.5","","","","","","","",""
"788.2999999523163","arrowright","psychophysics","279","441873","0.0-3.0-0.136","","key","arrowright","16.666000000000533","896","504.5","137","5","-1","26","35","25","35","false"
"null","null","psychophysics","280","442877","0.0-3.0-1.136","","key","null","16.665999999999904","896","504.5","","","","","","","",""
"531","arrowright","psychophysics","281","443411","0.0-3.0-0.137","","key","arrowright","16.666000000000256","896","504.5","138","5","1","25","15","25","35","true"
"null","null","psychophysics","282","444414","0.0-3.0-1.137","","key","null","16.681372881355948","896","504.5","","","","","","","",""
"550","arrowleft","psychophysics","283","444967","0.0-3.0-0.138","","key","arrowleft","16.665999999999258","896","504.5","139","5","1","23","15","25","35","false"
"null","null","psychophysics","284","445968","0.0-3.0-1.138","","key","null","16.66599999999938","896","504.5","","","","","","","",""
"533.8999999761581","arrowleft","psychophysics","285","446505","0.0-3.0-0.139","","key","arrowleft","16.666000000000256","896","504.5","140","6","-1","30","15","25","35","true"
"null","null","psychophysics","286","447506","0.0-3.0-1.139","","key","null","16.665999999999904","896","504.5","","","","","","","",""
"54169.5","arrowright","html-keyboard-response","287","501677","0.0-3.0-2.139-0.139","<div style=""color: white; text-align: center; vertical-align: top; display: inline-block; width: 800px; margin: auto""><p>You have completed 50% of the trials. You are on block 6 of 10. <br>Good job! Take a break if you need to.</p><p>Press any key to continue the experiment.</p></div>","","","","","","","","","","","","",""
"630.0999999046326","arrowleft","psychophysics","288","503315","0.0-3.0-0.140","","key","arrowleft","16.6660000000005","896","504.5","141","6","-1","26","15","25","35","true"
"null","null","psychophysics","289","504319","0.0-3.0-1.140","","key","null","16.665999999999904","896","504.5","","","","","","","",""
"473.60000002384186","arrowright","psychophysics","290","504801","0.0-3.0-0.141","","key","arrowright","16.665999999999517","896","504.5","142","6","-1","25","35","25","35","false"
"null","null","psychophysics","291","505803","0.0-3.0-1.141","","key","null","16.66599999999938","896","504.5","","","","","","","",""
"540.5999999046326","arrowleft","psychophysics","292","506346","0.0-3.0-0.142","","key","arrowleft","16.666000000000256","896","504.5","143","6","1","24","35","25","35","false"
"null","null","psychophysics","293","507352","0.0-3.0-1.142","","key","null","16.665999999999904","896","504.5","","","","","","","",""
"602.6000000238419","arrowleft","psychophysics","294","507962","0.0-3.0-0.143","","key","arrowleft","16.666000000000672","896","504.5","144","6","1","24","35","25","35","false"
"null","null","psychophysics","295","508968","0.0-3.0-1.143","","key","null","16.665999999999904","896","504.5","","","","","","","",""
"377.7000000476837","arrowright","psychophysics","296","509350","0.0-3.0-0.144","","key","arrowright","16.666000000000086","896","504.5","145","6","-1","24","15","25","35","false"
"null","null","psychophysics","297","510353","0.0-3.0-1.144","","key","null","16.66600000000035","896","504.5","","","","","","","",""
"680.3000000715256","arrowleft","psychophysics","298","511041","0.0-3.0-0.145","","key","arrowleft","16.66600000000035","896","504.5","146","6","-1","24","35","25","35","true"
"null","null","psychophysics","299","512042","0.0-3.0-1.145","","key","null","16.665999999999904","896","504.5","","","","","","","",""
"497","arrowleft","psychophysics","300","512542","0.0-3.0-0.146","","key","arrowleft","16.666000000000448","896","504.5","147","6","1","23","15","25","35","false"
"null","null","psychophysics","301","513543","0.0-3.0-1.146","","key","null","16.665999999999904","896","504.5","","","","","","","",""
"404.39999997615814","arrowright","psychophysics","302","513951","0.0-3.0-0.147","","key","arrowright","16.666000000001237","896","504.5","148","6","-1","20","35","25","35","false"
"null","null","psychophysics","303","514952","0.0-3.0-1.147","","key","null","16.66600000000035","896","504.5","","","","","","","",""
"561.7000000476837","arrowleft","psychophysics","304","515516","0.0-3.0-0.148","","key","arrowleft","16.665999999999258","896","504.5","149","6","-1","25","35","25","35","true"
"null","null","psychophysics","305","516517","0.0-3.0-1.148","","key","null","16.665999999999904","896","504.5","","","","","","","",""
"430.39999997615814","arrowright","psychophysics","306","516954","0.0-3.0-0.149","","key","arrowright","16.665999999999677","896","504.5","150","6","1","25","35","25","35","true"
"null","null","psychophysics","307","517960","0.0-3.0-1.149","","key","null","16.665999999999904","896","504.5","","","","","","","",""
"529.1999999284744","arrowleft","psychophysics","308","518492","0.0-3.0-0.150","","key","arrowleft","16.665999999998377","896","504.5","151","6","1","24","35","25","35","false"
"null","null","psychophysics","309","519494","0.0-3.0-1.150","","key","null","16.665999999999904","896","504.5","","","","","","","",""
"377","arrowright","psychophysics","310","519873","0.0-3.0-0.151","","key","arrowright","16.666000000000086","896","504.5","152","6","1","27","15","25","35","true"
"null","null","psychophysics","311","520877","0.0-3.0-1.151","","key","null","16.665999999999904","896","504.5","","","","","","","",""
"288.7000000476837","arrowleft","psychophysics","312","521168","0.0-3.0-0.152","","key","arrowleft","16.66599999999744","896","504.5","153","6","-1","20","15","25","35","true"
"null","null","psychophysics","313","522170","0.0-3.0-1.152","","key","null","16.681116666667126","896","504.5","","","","","","","",""
"226.10000002384186","arrowright","psychophysics","314","522399","0.0-3.0-0.153","","key","arrowright","16.66600000000229","896","504.5","154","6","1","24","15","25","35","true"
"null","null","psychophysics","315","523402","0.0-3.0-1.153","","key","null","16.665999999999904","896","504.5","","","","","","","",""
"541.8999999761581","arrowright","psychophysics","316","523948","0.0-3.0-0.154","","key","arrowright","16.666000000001077","896","504.5","155","6","1","26","35","25","35","true"
"null","null","psychophysics","317","524952","0.0-3.0-1.154","","key","null","16.665999999999904","896","504.5","","","","","","","",""
"532.6000000238419","arrowleft","psychophysics","318","525489","0.0-3.0-0.155","","key","arrowleft","16.666000000001077","896","504.5","156","6","-1","27","15","25","35","true"
"null","null","psychophysics","319","526494","0.0-3.0-1.155","","key","null","16.665999999999904","896","504.5","","","","","","","",""
"616.5999999046326","arrowright","psychophysics","320","527112","0.0-3.0-0.156","","key","arrowright","16.666000000000672","896","504.5","157","6","1","23","15","25","35","true"
"null","null","psychophysics","321","528118","0.0-3.0-1.156","","key","null","16.665999999999904","896","504.5","","","","","","","",""
"414","arrowright","psychophysics","322","528536","0.0-3.0-0.157","","key","arrowright","16.66600000000093","896","504.5","158","6","1","27","35","25","35","true"
"null","null","psychophysics","323","529537","0.0-3.0-1.157","","key","null","16.665999999999904","896","504.5","","","","","","","",""
"384","arrowleft","psychophysics","324","529924","0.0-3.0-0.158","","key","arrowleft","16.666000000000086","896","504.5","159","6","-1","30","15","25","35","true"
"null","null","psychophysics","325","530927","0.0-3.0-1.158","","key","null","16.665999999999904","896","504.5","","","","","","","",""
"705.2000000476837","arrowright","psychophysics","326","531635","0.0-3.0-0.159","","key","arrowright","16.665999999999567","896","504.5","160","6","1","23","15","25","35","true"
"null","null","psychophysics","327","532636","0.0-3.0-1.159","","key","null","16.66600000000132","896","504.5","","","","","","","",""
"471.39999997615814","arrowleft","psychophysics","328","533110","0.0-3.0-0.160","","key","arrowleft","16.665999999998515","896","504.5","161","6","-1","30","15","25","35","true"
"null","null","psychophysics","329","534115","0.0-3.0-1.160","","key","null","16.66600000000188","896","504.5","","","","","","","",""
"416.5","arrowright","psychophysics","330","534534","0.0-3.0-0.161","","key","arrowright","16.66599999999744","896","504.5","162","6","-1","24","15","25","35","false"
"null","null","psychophysics","331","535537","0.0-3.0-1.161","","key","null","16.66599999999938","896","504.5","","","","","","","",""
"585.0999999046326","arrowright","psychophysics","332","536124","0.0-3.0-0.162","","key","arrowright","16.66599999999915","896","504.5","163","6","1","23","15","25","35","true"
"null","null","psychophysics","333","537127","0.0-3.0-1.162","","key","null","16.665999999999904","896","504.5","","","","","","","",""
"647.6999999284744","arrowleft","psychophysics","334","537777","0.0-3.0-0.163","","key","arrowleft","16.66599999999897","896","504.5","164","6","1","20","35","25","35","false"
"null","null","psychophysics","335","538778","0.0-3.0-1.163","","key","null","16.665999999999904","896","504.5","","","","","","","",""
"468.7999999523163","arrowright","psychophysics","336","539249","0.0-3.0-0.164","","key","arrowright","16.665999999998515","896","504.5","165","6","-1","24","35","25","35","false"
"null","null","psychophysics","337","540253","0.0-3.0-1.164","","key","null","16.66599999999938","896","504.5","","","","","","","",""
"454.7999999523163","arrowleft","psychophysics","338","540711","0.0-3.0-0.165","","key","arrowleft","16.665999999999677","896","504.5","166","6","1","24","15","25","35","false"
"null","null","psychophysics","339","541713","0.0-3.0-1.165","","key","null","16.665999999999904","896","504.5","","","","","","","",""
"535.5","arrowright","psychophysics","340","542251","0.0-3.0-0.166","","key","arrowright","16.695225806452424","896","504.5","167","6","1","25","15","25","35","true"
"null","null","psychophysics","341","543253","0.0-3.0-1.166","","key","null","16.665999999999904","896","504.5","","","","","","","",""
"922.7000000476837","arrowright","psychophysics","342","544180","0.0-3.0-0.167","","key","arrowright","16.666000000000086","896","504.5","168","7","-1","25","35","25","35","false"
"null","null","psychophysics","343","545186","0.0-3.0-1.167","","key","null","16.665999999999904","896","504.5","","","","","","","",""
"22939.899999976158"," ","html-keyboard-response","344","568128","0.0-3.0-2.167-0.167","<div style=""color: white; text-align: center; vertical-align: top; display: inline-block; width: 800px; margin: auto""><p>You have completed 60% of the trials. You are on block 7 of 10. <br>Good job! Take a break if you need to.</p><p>Press any key to continue the experiment.</p></div>","","","","","","","","","","","","",""
"670.5999999046326","arrowright","psychophysics","345","569806","0.0-3.0-0.168","","key","arrowright","16.665999999999567","896","504.5","169","7","1","27","15","25","35","true"
"null","null","psychophysics","346","570808","0.0-3.0-1.168","","key","null","16.665999999999904","896","504.5","","","","","","","",""
"415.3000000715256","arrowright","psychophysics","347","571226","0.0-3.0-0.169","","key","arrowright","16.66599999999744","896","504.5","170","7","-1","27","35","25","35","false"
"null","null","psychophysics","348","572227","0.0-3.0-1.169","","key","null","16.665999999999904","896","504.5","","","","","","","",""
"426.60000002384186","arrowright","psychophysics","349","572656","0.0-3.0-0.170","","key","arrowright","16.66600000000093","896","504.5","171","7","1","25","35","25","35","true"
"null","null","psychophysics","350","573660","0.0-3.0-1.170","","key","null","16.665999999999904","896","504.5","","","","","","","",""
"495.5","arrowleft","psychophysics","351","574158","0.0-3.0-0.171","","key","arrowleft","16.666000000000448","896","504.5","172","7","-1","27","35","25","35","true"
"null","null","psychophysics","352","575160","0.0-3.0-1.171","","key","null","16.665999999999904","896","504.5","","","","","","","",""
"484.2999999523163","arrowright","psychophysics","353","575646","0.0-3.0-0.172","","key","arrowright","16.66599999999744","896","504.5","173","7","1","24","35","25","35","true"
"null","null","psychophysics","354","576648","0.0-3.0-1.172","","key","null","16.665999999999904","896","504.5","","","","","","","",""
"486.89999997615814","arrowleft","psychophysics","355","577137","0.0-3.0-0.173","","key","arrowleft","16.666000000000448","896","504.5","174","7","1","23","35","25","35","false"
"null","null","psychophysics","356","578138","0.0-3.0-1.173","","key","null","16.665999999999904","896","504.5","","","","","","","",""
"666.6000000238419","arrowright","psychophysics","357","578807","0.0-3.0-0.174","","key","arrowright","16.66600000000117","896","504.5","175","7","-1","24","35","25","35","false"
"null","null","psychophysics","358","579809","0.0-3.0-1.174","","key","null","16.665999999999904","896","504.5","","","","","","","",""
"744.8000000715256","arrowright","psychophysics","359","580557","0.0-3.0-0.175","","key","arrowright","16.666000000000086","896","504.5","176","7","-1","25","15","25","35","false"
"null","null","psychophysics","360","581560","0.0-3.0-1.175","","key","null","16.665999999999904","896","504.5","","","","","","","",""
"578.2999999523163","arrowright","psychophysics","361","582141","0.0-3.0-0.176","","key","arrowright","16.66599999999915","896","504.5","177","7","-1","26","15","25","35","false"
"null","null","psychophysics","362","583144","0.0-3.0-1.176","","key","null","16.665999999999904","896","504.5","","","","","","","",""
"647.3999999761581","arrowright","psychophysics","363","583798","0.0-3.0-0.177","","key","arrowright","16.66599999999897","896","504.5","178","7","1","25","35","25","35","true"
"null","null","psychophysics","364","584803","0.0-3.0-1.177","","key","null","16.665999999999904","896","504.5","","","","","","","",""
"517","arrowleft","psychophysics","365","585324","0.0-3.0-0.178","","key","arrowleft","16.665999999998377","896","504.5","179","7","1","26","15","25","35","false"
"null","null","psychophysics","366","586327","0.0-3.0-1.178","","key","null","16.665999999999904","896","504.5","","","","","","","",""
"595.3000000715256","arrowright","psychophysics","367","586924","0.0-3.0-0.179","","key","arrowright","16.66599999999827","896","504.5","180","7","1","30","35","25","35","true"
"null","null","psychophysics","368","587927","0.0-3.0-1.179","","key","null","16.665999999999904","896","504.5","","","","","","","",""
"1211.5","arrowleft","psychophysics","369","589141","0.0-3.0-0.180","","key","arrowleft","16.678611111110918","896","504.5","181","7","-1","26","35","25","35","true"
"null","null","psychophysics","370","590144","0.0-3.0-1.180","","key","null","16.665999999999904","896","504.5","","","","","","","",""
"799.7000000476837","arrowright","psychophysics","371","590946","0.0-3.0-0.181","","key","arrowright","16.666000000000533","896","504.5","182","7","1","25","35","25","35","true"
"null","null","psychophysics","372","591947","0.0-3.0-1.181","","key","null","16.665999999999904","896","504.5","","","","","","","",""
"499.39999997615814","arrowright","psychophysics","373","592449","0.0-3.0-0.182","","key","arrowright","16.666000000000448","896","504.5","183","7","1","26","35","25","35","true"
"null","null","psychophysics","374","593454","0.0-3.0-1.182","","key","null","16.665999999999904","896","504.5","","","","","","","",""
"885.4000000953674","arrowleft","psychophysics","375","594343","0.0-3.0-0.183","","key","arrowleft","16.665999999999087","896","504.5","184","7","1","23","15","25","35","false"
"null","null","psychophysics","376","595345","0.0-3.0-1.183","","key","null","16.665999999999904","896","504.5","","","","","","","",""
"554.6000000238419","arrowright","psychophysics","377","595902","0.0-3.0-0.184","","key","arrowright","16.66599999999744","896","504.5","185","7","1","30","15","25","35","true"
"null","null","psychophysics","378","596904","0.0-3.0-1.184","","key","null","16.665999999999904","896","504.5","","","","","","","",""
"598.8000000715256","arrowright","psychophysics","379","597507","0.0-3.0-0.185","","key","arrowright","16.666000000000672","896","504.5","186","7","-1","27","35","25","35","false"
"null","null","psychophysics","380","598511","0.0-3.0-1.185","","key","null","16.665999999999904","896","504.5","","","","","","","",""
"683.6000000238419","arrowleft","psychophysics","381","599197","0.0-3.0-0.186","","key","arrowleft","16.66600000000035","896","504.5","187","7","-1","30","35","25","35","true"
"null","null","psychophysics","382","600200","0.0-3.0-1.186","","key","null","16.66600000000188","896","504.5","","","","","","","",""
"486.6999999284744","arrowright","psychophysics","383","600689","0.0-3.0-0.187","","key","arrowright","16.666000000000448","896","504.5","188","7","-1","30","15","25","35","false"
"null","null","psychophysics","384","601690","0.0-3.0-1.187","","key","null","16.665999999999904","896","504.5","","","","","","","",""
"909.4000000953674","arrowleft","psychophysics","385","602602","0.0-3.0-0.188","","key","arrowleft","16.666000000001283","896","504.5","189","7","1","20","15","25","35","false"
"null","null","psychophysics","386","603605","0.0-3.0-1.188","","key","null","16.665999999999904","896","504.5","","","","","","","",""
"611.5999999046326","arrowright","psychophysics","387","604220","0.0-3.0-0.189","","key","arrowright","16.666000000000672","896","504.5","190","7","-1","23","35","25","35","false"
"null","null","psychophysics","388","605221","0.0-3.0-1.189","","key","null","16.66600000000132","896","504.5","","","","","","","",""
"511.10000002384186","arrowleft","psychophysics","389","605735","0.0-3.0-0.190","","key","arrowleft","16.666000000000448","896","504.5","191","7","1","25","15","25","35","false"
"null","null","psychophysics","390","606739","0.0-3.0-1.190","","key","null","16.66599999999938","896","504.5","","","","","","","",""
"795.1000000238419","arrowleft","psychophysics","391","607536","0.0-3.0-0.191","","key","arrowleft","16.665999999998704","896","504.5","192","7","-1","26","35","25","35","true"
"null","null","psychophysics","392","608539","0.0-3.0-1.191","","key","null","16.681100000000637","896","504.5","","","","","","","",""
"1314.1000000238419","arrowright","psychophysics","393","609860","0.0-3.0-0.192","","key","arrowright","16.66600000000117","896","504.5","193","7","1","25","15","25","35","true"
"null","null","psychophysics","394","610865","0.0-3.0-1.192","","key","null","16.665999999999904","896","504.5","","","","","","","",""
"681","arrowleft","psychophysics","395","611549","0.0-3.0-0.193","","key","arrowleft","16.66600000000035","896","504.5","194","7","-1","26","15","25","35","true"
"null","null","psychophysics","396","612554","0.0-3.0-1.193","","key","null","16.665999999999904","896","504.5","","","","","","","",""
"597.8999999761581","arrowleft","psychophysics","397","613156","0.0-3.0-0.194","","key","arrowleft","16.66599999999744","896","504.5","195","7","-1","27","15","25","35","true"
"null","null","psychophysics","398","614161","0.0-3.0-1.194","","key","null","16.665999999999904","896","504.5","","","","","","","",""
"725.1999999284744","arrowright","psychophysics","399","614889","0.0-3.0-0.195","","key","arrowright","16.666000000000825","896","504.5","196","8","-1","23","15","25","35","false"
"null","null","psychophysics","400","615894","0.0-3.0-1.195","","key","null","16.665999999999904","896","504.5","","","","","","","",""
"30241"," ","html-keyboard-response","401","646029","0.0-3.0-2.195-0.195","<div style=""color: white; text-align: center; vertical-align: top; display: inline-block; width: 800px; margin: auto""><p>You have completed 70% of the trials. You are on block 8 of 10. <br>Good job! Take a break if you need to.</p><p>Press any key to continue the experiment.</p></div>","","","","","","","","","","","","",""
"2175.5","arrowleft","psychophysics","402","649211","0.0-3.0-0.196","","key","arrowleft","16.666000000000327","896","504.5","197","8","1","20","15","25","35","false"
"null","null","psychophysics","403","650212","0.0-3.0-1.196","","key","null","16.665999999999904","896","504.5","","","","","","","",""
"608.8999999761581","arrowright","psychophysics","404","650823","0.0-3.0-0.197","","key","arrowright","16.66599999999827","896","504.5","198","8","-1","26","35","25","35","false"
"null","null","psychophysics","405","651824","0.0-3.0-1.197","","key","null","16.665999999999904","896","504.5","","","","","","","",""
"458.89999997615814","arrowleft","psychophysics","406","652286","0.0-3.0-0.198","","key","arrowleft","16.665999999998515","896","504.5","199","8","1","25","35","25","35","false"
"null","null","psychophysics","407","653290","0.0-3.0-1.198","","key","null","16.665999999999904","896","504.5","","","","","","","",""
"385.7000000476837","arrowleft","psychophysics","408","653679","0.0-3.0-0.199","","key","arrowleft","16.665999999998704","896","504.5","200","8","1","20","15","25","35","false"
"null","null","psychophysics","409","654680","0.0-3.0-1.199","","key","null","16.665999999999904","896","504.5","","","","","","","",""
"438.6999999284744","arrowright","psychophysics","410","655121","0.0-3.0-0.200","","key","arrowright","16.66600000000093","896","504.5","201","8","1","24","35","25","35","true"
"null","null","psychophysics","411","656124","0.0-3.0-1.200","","key","null","16.665999999999904","896","504.5","","","","","","","",""
"488.7000000476837","arrowright","psychophysics","412","656615","0.0-3.0-0.201","","key","arrowright","16.666000000000448","896","504.5","202","8","-1","20","15","25","35","false"
"null","null","psychophysics","413","657620","0.0-3.0-1.201","","key","null","16.665999999999904","896","504.5","","","","","","","",""
"380.1999999284744","arrowleft","psychophysics","414","658003","0.0-3.0-0.202","","key","arrowleft","16.666000000000086","896","504.5","203","8","-1","30","15","25","35","true"
"null","null","psychophysics","415","659007","0.0-3.0-1.202","","key","null","16.665999999999904","896","504.5","","","","","","","",""
"502.09999990463257","arrowright","psychophysics","416","659512","0.0-3.0-0.203","","key","arrowright","16.66599999999938","896","504.5","204","8","-1","27","35","25","35","false"
"null","null","psychophysics","417","660517","0.0-3.0-1.203","","key","null","16.665999999999904","896","504.5","","","","","","","",""
"656.6000000238419","arrowright","psychophysics","418","661176","0.0-3.0-0.204","","key","arrowright","16.665999999998185","896","504.5","205","8","-1","20","35","25","35","false"
"null","null","psychophysics","419","662181","0.0-3.0-1.204","","key","null","16.665999999999904","896","504.5","","","","","","","",""
"451.60000002384186","arrowright","psychophysics","420","662635","0.0-3.0-0.205","","key","arrowright","16.665999999999677","896","504.5","206","8","1","26","35","25","35","true"
"null","null","psychophysics","421","663640","0.0-3.0-1.205","","key","null","16.665999999999904","896","504.5","","","","","","","",""
"350.10000002384186","arrowright","psychophysics","422","663994","0.0-3.0-0.206","","key","arrowright","16.665999999996053","896","504.5","207","8","1","23","35","25","35","true"
"null","null","psychophysics","423","664995","0.0-3.0-1.206","","key","null","16.66600000000188","896","504.5","","","","","","","",""
"975.6000000238419","arrowright","psychophysics","424","665972","0.0-3.0-0.207","","key","arrowright","16.66599999999897","896","504.5","208","8","-1","25","35","25","35","false"
"null","null","psychophysics","425","666975","0.0-3.0-1.207","","key","null","16.6785932203372","896","504.5","","","","","","","",""
"664.9000000953674","arrowleft","psychophysics","426","667643","0.0-3.0-0.208","","key","arrowleft","16.665999999998185","896","504.5","209","8","1","20","35","25","35","false"
"null","null","psychophysics","427","668644","0.0-3.0-1.208","","key","null","16.66599999999938","896","504.5","","","","","","","",""
"602.1999999284744","arrowright","psychophysics","428","669248","0.0-3.0-0.209","","key","arrowright","16.666000000001596","896","504.5","210","8","-1","23","35","25","35","false"
"null","null","psychophysics","429","670252","0.0-3.0-1.209","","key","null","16.665999999999904","896","504.5","","","","","","","",""
"1057.1000000238419","arrowright","psychophysics","430","671311","0.0-3.0-0.210","","key","arrowright","16.665999999999748","896","504.5","211","8","-1","23","15","25","35","false"
"null","null","psychophysics","431","672316","0.0-3.0-1.210","","key","null","16.665999999999904","896","504.5","","","","","","","",""
"768.2000000476837","arrowright","psychophysics","432","673086","0.0-3.0-0.211","","key","arrowright","16.66599999999938","896","504.5","212","8","-1","26","35","25","35","false"
"null","null","psychophysics","433","674090","0.0-3.0-1.211","","key","null","16.665999999999904","896","504.5","","","","","","","",""
"399.7999999523163","arrowright","psychophysics","434","674494","0.0-3.0-0.212","","key","arrowright","16.66599999999744","896","504.5","213","8","1","30","35","25","35","true"
"null","null","psychophysics","435","675497","0.0-3.0-1.212","","key","null","16.665999999999904","896","504.5","","","","","","","",""
"404.89999997615814","arrowleft","psychophysics","436","675904","0.0-3.0-0.213","","key","arrowleft","16.665999999998704","896","504.5","214","8","1","24","15","25","35","false"
"null","null","psychophysics","437","676907","0.0-3.0-1.213","","key","null","16.676474576269403","896","504.5","","","","","","","",""
"310.90000009536743","arrowright","psychophysics","438","677220","0.0-3.0-0.214","","key","arrowright","16.666000000000672","896","504.5","215","8","1","24","15","25","35","true"
"null","null","psychophysics","439","678224","0.0-3.0-1.214","","key","null","16.665999999999904","896","504.5","","","","","","","",""
"799.7999999523163","arrowleft","psychophysics","440","679030","0.0-3.0-0.215","","key","arrowleft","16.665999999999865","896","504.5","216","8","1","20","15","25","35","false"
"null","null","psychophysics","441","680032","0.0-3.0-1.215","","key","null","16.665999999999904","896","504.5","","","","","","","",""
"548.7999999523163","arrowleft","psychophysics","442","680583","0.0-3.0-0.216","","key","arrowleft","16.666000000001077","896","504.5","217","8","1","23","15","25","35","false"
"null","null","psychophysics","443","681586","0.0-3.0-1.216","","key","null","16.665999999999904","896","504.5","","","","","","","",""
"509","arrowleft","psychophysics","444","682098","0.0-3.0-0.217","","key","arrowleft","16.66599999999938","896","504.5","218","8","1","24","15","25","35","false"
"null","null","psychophysics","445","683100","0.0-3.0-1.217","","key","null","16.665999999999904","896","504.5","","","","","","","",""
"558.3000000715256","arrowright","psychophysics","446","683661","0.0-3.0-0.218","","key","arrowright","16.666000000000086","896","504.5","219","8","1","27","35","25","35","true"
"null","null","psychophysics","447","684662","0.0-3.0-1.218","","key","null","16.665999999999904","896","504.5","","","","","","","",""
"555.4000000953674","arrowleft","psychophysics","448","685220","0.0-3.0-0.219","","key","arrowleft","16.666000000001077","896","504.5","220","8","-1","27","15","25","35","true"
"null","null","psychophysics","449","686224","0.0-3.0-1.219","","key","null","16.66600000000188","896","504.5","","","","","","","",""
"568.6000000238419","arrowright","psychophysics","450","686795","0.0-3.0-0.220","","key","arrowright","16.66599999999915","896","504.5","221","8","1","25","35","25","35","true"
"null","null","psychophysics","451","687802","0.0-3.0-1.220","","key","null","16.665999999999904","896","504.5","","","","","","","",""
"539.6000000238419","arrowleft","psychophysics","452","688344","0.0-3.0-0.221","","key","arrowleft","16.66599999999744","896","504.5","222","8","-1","23","15","25","35","true"
"null","null","psychophysics","453","689348","0.0-3.0-1.221","","key","null","16.665999999999904","896","504.5","","","","","","","",""
"396.60000002384186","arrowright","psychophysics","454","689747","0.0-3.0-0.222","","key","arrowright","16.665999999998704","896","504.5","223","8","1","23","35","25","35","true"
"null","null","psychophysics","455","690748","0.0-3.0-1.222","","key","null","16.665999999999904","896","504.5","","","","","","","",""
"432.60000002384186","arrowright","psychophysics","456","691183","0.0-3.0-0.223","","key","arrowright","16.66600000000093","896","504.5","224","9","-1","24","15","25","35","false"
"null","null","psychophysics","457","692184","0.0-3.0-1.223","","key","null","16.665999999999904","896","504.5","","","","","","","",""
"13852.300000071526"," ","html-keyboard-response","458","706037","0.0-3.0-2.223-0.223","<div style=""color: white; text-align: center; vertical-align: top; display: inline-block; width: 800px; margin: auto""><p>You have completed 80% of the trials. You are on block 9 of 10. <br>Good job! Take a break if you need to.</p><p>Press any key to continue the experiment.</p></div>","","","","","","","","","","","","",""
"707","arrowleft","psychophysics","459","707749","0.0-3.0-0.224","","key","arrowleft","16.665999999998117","896","504.5","225","9","1","20","15","25","35","false"
"null","null","psychophysics","460","708751","0.0-3.0-1.224","","key","null","16.665999999999904","896","504.5","","","","","","","",""
"457.2999999523163","arrowleft","psychophysics","461","709211","0.0-3.0-0.225","","key","arrowleft","16.665999999998515","896","504.5","226","9","1","23","35","25","35","false"
"null","null","psychophysics","462","710214","0.0-3.0-1.225","","key","null","16.66600000000188","896","504.5","","","","","","","",""
"429.8000000715256","arrowright","psychophysics","463","710645","0.0-3.0-0.226","","key","arrowright","16.66600000000093","896","504.5","227","9","-1","25","35","25","35","false"
"null","null","psychophysics","464","711651","0.0-3.0-1.226","","key","null","16.665999999999904","896","504.5","","","","","","","",""
"490.39999997615814","arrowleft","psychophysics","465","712144","0.0-3.0-0.227","","key","arrowleft","16.666000000000448","896","504.5","228","9","1","23","35","25","35","false"
"null","null","psychophysics","466","713147","0.0-3.0-1.227","","key","null","16.665999999999904","896","504.5","","","","","","","",""
"439.5","arrowright","psychophysics","467","713589","0.0-3.0-0.228","","key","arrowright","16.665999999996274","896","504.5","229","9","1","30","15","25","35","true"
"null","null","psychophysics","468","714593","0.0-3.0-1.228","","key","null","16.665999999999904","896","504.5","","","","","","","",""
"480.2999999523163","arrowright","psychophysics","469","715077","0.0-3.0-0.229","","key","arrowright","16.666000000000448","896","504.5","230","9","1","30","35","25","35","true"
"null","null","psychophysics","470","716078","0.0-3.0-1.229","","key","null","16.665999999999904","896","504.5","","","","","","","",""
"442","arrowright","psychophysics","471","716522","0.0-3.0-0.230","","key","arrowright","16.665999999996274","896","504.5","231","9","1","30","35","25","35","true"
"null","null","psychophysics","472","717524","0.0-3.0-1.230","","key","null","16.665999999999904","896","504.5","","","","","","","",""
"405.7000000476837","arrowright","psychophysics","473","717932","0.0-3.0-0.231","","key","arrowright","16.66599999999744","896","504.5","232","9","-1","23","15","25","35","false"
"null","null","psychophysics","474","718935","0.0-3.0-1.231","","key","null","16.665999999999904","896","504.5","","","","","","","",""
"584.4000000953674","arrowleft","psychophysics","475","719522","0.0-3.0-0.232","","key","arrowleft","16.66599999999915","896","504.5","233","9","-1","25","15","25","35","true"
"null","null","psychophysics","476","720525","0.0-3.0-1.232","","key","null","16.665999999999904","896","504.5","","","","","","","",""
"399.5","arrowright","psychophysics","477","720929","0.0-3.0-0.233","","key","arrowright","16.66599999999744","896","504.5","234","9","1","27","35","25","35","true"
"null","null","psychophysics","478","721930","0.0-3.0-1.233","","key","null","16.665999999999904","896","504.5","","","","","","","",""
"401.39999997615814","arrowright","psychophysics","479","722333","0.0-3.0-0.234","","key","arrowright","16.665999999998704","896","504.5","235","9","-1","26","35","25","35","false"
"null","null","psychophysics","480","723335","0.0-3.0-1.234","","key","null","16.665999999999904","896","504.5","","","","","","","",""
"336.7999999523163","arrowleft","psychophysics","481","723674","0.0-3.0-0.235","","key","arrowleft","16.66599999999897","896","504.5","236","9","-1","27","35","25","35","true"
"null","null","psychophysics","482","724675","0.0-3.0-1.235","","key","null","16.665999999999904","896","504.5","","","","","","","",""
"20.5","arrowright","psychophysics","483","724703","0.0-3.0-0.236","","key","arrowright","16.665999999968335","896","504.5","237","9","1","20","15","25","35","true"
"null","null","psychophysics","484","725707","0.0-3.0-1.236","","key","null","16.665999999999904","896","504.5","","","","","","","",""
"790.7999999523163","arrowright","psychophysics","485","726500","0.0-3.0-0.237","","key","arrowright","16.685319148937854","896","504.5","238","9","-1","24","15","25","35","false"
"null","null","psychophysics","486","727501","0.0-3.0-1.237","","key","null","16.665999999999904","896","504.5","","","","","","","",""
"691.6000000238419","arrowleft","psychophysics","487","728195","0.0-3.0-0.238","","key","arrowleft","16.66600000000241","896","504.5","239","9","-1","30","35","25","35","true"
"null","null","psychophysics","488","729201","0.0-3.0-1.238","","key","null","16.665999999999904","896","504.5","","","","","","","",""
"411.10000002384186","arrowright","psychophysics","489","729615","0.0-3.0-0.239","","key","arrowright","16.66600000000229","896","504.5","240","9","-1","27","35","25","35","false"
"null","null","psychophysics","490","730618","0.0-3.0-1.239","","key","null","16.665999999999904","896","504.5","","","","","","","",""
"470.39999997615814","arrowright","psychophysics","491","731091","0.0-3.0-0.240","","key","arrowright","16.66600000000283","896","504.5","241","9","1","30","15","25","35","true"
"null","null","psychophysics","492","732093","0.0-3.0-1.240","","key","null","16.66599999999938","896","504.5","","","","","","","",""
"532.7000000476837","arrowleft","psychophysics","493","732628","0.0-3.0-0.241","","key","arrowleft","16.666000000002132","896","504.5","242","9","-1","30","35","25","35","true"
"null","null","psychophysics","494","733633","0.0-3.0-1.241","","key","null","16.665999999999904","896","504.5","","","","","","","",""
"398.6999999284744","arrowright","psychophysics","495","734035","0.0-3.0-0.242","","key","arrowright","16.665999999998704","896","504.5","243","9","-1","26","15","25","35","false"
"null","null","psychophysics","496","735039","0.0-3.0-1.242","","key","null","16.665999999999904","896","504.5","","","","","","","",""
"537.1000000238419","arrowright","psychophysics","497","735578","0.0-3.0-0.243","","key","arrowright","16.666000000001077","896","504.5","244","9","1","25","35","25","35","true"
"null","null","psychophysics","498","736580","0.0-3.0-1.243","","key","null","16.665999999999904","896","504.5","","","","","","","",""
"307.10000002384186","arrowleft","psychophysics","499","736890","0.0-3.0-0.244","","key","arrowleft","16.665999999995726","896","504.5","245","9","-1","24","35","25","35","true"
"null","null","psychophysics","500","737891","0.0-3.0-1.244","","key","null","16.665999999999904","896","504.5","","","","","","","",""
"265.1999999284744","arrowright","psychophysics","501","738164","0.0-3.0-0.245","","key","arrowright","16.66599999999744","896","504.5","246","9","1","20","35","25","35","true"
"null","null","psychophysics","502","739168","0.0-3.0-1.245","","key","null","16.66600000000188","896","504.5","","","","","","","",""
"718.1000000238419","arrowleft","psychophysics","503","739889","0.0-3.0-0.246","","key","arrowleft","16.665999999998824","896","504.5","247","9","1","20","15","25","35","false"
"null","null","psychophysics","504","740893","0.0-3.0-1.246","","key","null","16.66599999999938","896","504.5","","","","","","","",""
"424.5","arrowright","psychophysics","505","741320","0.0-3.0-0.247","","key","arrowright","16.66600000000229","896","504.5","248","9","1","25","15","25","35","true"
"null","null","psychophysics","506","742327","0.0-3.0-1.247","","key","null","16.66599999999938","896","504.5","","","","","","","",""
"834.7000000476837","arrowleft","psychophysics","507","743164","0.0-3.0-0.248","","key","arrowleft","16.666000000001596","896","504.5","249","9","-1","24","35","25","35","true"
"null","null","psychophysics","508","744168","0.0-3.0-1.248","","key","null","16.665999999999904","896","504.5","","","","","","","",""
"632.8999999761581","arrowleft","psychophysics","509","744803","0.0-3.0-0.249","","key","arrowleft","16.665999999999798","896","504.5","250","9","-1","30","15","25","35","true"
"null","null","psychophysics","510","745809","0.0-3.0-1.249","","key","null","16.665999999999904","896","504.5","","","","","","","",""
"506.39999997615814","arrowright","psychophysics","511","746323","0.0-3.0-0.250","","key","arrowright","16.69623333333293","896","504.5","251","9","-1","24","35","25","35","false"
"null","null","psychophysics","512","747326","0.0-3.0-1.250","","key","null","16.665999999999904","896","504.5","","","","","","","",""
"528.3999999761581","arrowright","psychophysics","513","747858","0.0-3.0-0.251","","key","arrowright","16.665999999998377","896","504.5","252","10","-1","20","15","25","35","false"
"null","null","psychophysics","514","748860","0.0-3.0-1.251","","key","null","16.66600000000188","896","504.5","","","","","","","",""
"4993.699999928474"," ","html-keyboard-response","515","753855","0.0-3.0-2.251-0.251","<div style=""color: white; text-align: center; vertical-align: top; display: inline-block; width: 800px; margin: auto""><p>You have completed 90% of the trials. You are on block 10 of 10. <br>Good job! Take a break if you need to.</p><p>Press any key to continue the experiment.</p></div>","","","","","","","","","","","","",""
"666","arrowright","psychophysics","516","755532","0.0-3.0-0.252","","key","arrowright","16.66600000000035","896","504.5","253","10","1","26","35","25","35","true"
"null","null","psychophysics","517","756534","0.0-3.0-1.252","","key","null","16.665999999999904","896","504.5","","","","","","","",""
"455.8000000715256","arrowright","psychophysics","518","756992","0.0-3.0-0.253","","key","arrowright","16.66600000000283","896","504.5","254","10","-1","25","35","25","35","false"
"null","null","psychophysics","519","757993","0.0-3.0-1.253","","key","null","16.665999999999904","896","504.5","","","","","","","",""
"502.10000002384186","arrowleft","psychophysics","520","758498","0.0-3.0-0.254","","key","arrowleft","16.666000000000448","896","504.5","255","10","-1","30","15","25","35","true"
"null","null","psychophysics","521","759501","0.0-3.0-1.254","","key","null","16.665999999999904","896","504.5","","","","","","","",""
"843.5","arrowright","psychophysics","522","760347","0.0-3.0-0.255","","key","arrowright","16.665999999998604","896","504.5","256","10","1","23","15","25","35","true"
"null","null","psychophysics","523","761348","0.0-3.0-1.255","","key","null","16.66600000000188","896","504.5","","","","","","","",""
"480.6999999284744","arrowright","psychophysics","524","761831","0.0-3.0-0.256","","key","arrowright","16.66599999999744","896","504.5","257","10","1","25","15","25","35","true"
"null","null","psychophysics","525","762833","0.0-3.0-1.256","","key","null","16.665999999999904","896","504.5","","","","","","","",""
"894.7000000476837","arrowright","psychophysics","526","763730","0.0-3.0-0.257","","key","arrowright","16.665999999999087","896","504.5","258","10","1","24","35","25","35","true"
"null","null","psychophysics","527","764733","0.0-3.0-1.257","","key","null","16.665999999999904","896","504.5","","","","","","","",""
"515.1000000238419","arrowright","psychophysics","528","765250","0.0-3.0-0.258","","key","arrowright","16.66599999999938","896","504.5","259","10","-1","23","35","25","35","false"
"null","null","psychophysics","529","766253","0.0-3.0-1.258","","key","null","16.681355932204575","896","504.5","","","","","","","",""
"842.7000000476837","arrowright","psychophysics","530","767098","0.0-3.0-0.259","","key","arrowright","16.66600000000093","896","504.5","260","10","1","26","35","25","35","true"
"null","null","psychophysics","531","768103","0.0-3.0-1.259","","key","null","16.665999999999904","896","504.5","","","","","","","",""
"736.6000000238419","arrowright","psychophysics","532","768842","0.0-3.0-0.260","","key","arrowright","16.666000000000825","896","504.5","261","10","1","25","15","25","35","true"
"null","null","psychophysics","533","769843","0.0-3.0-1.260","","key","null","16.66600000000132","896","504.5","","","","","","","",""
"579.9000000953674","arrowright","psychophysics","534","770426","0.0-3.0-0.261","","key","arrowright","16.666000000000086","896","504.5","262","10","1","30","35","25","35","true"
"null","null","psychophysics","535","771427","0.0-3.0-1.261","","key","null","16.66599999999938","896","504.5","","","","","","","",""
"614.7000000476837","arrowright","psychophysics","536","772043","0.0-3.0-0.262","","key","arrowright","16.66599999999744","896","504.5","263","10","-1","23","15","25","35","false"
"null","null","psychophysics","537","773046","0.0-3.0-1.262","","key","null","16.665999999999904","896","504.5","","","","","","","",""
"595.9000000953674","arrowleft","psychophysics","538","773645","0.0-3.0-0.263","","key","arrowleft","16.666000000001596","896","504.5","264","10","-1","25","15","25","35","true"
"null","null","psychophysics","539","774646","0.0-3.0-1.263","","key","null","16.665999999999904","896","504.5","","","","","","","",""
"424.1999999284744","arrowright","psychophysics","540","775072","0.0-3.0-0.264","","key","arrowright","16.66600000000229","896","504.5","265","10","-1","23","15","25","35","false"
"null","null","psychophysics","541","776076","0.0-3.0-1.264","","key","null","16.665999999999904","896","504.5","","","","","","","",""
"433.2999999523163","arrowright","psychophysics","542","776512","0.0-3.0-0.265","","key","arrowright","16.665999999999677","896","504.5","266","10","-1","20","15","25","35","false"
"null","null","psychophysics","543","777515","0.0-3.0-1.265","","key","null","16.665999999999904","896","504.5","","","","","","","",""
"665.5999999046326","arrowright","psychophysics","544","778183","0.0-3.0-0.266","","key","arrowright","16.66600000000117","896","504.5","267","10","-1","24","15","25","35","false"
"null","null","psychophysics","545","779187","0.0-3.0-1.266","","key","null","16.665999999999904","896","504.5","","","","","","","",""
"546.5","arrowleft","psychophysics","546","779736","0.0-3.0-0.267","","key","arrowleft","16.666000000001077","896","504.5","268","10","-1","27","15","25","35","true"
"null","null","psychophysics","547","780742","0.0-3.0-1.267","","key","null","16.665999999999904","896","504.5","","","","","","","",""
"632.1999999284744","arrowright","psychophysics","548","781378","0.0-3.0-0.268","","key","arrowright","16.666000000002033","896","504.5","269","10","1","26","15","25","35","true"
"null","null","psychophysics","549","782380","0.0-3.0-1.268","","key","null","16.665999999999904","896","504.5","","","","","","","",""
"516","arrowright","psychophysics","550","782898","0.0-3.0-0.269","","key","arrowright","16.666000000003258","896","504.5","270","10","1","24","15","25","35","true"
"null","null","psychophysics","551","783902","0.0-3.0-1.269","","key","null","16.665999999999904","896","504.5","","","","","","","",""
"636.1000000238419","arrowleft","psychophysics","552","784540","0.0-3.0-0.270","","key","arrowleft","16.665999999999798","896","504.5","271","10","-1","26","15","25","35","true"
"null","null","psychophysics","553","785543","0.0-3.0-1.270","","key","null","16.66600000000132","896","504.5","","","","","","","",""
"409.1999999284744","arrowright","psychophysics","554","785954","0.0-3.0-0.271","","key","arrowright","16.665999999998704","896","504.5","272","10","-1","24","15","25","35","false"
"null","null","psychophysics","555","786959","0.0-3.0-1.271","","key","null","16.6813559322026","896","504.5","","","","","","","",""
"386","arrowleft","psychophysics","556","787353","0.0-3.0-0.272","","key","arrowleft","16.666000000003766","896","504.5","273","10","-1","26","15","25","35","true"
"null","null","psychophysics","557","788356","0.0-3.0-1.272","","key","null","16.665999999999904","896","504.5","","","","","","","",""
"452.2000000476837","arrowright","psychophysics","558","788810","0.0-3.0-0.273","","key","arrowright","16.665999999998515","896","504.5","274","10","1","24","15","25","35","true"
"null","null","psychophysics","559","789816","0.0-3.0-1.273","","key","null","16.665999999999904","896","504.5","","","","","","","",""
"486.39999997615814","arrowright","psychophysics","560","790305","0.0-3.0-0.274","","key","arrowright","16.666000000001596","896","504.5","275","10","1","27","15","25","35","true"
"null","null","psychophysics","561","791309","0.0-3.0-1.274","","key","null","16.665999999999904","896","504.5","","","","","","","",""
"429.3000000715256","arrowright","psychophysics","562","791742","0.0-3.0-0.275","","key","arrowright","16.66600000000093","896","504.5","276","10","1","30","15","25","35","true"
"null","null","psychophysics","563","792743","0.0-3.0-1.275","","key","null","16.66600000000132","896","504.5","","","","","","","",""
"852.7000000476837","arrowright","psychophysics","564","793598","0.0-3.0-0.276","","key","arrowright","16.66600000000093","896","504.5","277","10","1","24","35","25","35","true"
"null","null","psychophysics","565","794602","0.0-3.0-1.276","","key","null","16.665999999999904","896","504.5","","","","","","","",""
"444.6999999284744","arrowleft","psychophysics","566","795049","0.0-3.0-0.277","","key","arrowleft","16.665999999999677","896","504.5","278","10","1","20","35","25","35","false"
"null","null","psychophysics","567","796052","0.0-3.0-1.277","","key","null","16.66600000000188","896","504.5","","","","","","","",""
"523.9000000953674","arrowright","psychophysics","568","796578","0.0-3.0-0.278","","key","arrowright","16.665999999998377","896","504.5","279","10","1","23","35","25","35","true"
"null","null","psychophysics","569","797579","0.0-3.0-1.278","","key","null","16.66600000000188","896","504.5","","","","","","","",""
"530.2999999523163","arrowleft","psychophysics","570","798111","0.0-3.0-0.279","","key","arrowleft","16.665999999998377","896","504.5","280","11","-1","24","15","25","35","true"
"null","null","psychophysics","571","799117","0.0-3.0-1.279","","key","null","16.665999999999904","896","504.5","","","","","","","",""
