rt,response,trial_type,trial_index,time_elapsed,internal_node_id,stimulus,response_type,key_press,avg_frame_time,center_x,center_y,trial,block,test_pos,test_inner_radius,test_outer_radius,ref_inner_radius,ref_outer_radius,test_bigger
49990.6,"{""p_id"":""8407"",""age"":""19"",""handedness"":""left"",""sex"":""female"",""other_sex"":""""}",survey-html-form,0,49996,0.0-0.0,,,,,,,,,,,,,,
7547.4,d,html-keyboard-response,1,57546,0.0-1.0,"<p style=""color: white"">Welcome to the Size Judgment Experiment. <br>There will be 10 blocks in this experiment. <br>There will be 28 trials in each block. <br>You will be given a chance to take a break between blocks. <br>Press any key to start the experiment.</p>",,,,,,,,,,,,,
16751.5,c,psychophysics,2,74316,0.0-2.0,,key,c,13.33616866,960,500.5,,,,,,,,
1810.4,arrowright,psychophysics,3,76131,0.0-3.0-0.0,,key,arrowright,13.338,960,500.5,1,1,-1,24,35,25,35,FALSE
null,null,psychophysics,4,77138,0.0-3.0-1.0,,key,null,13.338,960,500.5,,,,,,,,
907.5,arrowright,psychophysics,5,78052,0.0-3.0-0.1,,key,arrowright,13.35814925,960,500.5,2,1,-1,23,15,25,35,FALSE
null,null,psychophysics,6,79061,0.0-3.0-1.1,,key,null,13.338,960,500.5,,,,,,,,
628.3,arrowright,psychophysics,7,79695,0.0-3.0-0.2,,key,arrowright,13.338,960,500.5,3,1,-1,25,15,25,35,FALSE
null,null,psychophysics,8,80698,0.0-3.0-1.2,,key,null,13.338,960,500.5,,,,,,,,
2071.2,arrowright,psychophysics,9,82773,0.0-3.0-0.3,,key,arrowright,13.338,960,500.5,4,1,-1,27,35,25,35,FALSE
null,null,psychophysics,10,83780,0.0-3.0-1.3,,key,null,13.338,960,500.5,,,,,,,,
1100.7,arrowleft,psychophysics,11,84888,0.0-3.0-0.4,,key,arrowleft,13.338,960,500.5,5,1,1,26,15,25,35,FALSE
null,null,psychophysics,12,85897,0.0-3.0-1.4,,key,null,13.338,960,500.5,,,,,,,,
1072.2,arrowright,psychophysics,13,86973,0.0-3.0-0.5,,key,arrowright,13.338,960,500.5,6,1,-1,25,35,25,35,FALSE
null,null,psychophysics,14,87978,0.0-3.0-1.5,,key,null,13.338,960,500.5,,,,,,,,
663.3,arrowright,psychophysics,15,88645,0.0-3.0-0.6,,key,arrowright,13.338,960,500.5,7,1,-1,20,15,25,35,FALSE
null,null,psychophysics,16,89650,0.0-3.0-1.6,,key,null,13.338,960,500.5,,,,,,,,
697.1,arrowleft,psychophysics,17,90351,0.0-3.0-0.7,,key,arrowleft,13.338,960,500.5,8,1,1,20,35,25,35,FALSE
null,null,psychophysics,18,91358,0.0-3.0-1.7,,key,null,13.338,960,500.5,,,,,,,,
664.5,arrowright,psychophysics,19,92029,0.0-3.0-0.8,,key,arrowright,13.338,960,500.5,9,1,-1,20,15,25,35,FALSE
null,null,psychophysics,20,93035,0.0-3.0-1.8,,key,null,13.338,960,500.5,,,,,,,,
858.4,arrowright,psychophysics,21,93898,0.0-3.0-0.9,,key,arrowright,13.338,960,500.5,10,1,-1,26,35,25,35,FALSE
null,null,psychophysics,22,94906,0.0-3.0-1.9,,key,null,13.338,960,500.5,,,,,,,,
600.2,arrowright,psychophysics,23,95510,0.0-3.0-0.10,,key,arrowright,13.338,960,500.5,11,1,1,25,35,25,35,TRUE
null,null,psychophysics,24,96515,0.0-3.0-1.10,,key,null,13.338,960,500.5,,,,,,,,
553.2,arrowright,psychophysics,25,97072,0.0-3.0-0.11,,key,arrowright,13.338,960,500.5,12,1,-1,26,35,25,35,FALSE
null,null,psychophysics,26,98083,0.0-3.0-1.11,,key,null,13.35577333,960,500.5,,,,,,,,
478.1,arrowright,psychophysics,27,98566,0.0-3.0-0.12,,key,arrowright,13.338,960,500.5,13,1,1,27,35,25,35,TRUE
null,null,psychophysics,28,99571,0.0-3.0-1.12,,key,null,13.338,960,500.5,,,,,,,,
756.1,arrowright,psychophysics,29,100330,0.0-3.0-0.13,,key,arrowright,13.338,960,500.5,14,1,1,27,35,25,35,TRUE
null,null,psychophysics,30,101338,0.0-3.0-1.13,,key,null,13.338,960,500.5,,,,,,,,
626.4,arrowright,psychophysics,31,101970,0.0-3.0-0.14,,key,arrowright,13.338,960,500.5,15,1,-1,26,35,25,35,FALSE
null,null,psychophysics,32,102976,0.0-3.0-1.14,,key,null,13.338,960,500.5,,,,,,,,
489.8,arrowright,psychophysics,33,103473,0.0-3.0-0.15,,key,arrowright,13.338,960,500.5,16,1,-1,30,35,25,35,FALSE
null,null,psychophysics,34,104483,0.0-3.0-1.15,,key,null,13.338,960,500.5,,,,,,,,
450.1,arrowleft,psychophysics,35,104938,0.0-3.0-0.16,,key,arrowleft,13.338,960,500.5,17,1,1,23,15,25,35,FALSE
null,null,psychophysics,36,105950,0.0-3.0-1.16,,key,null,13.338,960,500.5,,,,,,,,
458.4,arrowright,psychophysics,37,106416,0.0-3.0-0.17,,key,arrowright,13.338,960,500.5,18,1,-1,26,15,25,35,FALSE
null,null,psychophysics,38,107418,0.0-3.0-1.17,,key,null,13.338,960,500.5,,,,,,,,
415.8,arrowright,psychophysics,39,107838,0.0-3.0-0.18,,key,arrowright,13.338,960,500.5,19,1,-1,30,15,25,35,FALSE
null,null,psychophysics,40,108842,0.0-3.0-1.18,,key,null,13.338,960,500.5,,,,,,,,
487.5,arrowleft,psychophysics,41,109337,0.0-3.0-0.19,,key,arrowleft,13.338,960,500.5,20,1,1,20,15,25,35,FALSE
null,null,psychophysics,42,110339,0.0-3.0-1.19,,key,null,13.338,960,500.5,,,,,,,,
1794.5,arrowleft,psychophysics,43,112137,0.0-3.0-0.20,,key,arrowleft,13.338,960,500.5,21,1,-1,24,35,25,35,TRUE
null,null,psychophysics,44,113141,0.0-3.0-1.20,,key,null,13.338,960,500.5,,,,,,,,
617.6,arrowleft,psychophysics,45,113763,0.0-3.0-0.21,,key,arrowleft,13.338,960,500.5,22,1,1,26,15,25,35,FALSE
null,null,psychophysics,46,114768,0.0-3.0-1.21,,key,null,13.338,960,500.5,,,,,,,,
631.5,arrowright,psychophysics,47,115403,0.0-3.0-0.22,,key,arrowright,13.338,960,500.5,23,1,-1,26,35,25,35,FALSE
null,null,psychophysics,48,116408,0.0-3.0-1.22,,key,null,13.338,960,500.5,,,,,,,,
655.1,arrowright,psychophysics,49,117068,0.0-3.0-0.23,,key,arrowright,13.338,960,500.5,24,1,1,25,35,25,35,TRUE
null,null,psychophysics,50,118074,0.0-3.0-1.23,,key,null,13.35525676,960,500.5,,,,,,,,
428.6,arrowleft,psychophysics,51,118509,0.0-3.0-0.24,,key,arrowleft,13.338,960,500.5,25,1,1,27,15,25,35,FALSE
null,null,psychophysics,52,119517,0.0-3.0-1.24,,key,null,13.338,960,500.5,,,,,,,,
457.9,arrowright,psychophysics,53,119981,0.0-3.0-0.25,,key,arrowright,13.338,960,500.5,26,1,-1,26,35,25,35,FALSE
null,null,psychophysics,54,120984,0.0-3.0-1.25,,key,null,13.338,960,500.5,,,,,,,,
510.6,arrowright,psychophysics,55,121498,0.0-3.0-0.26,,key,arrowright,13.338,960,500.5,27,1,-1,27,35,25,35,FALSE
null,null,psychophysics,56,122506,0.0-3.0-1.26,,key,null,13.338,960,500.5,,,,,,,,
409.6,arrowright,psychophysics,57,122919,0.0-3.0-0.27,,key,arrowright,13.338,960,500.5,28,2,-1,27,15,25,35,FALSE
null,null,psychophysics,58,123924,0.0-3.0-1.27,,key,null,13.338,960,500.5,,,,,,,,
10662.8,h,html-keyboard-response,59,134589,0.0-3.0-2.27-0.27,"<div style=""color: white; text-align: center; vertical-align: top; display: inline-block; width: 800px; margin: auto""><p>You have completed 10% of the trials. You are on block 2 of 10. <br>Good job! Take a break if you need to.</p><p>Press any key to continue the experiment.</p></div>",,,,,,,,,,,,,
885.7,arrowright,psychophysics,60,136490,0.0-3.0-0.28,,key,arrowright,13.338,960,500.5,29,2,-1,23,15,25,35,FALSE
null,null,psychophysics,61,137499,0.0-3.0-1.28,,key,null,13.338,960,500.5,,,,,,,,
446.7,arrowright,psychophysics,62,137949,0.0-3.0-0.29,,key,arrowright,13.338,960,500.5,30,2,-1,30,15,25,35,FALSE
null,null,psychophysics,63,138952,0.0-3.0-1.29,,key,null,13.338,960,500.5,,,,,,,,
572,arrowleft,psychophysics,64,139527,0.0-3.0-0.30,,key,arrowleft,13.338,960,500.5,31,2,-1,25,35,25,35,TRUE
null,null,psychophysics,65,140534,0.0-3.0-1.30,,key,null,13.338,960,500.5,,,,,,,,
650.8,arrowright,psychophysics,66,141188,0.0-3.0-0.31,,key,arrowright,13.338,960,500.5,32,2,1,30,35,25,35,TRUE
null,null,psychophysics,67,142195,0.0-3.0-1.31,,key,null,13.338,960,500.5,,,,,,,,
715.3,arrowright,psychophysics,68,142917,0.0-3.0-0.32,,key,arrowright,13.338,960,500.5,33,2,1,24,35,25,35,TRUE
null,null,psychophysics,69,143927,0.0-3.0-1.32,,key,null,13.338,960,500.5,,,,,,,,
453.2,arrowright,psychophysics,70,144392,0.0-3.0-0.33,,key,arrowright,13.338,960,500.5,34,2,-1,30,15,25,35,FALSE
null,null,psychophysics,71,145396,0.0-3.0-1.33,,key,null,13.25856,960,500.5,,,,,,,,
539.4,arrowright,psychophysics,72,145941,0.0-3.0-0.34,,key,arrowright,13.338,960,500.5,35,2,1,26,35,25,35,TRUE
null,null,psychophysics,73,146951,0.0-3.0-1.34,,key,null,13.338,960,500.5,,,,,,,,
468.6,arrowleft,psychophysics,74,147423,0.0-3.0-0.35,,key,arrowleft,13.338,960,500.5,36,2,1,26,15,25,35,FALSE
null,null,psychophysics,75,148429,0.0-3.0-1.35,,key,null,13.338,960,500.5,,,,,,,,
666,arrowright,psychophysics,76,149108,0.0-3.0-0.36,,key,arrowright,13.338,960,500.5,37,2,1,25,35,25,35,TRUE
null,null,psychophysics,77,150111,0.0-3.0-1.36,,key,null,13.338,960,500.5,,,,,,,,
500.5,arrowright,psychophysics,78,150616,0.0-3.0-0.37,,key,arrowright,13.338,960,500.5,38,2,1,20,35,25,35,TRUE
null,null,psychophysics,79,151620,0.0-3.0-1.37,,key,null,13.338,960,500.5,,,,,,,,
527.2,arrowleft,psychophysics,80,152152,0.0-3.0-0.38,,key,arrowleft,13.338,960,500.5,39,2,1,23,35,25,35,FALSE
null,null,psychophysics,81,153155,0.0-3.0-1.38,,key,null,13.338,960,500.5,,,,,,,,
454.3,arrowright,psychophysics,82,153613,0.0-3.0-0.39,,key,arrowright,13.338,960,500.5,40,2,-1,30,15,25,35,FALSE
null,null,psychophysics,83,154618,0.0-3.0-1.39,,key,null,13.338,960,500.5,,,,,,,,
432.9,arrowright,psychophysics,84,155055,0.0-3.0-0.40,,key,arrowright,13.338,960,500.5,41,2,-1,27,15,25,35,FALSE
null,null,psychophysics,85,156060,0.0-3.0-1.40,,key,null,13.338,960,500.5,,,,,,,,
381.6,arrowleft,psychophysics,86,156448,0.0-3.0-0.41,,key,arrowleft,13.338,960,500.5,42,2,1,24,15,25,35,FALSE
null,null,psychophysics,87,157460,0.0-3.0-1.41,,key,null,13.338,960,500.5,,,,,,,,
548.8,arrowleft,psychophysics,88,158015,0.0-3.0-0.42,,key,arrowleft,13.338,960,500.5,43,2,-1,30,35,25,35,TRUE
null,null,psychophysics,89,159020,0.0-3.0-1.42,,key,null,13.338,960,500.5,,,,,,,,
409.6,arrowleft,psychophysics,90,159435,0.0-3.0-0.43,,key,arrowleft,13.338,960,500.5,44,2,1,26,15,25,35,FALSE
null,null,psychophysics,91,160445,0.0-3.0-1.43,,key,null,13.338,960,500.5,,,,,,,,
475.1,arrowright,psychophysics,92,160924,0.0-3.0-0.44,,key,arrowright,13.338,960,500.5,45,2,1,26,35,25,35,TRUE
null,null,psychophysics,93,161931,0.0-3.0-1.44,,key,null,13.338,960,500.5,,,,,,,,
373.4,arrowleft,psychophysics,94,162307,0.0-3.0-0.45,,key,arrowleft,13.338,960,500.5,46,2,1,30,15,25,35,FALSE
null,null,psychophysics,95,163316,0.0-3.0-1.45,,key,null,13.338,960,500.5,,,,,,,,
350.4,arrowright,psychophysics,96,163674,0.0-3.0-0.46,,key,arrowright,13.338,960,500.5,47,2,-1,27,15,25,35,FALSE
null,null,psychophysics,97,164676,0.0-3.0-1.46,,key,null,13.35555405,960,500.5,,,,,,,,
455.7,arrowright,psychophysics,98,165139,0.0-3.0-0.47,,key,arrowright,13.338,960,500.5,48,2,-1,24,15,25,35,FALSE
null,null,psychophysics,99,166145,0.0-3.0-1.47,,key,null,13.338,960,500.5,,,,,,,,
442.9,arrowright,psychophysics,100,166592,0.0-3.0-0.48,,key,arrowright,13.338,960,500.5,49,2,-1,24,15,25,35,FALSE
null,null,psychophysics,101,167597,0.0-3.0-1.48,,key,null,13.338,960,500.5,,,,,,,,
361,arrowleft,psychophysics,102,167967,0.0-3.0-0.49,,key,arrowleft,13.338,960,500.5,50,2,1,25,15,25,35,FALSE
null,null,psychophysics,103,168974,0.0-3.0-1.49,,key,null,13.338,960,500.5,,,,,,,,
435.8,arrowleft,psychophysics,104,169414,0.0-3.0-0.50,,key,arrowleft,13.338,960,500.5,51,2,1,27,15,25,35,FALSE
null,null,psychophysics,105,170427,0.0-3.0-1.50,,key,null,13.338,960,500.5,,,,,,,,
517.3,arrowleft,psychophysics,106,170949,0.0-3.0-0.51,,key,arrowleft,13.338,960,500.5,52,2,-1,30,35,25,35,TRUE
null,null,psychophysics,107,171961,0.0-3.0-1.51,,key,null,13.338,960,500.5,,,,,,,,
417.7,arrowright,psychophysics,108,172383,0.0-3.0-0.52,,key,arrowright,13.338,960,500.5,53,2,-1,20,15,25,35,FALSE
null,null,psychophysics,109,173388,0.0-3.0-1.52,,key,null,13.338,960,500.5,,,,,,,,
499.8,arrowright,psychophysics,110,173891,0.0-3.0-0.53,,key,arrowright,13.338,960,500.5,54,2,-1,24,15,25,35,FALSE
null,null,psychophysics,111,174893,0.0-3.0-1.53,,key,null,13.338,960,500.5,,,,,,,,
440.1,arrowright,psychophysics,112,175340,0.0-3.0-0.54,,key,arrowright,13.338,960,500.5,55,2,-1,30,15,25,35,FALSE
null,null,psychophysics,113,176348,0.0-3.0-1.54,,key,null,13.338,960,500.5,,,,,,,,
2967.5,arrowright,psychophysics,114,179319,0.0-3.0-0.55,,key,arrowright,13.338,960,500.5,56,3,1,30,35,25,35,TRUE
null,null,psychophysics,115,180322,0.0-3.0-1.55,,key,null,13.338,960,500.5,,,,,,,,
2693.3,c,html-keyboard-response,116,183018,0.0-3.0-2.55-0.55,"<div style=""color: white; text-align: center; vertical-align: top; display: inline-block; width: 800px; margin: auto""><p>You have completed 20% of the trials. You are on block 3 of 10. <br>Good job! Take a break if you need to.</p><p>Press any key to continue the experiment.</p></div>",,,,,,,,,,,,,
546.1,arrowright,psychophysics,117,184573,0.0-3.0-0.56,,key,arrowright,13.338,960,500.5,57,3,-1,20,15,25,35,FALSE
null,null,psychophysics,118,185581,0.0-3.0-1.56,,key,null,13.35648,960,500.5,,,,,,,,
604.2,arrowright,psychophysics,119,186191,0.0-3.0-0.57,,key,arrowright,13.338,960,500.5,58,3,-1,27,35,25,35,FALSE
null,null,psychophysics,120,187194,0.0-3.0-1.57,,key,null,13.338,960,500.5,,,,,,,,
495.8,arrowright,psychophysics,121,187695,0.0-3.0-0.58,,key,arrowright,13.338,960,500.5,59,3,-1,25,35,25,35,FALSE
null,null,psychophysics,122,188700,0.0-3.0-1.58,,key,null,13.338,960,500.5,,,,,,,,
432.6,arrowright,psychophysics,123,189140,0.0-3.0-0.59,,key,arrowright,13.338,960,500.5,60,3,-1,30,15,25,35,FALSE
null,null,psychophysics,124,190142,0.0-3.0-1.59,,key,null,13.338,960,500.5,,,,,,,,
451.2,arrowright,psychophysics,125,190598,0.0-3.0-0.60,,key,arrowright,13.338,960,500.5,61,3,-1,27,15,25,35,FALSE
null,null,psychophysics,126,191607,0.0-3.0-1.60,,key,null,13.338,960,500.5,,,,,,,,
731.7,arrowright,psychophysics,127,192345,0.0-3.0-0.61,,key,arrowright,13.338,960,500.5,62,3,-1,23,35,25,35,FALSE
null,null,psychophysics,128,193349,0.0-3.0-1.61,,key,null,13.338,960,500.5,,,,,,,,
596.3,arrowright,psychophysics,129,193950,0.0-3.0-0.62,,key,arrowright,13.338,960,500.5,63,3,-1,26,15,25,35,FALSE
null,null,psychophysics,130,194956,0.0-3.0-1.62,,key,null,13.338,960,500.5,,,,,,,,
414.3,arrowright,psychophysics,131,195375,0.0-3.0-0.63,,key,arrowright,13.338,960,500.5,64,3,-1,25,15,25,35,FALSE
null,null,psychophysics,132,196383,0.0-3.0-1.63,,key,null,13.338,960,500.5,,,,,,,,
788.2,arrowleft,psychophysics,133,197179,0.0-3.0-0.64,,key,arrowleft,13.338,960,500.5,65,3,1,20,35,25,35,FALSE
null,null,psychophysics,134,198182,0.0-3.0-1.64,,key,null,13.338,960,500.5,,,,,,,,
592.3,arrowright,psychophysics,135,198778,0.0-3.0-0.65,,key,arrowright,13.338,960,500.5,66,3,-1,24,35,25,35,FALSE
null,null,psychophysics,136,199784,0.0-3.0-1.65,,key,null,13.338,960,500.5,,,,,,,,
451.3,arrowleft,psychophysics,137,200243,0.0-3.0-0.66,,key,arrowleft,13.338,960,500.5,67,3,1,27,15,25,35,FALSE
null,null,psychophysics,138,201249,0.0-3.0-1.66,,key,null,13.338,960,500.5,,,,,,,,
455.6,arrowleft,psychophysics,139,201708,0.0-3.0-0.67,,key,arrowleft,13.338,960,500.5,68,3,1,30,15,25,35,FALSE
null,null,psychophysics,140,202718,0.0-3.0-1.67,,key,null,13.338,960,500.5,,,,,,,,
606.6,arrowright,psychophysics,141,203328,0.0-3.0-0.68,,key,arrowright,13.338,960,500.5,69,3,-1,23,35,25,35,FALSE
null,null,psychophysics,142,204333,0.0-3.0-1.68,,key,null,13.338,960,500.5,,,,,,,,
456.3,arrowright,psychophysics,143,204797,0.0-3.0-0.69,,key,arrowright,13.37767647,960,500.5,70,3,1,23,35,25,35,TRUE
null,null,psychophysics,144,205803,0.0-3.0-1.69,,key,null,13.338,960,500.5,,,,,,,,
452.8,arrowleft,psychophysics,145,206262,0.0-3.0-0.70,,key,arrowleft,13.338,960,500.5,71,3,1,30,15,25,35,FALSE
null,null,psychophysics,146,207270,0.0-3.0-1.70,,key,null,13.338,960,500.5,,,,,,,,
603.6,arrowleft,psychophysics,147,207877,0.0-3.0-0.71,,key,arrowleft,13.338,960,500.5,72,3,1,20,15,25,35,FALSE
null,null,psychophysics,148,208885,0.0-3.0-1.71,,key,null,13.338,960,500.5,,,,,,,,
473.5,arrowright,psychophysics,149,209363,0.0-3.0-0.72,,key,arrowright,13.338,960,500.5,73,3,-1,20,35,25,35,FALSE
null,null,psychophysics,150,210367,0.0-3.0-1.72,,key,null,13.338,960,500.5,,,,,,,,
453.3,arrowright,psychophysics,151,210825,0.0-3.0-0.73,,key,arrowright,13.338,960,500.5,74,3,-1,26,15,25,35,FALSE
null,null,psychophysics,152,211831,0.0-3.0-1.73,,key,null,13.338,960,500.5,,,,,,,,
420.2,arrowleft,psychophysics,153,212256,0.0-3.0-0.74,,key,arrowleft,13.338,960,500.5,75,3,1,20,15,25,35,FALSE
null,null,psychophysics,154,213258,0.0-3.0-1.74,,key,null,13.338,960,500.5,,,,,,,,
580.5,arrowright,psychophysics,155,213843,0.0-3.0-0.75,,key,arrowright,13.338,960,500.5,76,3,-1,27,35,25,35,FALSE
null,null,psychophysics,156,214845,0.0-3.0-1.75,,key,null,13.338,960,500.5,,,,,,,,
343.7,arrowleft,psychophysics,157,215193,0.0-3.0-0.76,,key,arrowleft,13.338,960,500.5,77,3,1,20,15,25,35,FALSE
null,null,psychophysics,158,216196,0.0-3.0-1.76,,key,null,13.338,960,500.5,,,,,,,,
321.6,arrowright,psychophysics,159,216521,0.0-3.0-0.77,,key,arrowright,13.338,960,500.5,78,3,-1,25,15,25,35,FALSE
null,null,psychophysics,160,217526,0.0-3.0-1.77,,key,null,13.338,960,500.5,,,,,,,,
1559.9,arrowright,psychophysics,161,219096,0.0-3.0-0.78,,key,arrowright,13.338,960,500.5,79,3,1,30,35,25,35,TRUE
null,null,psychophysics,162,220101,0.0-3.0-1.78,,key,null,13.338,960,500.5,,,,,,,,
1069.9,arrowright,psychophysics,163,221177,0.0-3.0-0.79,,key,arrowright,13.338,960,500.5,80,3,-1,30,35,25,35,FALSE
null,null,psychophysics,164,222181,0.0-3.0-1.79,,key,null,13.338,960,500.5,,,,,,,,
509.6,arrowleft,psychophysics,165,222695,0.0-3.0-0.80,,key,arrowleft,13.338,960,500.5,81,3,1,26,15,25,35,FALSE
null,null,psychophysics,166,223702,0.0-3.0-1.80,,key,null,13.338,960,500.5,,,,,,,,
818.5,arrowleft,psychophysics,167,224528,0.0-3.0-0.81,,key,arrowleft,13.338,960,500.5,82,3,1,24,15,25,35,FALSE
null,null,psychophysics,168,225531,0.0-3.0-1.81,,key,null,13.35541892,960,500.5,,,,,,,,
581.8,arrowright,psychophysics,169,226118,0.0-3.0-0.82,,key,arrowright,13.338,960,500.5,83,3,1,30,35,25,35,TRUE
null,null,psychophysics,170,227127,0.0-3.0-1.82,,key,null,13.338,960,500.5,,,,,,,,
518.3,arrowright,psychophysics,171,227648,0.0-3.0-0.83,,key,arrowright,13.338,960,500.5,84,4,1,25,35,25,35,TRUE
null,null,psychophysics,172,228653,0.0-3.0-1.83,,key,null,13.338,960,500.5,,,,,,,,
36776.1,k,html-keyboard-response,173,265432,0.0-3.0-2.83-0.83,"<div style=""color: white; text-align: center; vertical-align: top; display: inline-block; width: 800px; margin: auto""><p>You have completed 30% of the trials. You are on block 4 of 10. <br>Good job! Take a break if you need to.</p><p>Press any key to continue the experiment.</p></div>",,,,,,,,,,,,,
1890.2,arrowright,psychophysics,174,268331,0.0-3.0-0.84,,key,arrowright,13.338,960,500.5,85,4,-1,20,35,25,35,FALSE
null,null,psychophysics,175,269337,0.0-3.0-1.84,,key,null,13.338,960,500.5,,,,,,,,
719.3,arrowright,psychophysics,176,270062,0.0-3.0-0.85,,key,arrowright,13.338,960,500.5,86,4,1,30,35,25,35,TRUE
null,null,psychophysics,177,271070,0.0-3.0-1.85,,key,null,13.338,960,500.5,,,,,,,,
556.8,arrowright,psychophysics,178,271631,0.0-3.0-0.86,,key,arrowright,13.338,960,500.5,87,4,-1,26,15,25,35,FALSE
null,null,psychophysics,179,272634,0.0-3.0-1.86,,key,null,13.338,960,500.5,,,,,,,,
576.5,arrowright,psychophysics,180,273214,0.0-3.0-0.87,,key,arrowright,13.338,960,500.5,88,4,-1,23,35,25,35,FALSE
null,null,psychophysics,181,274223,0.0-3.0-1.87,,key,null,13.74811111,960,500.5,,,,,,,,
454.7,arrowleft,psychophysics,182,274682,0.0-3.0-0.88,,key,arrowleft,16.667,960,500.5,89,4,1,20,15,25,35,FALSE
null,null,psychophysics,183,275692,0.0-3.0-1.88,,key,null,16.667,960,500.5,,,,,,,,
346.9,arrowleft,psychophysics,184,276050,0.0-3.0-0.89,,key,arrowleft,16.667,960,500.5,90,4,1,23,15,25,35,FALSE
null,null,psychophysics,185,277058,0.0-3.0-1.89,,key,null,16.667,960,500.5,,,,,,,,
436.8,arrowright,psychophysics,186,277502,0.0-3.0-0.90,,key,arrowright,16.667,960,500.5,91,4,-1,23,35,25,35,FALSE
null,null,psychophysics,187,278507,0.0-3.0-1.90,,key,null,16.667,960,500.5,,,,,,,,
394.9,arrowright,psychophysics,188,278906,0.0-3.0-0.91,,key,arrowright,16.667,960,500.5,92,4,-1,24,15,25,35,FALSE
null,null,psychophysics,189,279911,0.0-3.0-1.91,,key,null,16.667,960,500.5,,,,,,,,
616.7,arrowleft,psychophysics,190,280532,0.0-3.0-0.92,,key,arrowleft,16.667,960,500.5,93,4,1,20,35,25,35,FALSE
null,null,psychophysics,191,281540,0.0-3.0-1.92,,key,null,16.667,960,500.5,,,,,,,,
1370.9,arrowright,psychophysics,192,282915,0.0-3.0-0.93,,key,arrowright,16.667,960,500.5,94,4,1,24,35,25,35,TRUE
null,null,psychophysics,193,283924,0.0-3.0-1.93,,key,null,16.667,960,500.5,,,,,,,,
451.3,arrowleft,psychophysics,194,284382,0.0-3.0-0.94,,key,arrowleft,16.667,960,500.5,95,4,1,24,15,25,35,FALSE
null,null,psychophysics,195,285392,0.0-3.0-1.94,,key,null,16.667,960,500.5,,,,,,,,
519.7,arrowright,psychophysics,196,285919,0.0-3.0-0.95,,key,arrowright,16.667,960,500.5,96,4,1,25,35,25,35,TRUE
null,null,psychophysics,197,286928,0.0-3.0-1.95,,key,null,16.667,960,500.5,,,,,,,,
666.9,arrowright,psychophysics,198,287599,0.0-3.0-0.96,,key,arrowright,16.667,960,500.5,97,4,1,24,35,25,35,TRUE
null,null,psychophysics,199,288608,0.0-3.0-1.96,,key,null,16.667,960,500.5,,,,,,,,
637.3,arrowright,psychophysics,200,289257,0.0-3.0-0.97,,key,arrowright,16.667,960,500.5,98,4,-1,30,35,25,35,FALSE
null,null,psychophysics,201,290260,0.0-3.0-1.97,,key,null,16.667,960,500.5,,,,,,,,
518.7,arrowright,psychophysics,202,290783,0.0-3.0-0.98,,key,arrowright,16.667,960,500.5,99,4,-1,23,15,25,35,FALSE
null,null,psychophysics,203,291792,0.0-3.0-1.98,,key,null,16.667,960,500.5,,,,,,,,
307.1,arrowleft,psychophysics,204,292106,0.0-3.0-0.99,,key,arrowleft,16.667,960,500.5,100,4,1,23,15,25,35,FALSE
null,null,psychophysics,205,293110,0.0-3.0-1.99,,key,null,16.667,960,500.5,,,,,,,,
406.1,arrowleft,psychophysics,206,293522,0.0-3.0-0.100,,key,arrowleft,16.667,960,500.5,101,4,1,24,15,25,35,FALSE
null,null,psychophysics,207,294529,0.0-3.0-1.100,,key,null,16.68483333,960,500.5,,,,,,,,
432.4,arrowleft,psychophysics,208,294966,0.0-3.0-0.101,,key,arrowleft,16.667,960,500.5,102,4,1,23,15,25,35,FALSE
null,null,psychophysics,209,295973,0.0-3.0-1.101,,key,null,16.667,960,500.5,,,,,,,,
525.2,arrowright,psychophysics,210,296501,0.0-3.0-0.102,,key,arrowright,16.667,960,500.5,103,4,-1,20,35,25,35,FALSE
null,null,psychophysics,211,297509,0.0-3.0-1.102,,key,null,16.667,960,500.5,,,,,,,,
405.3,arrowright,psychophysics,212,297919,0.0-3.0-0.103,,key,arrowright,16.667,960,500.5,104,4,-1,20,15,25,35,FALSE
null,null,psychophysics,213,298928,0.0-3.0-1.103,,key,null,16.94949153,960,500.5,,,,,,,,
415.4,arrowright,psychophysics,214,299346,0.0-3.0-0.104,,key,arrowright,16.667,960,500.5,105,4,-1,27,15,25,35,FALSE
null,null,psychophysics,215,300353,0.0-3.0-1.104,,key,null,16.667,960,500.5,,,,,,,,
297.7,arrowright,psychophysics,216,300653,0.0-3.0-0.105,,key,arrowright,16.667,960,500.5,106,4,1,27,35,25,35,TRUE
null,null,psychophysics,217,301659,0.0-3.0-1.105,,key,null,16.667,960,500.5,,,,,,,,
336.7,arrowleft,psychophysics,218,302009,0.0-3.0-0.106,,key,arrowleft,16.667,960,500.5,107,4,1,24,15,25,35,FALSE
null,null,psychophysics,219,303013,0.0-3.0-1.106,,key,null,16.667,960,500.5,,,,,,,,
832.7,arrowleft,psychophysics,220,303850,0.0-3.0-0.107,,key,arrowleft,16.667,960,500.5,108,4,1,25,35,25,35,FALSE
null,null,psychophysics,221,304860,0.0-3.0-1.107,,key,null,16.667,960,500.5,,,,,,,,
382.8,arrowleft,psychophysics,222,305247,0.0-3.0-0.108,,key,arrowleft,16.667,960,500.5,109,4,1,23,15,25,35,FALSE
null,null,psychophysics,223,306260,0.0-3.0-1.108,,key,null,16.667,960,500.5,,,,,,,,
2739.3,arrowright,psychophysics,224,309006,0.0-3.0-0.109,,key,arrowright,16.667,960,500.5,110,4,-1,27,35,25,35,FALSE
null,null,psychophysics,225,310010,0.0-3.0-1.109,,key,null,16.667,960,500.5,,,,,,,,
5206.6,arrowright,psychophysics,226,315224,0.0-3.0-0.110,,key,arrowright,16.67017308,960,500.5,111,4,1,25,15,25,35,TRUE
null,null,psychophysics,227,316229,0.0-3.0-1.110,,key,null,16.667,960,500.5,,,,,,,,
973.6,arrowright,psychophysics,228,317207,0.0-3.0-0.111,,key,arrowright,16.667,960,500.5,112,5,1,27,35,25,35,TRUE
null,null,psychophysics,229,318214,0.0-3.0-1.111,,key,null,16.667,960,500.5,,,,,,,,
18221.9,k,html-keyboard-response,230,336440,0.0-3.0-2.111-0.111,"<div style=""color: white; text-align: center; vertical-align: top; display: inline-block; width: 800px; margin: auto""><p>You have completed 40% of the trials. You are on block 5 of 10. <br>Good job! Take a break if you need to.</p><p>Press any key to continue the experiment.</p></div>",,,,,,,,,,,,,
2208.7,arrowright,psychophysics,231,339656,0.0-3.0-0.112,,key,arrowright,16.667,960,500.5,113,5,1,30,15,25,35,TRUE
null,null,psychophysics,232,340667,0.0-3.0-1.112,,key,null,16.667,960,500.5,,,,,,,,
965.3,arrowleft,psychophysics,233,341637,0.0-3.0-0.113,,key,arrowleft,16.667,960,500.5,114,5,1,24,35,25,35,FALSE
null,null,psychophysics,234,342642,0.0-3.0-1.113,,key,null,16.667,960,500.5,,,,,,,,
893,arrowright,psychophysics,235,343538,0.0-3.0-0.114,,key,arrowright,16.667,960,500.5,115,5,-1,25,35,25,35,FALSE
null,null,psychophysics,236,344548,0.0-3.0-1.114,,key,null,16.667,960,500.5,,,,,,,,
1101.9,arrowleft,psychophysics,237,345657,0.0-3.0-0.115,,key,arrowleft,16.667,960,500.5,116,5,1,24,35,25,35,FALSE
null,null,psychophysics,238,346667,0.0-3.0-1.115,,key,null,16.667,960,500.5,,,,,,,,
1617.9,arrowright,psychophysics,239,348289,0.0-3.0-0.116,,key,arrowright,16.667,960,500.5,117,5,-1,23,15,25,35,FALSE
null,null,psychophysics,240,349299,0.0-3.0-1.116,,key,null,16.667,960,500.5,,,,,,,,
721.8,arrowright,psychophysics,241,350026,0.0-3.0-0.117,,key,arrowright,16.667,960,500.5,118,5,-1,20,35,25,35,FALSE
null,null,psychophysics,242,351032,0.0-3.0-1.117,,key,null,16.667,960,500.5,,,,,,,,
952.1,arrowright,psychophysics,243,351989,0.0-3.0-0.118,,key,arrowright,16.667,960,500.5,119,5,-1,25,35,25,35,FALSE
null,null,psychophysics,244,352998,0.0-3.0-1.118,,key,null,16.667,960,500.5,,,,,,,,
1100.9,arrowright,psychophysics,245,354105,0.0-3.0-0.119,,key,arrowright,16.667,960,500.5,120,5,-1,24,35,25,35,FALSE
null,null,psychophysics,246,355115,0.0-3.0-1.119,,key,null,16.667,960,500.5,,,,,,,,
777.2,arrowleft,psychophysics,247,355898,0.0-3.0-0.120,,key,arrowleft,16.667,960,500.5,121,5,1,20,35,25,35,FALSE
null,null,psychophysics,248,356903,0.0-3.0-1.120,,key,null,16.68225,960,500.5,,,,,,,,
2591.8,arrowright,psychophysics,249,359498,0.0-3.0-0.121,,key,arrowright,16.667,960,500.5,122,5,1,25,15,25,35,TRUE
null,null,psychophysics,250,360502,0.0-3.0-1.121,,key,null,16.667,960,500.5,,,,,,,,
736.4,arrowleft,psychophysics,251,361243,0.0-3.0-0.122,,key,arrowleft,16.667,960,500.5,123,5,-1,30,15,25,35,TRUE
null,null,psychophysics,252,362252,0.0-3.0-1.122,,key,null,16.667,960,500.5,,,,,,,,
709.9,arrowleft,psychophysics,253,362966,0.0-3.0-0.123,,key,arrowleft,16.667,960,500.5,124,5,-1,30,35,25,35,TRUE
null,null,psychophysics,254,363969,0.0-3.0-1.123,,key,null,16.667,960,500.5,,,,,,,,
717.3,arrowleft,psychophysics,255,364691,0.0-3.0-0.124,,key,arrowleft,16.667,960,500.5,125,5,-1,26,15,25,35,TRUE
null,null,psychophysics,256,365699,0.0-3.0-1.124,,key,null,16.667,960,500.5,,,,,,,,
934,arrowleft,psychophysics,257,366641,0.0-3.0-0.125,,key,arrowleft,16.667,960,500.5,126,5,1,25,35,25,35,FALSE
null,null,psychophysics,258,367644,0.0-3.0-1.125,,key,null,16.667,960,500.5,,,,,,,,
644.7,arrowright,psychophysics,259,368292,0.0-3.0-0.126,,key,arrowright,16.667,960,500.5,127,5,-1,20,35,25,35,FALSE
null,null,psychophysics,260,369302,0.0-3.0-1.126,,key,null,16.667,960,500.5,,,,,,,,
570.5,arrowleft,psychophysics,261,369880,0.0-3.0-0.127,,key,arrowleft,16.667,960,500.5,128,5,1,20,35,25,35,FALSE
null,null,psychophysics,262,370888,0.0-3.0-1.127,,key,null,16.667,960,500.5,,,,,,,,
475.6,arrowright,psychophysics,263,371368,0.0-3.0-0.128,,key,arrowright,16.667,960,500.5,129,5,-1,26,15,25,35,FALSE
null,null,psychophysics,264,372372,0.0-3.0-1.128,,key,null,16.667,960,500.5,,,,,,,,
1032.6,arrowleft,psychophysics,265,373410,0.0-3.0-0.129,,key,arrowleft,16.667,960,500.5,130,5,1,25,35,25,35,FALSE
null,null,psychophysics,266,374420,0.0-3.0-1.129,,key,null,16.667,960,500.5,,,,,,,,
640.8,arrowleft,psychophysics,267,375064,0.0-3.0-0.130,,key,arrowleft,16.667,960,500.5,131,5,-1,30,35,25,35,TRUE
null,null,psychophysics,268,376074,0.0-3.0-1.130,,key,null,16.667,960,500.5,,,,,,,,
651.5,arrowleft,psychophysics,269,376731,0.0-3.0-0.131,,key,arrowleft,16.69473684,960,500.5,132,5,-1,30,35,25,35,TRUE
null,null,psychophysics,270,377741,0.0-3.0-1.131,,key,null,16.95436207,960,500.5,,,,,,,,
2483.6,arrowright,psychophysics,271,380234,0.0-3.0-0.132,,key,arrowright,16.667,960,500.5,133,5,-1,25,35,25,35,FALSE
null,null,psychophysics,272,381243,0.0-3.0-1.132,,key,null,16.667,960,500.5,,,,,,,,
867,arrowright,psychophysics,273,382117,0.0-3.0-0.133,,key,arrowright,16.667,960,500.5,134,5,1,27,35,25,35,TRUE
null,null,psychophysics,274,383123,0.0-3.0-1.133,,key,null,16.667,960,500.5,,,,,,,,
890.9,arrowleft,psychophysics,275,384018,0.0-3.0-0.134,,key,arrowleft,16.667,960,500.5,135,5,1,20,15,25,35,FALSE
null,null,psychophysics,276,385029,0.0-3.0-1.134,,key,null,16.667,960,500.5,,,,,,,,
1562.5,arrowright,psychophysics,277,386596,0.0-3.0-0.135,,key,arrowright,16.667,960,500.5,136,5,-1,24,35,25,35,FALSE
null,null,psychophysics,278,387603,0.0-3.0-1.135,,key,null,16.667,960,500.5,,,,,,,,
799.3,arrowright,psychophysics,279,388406,0.0-3.0-0.136,,key,arrowright,16.667,960,500.5,137,5,-1,24,35,25,35,FALSE
null,null,psychophysics,280,389410,0.0-3.0-1.136,,key,null,16.667,960,500.5,,,,,,,,
1643.2,arrowright,psychophysics,281,391058,0.0-3.0-0.137,,key,arrowright,16.667,960,500.5,138,5,-1,24,15,25,35,FALSE
null,null,psychophysics,282,392061,0.0-3.0-1.137,,key,null,16.667,960,500.5,,,,,,,,
737.9,arrowleft,psychophysics,283,392804,0.0-3.0-0.138,,key,arrowleft,16.667,960,500.5,139,5,-1,26,15,25,35,TRUE
null,null,psychophysics,284,393812,0.0-3.0-1.138,,key,null,16.667,960,500.5,,,,,,,,
656.2,arrowleft,psychophysics,285,394474,0.0-3.0-0.139,,key,arrowleft,16.667,960,500.5,140,6,1,23,35,25,35,FALSE
null,null,psychophysics,286,395478,0.0-3.0-1.139,,key,null,16.667,960,500.5,,,,,,,,
24763.4,v,html-keyboard-response,287,420245,0.0-3.0-2.139-0.139,"<div style=""color: white; text-align: center; vertical-align: top; display: inline-block; width: 800px; margin: auto""><p>You have completed 50% of the trials. You are on block 6 of 10. <br>Good job! Take a break if you need to.</p><p>Press any key to continue the experiment.</p></div>",,,,,,,,,,,,,
2190.6,arrowleft,psychophysics,288,423446,0.0-3.0-0.140,,key,arrowleft,16.667,960,500.5,141,6,1,23,15,25,35,FALSE
null,null,psychophysics,289,424449,0.0-3.0-1.140,,key,null,16.667,960,500.5,,,,,,,,
1768.5,arrowright,psychophysics,290,426222,0.0-3.0-0.141,,key,arrowright,16.667,960,500.5,142,6,1,30,15,25,35,TRUE
null,null,psychophysics,291,427232,0.0-3.0-1.141,,key,null,16.667,960,500.5,,,,,,,,
1107.9,arrowleft,psychophysics,292,428347,0.0-3.0-0.142,,key,arrowleft,16.667,960,500.5,143,6,1,24,35,25,35,FALSE
null,null,psychophysics,293,429353,0.0-3.0-1.142,,key,null,14.34976812,960,500.5,,,,,,,,
1075.4,arrowright,psychophysics,294,430435,0.0-3.0-0.143,,key,arrowright,13.338,960,500.5,144,6,-1,24,15,25,35,FALSE
null,null,psychophysics,295,431440,0.0-3.0-1.143,,key,null,13.338,960,500.5,,,,,,,,
665.8,arrowright,psychophysics,296,432109,0.0-3.0-0.144,,key,arrowright,13.338,960,500.5,145,6,1,25,15,25,35,TRUE
null,null,psychophysics,297,433114,0.0-3.0-1.144,,key,null,13.338,960,500.5,,,,,,,,
649.2,arrowleft,psychophysics,298,433770,0.0-3.0-0.145,,key,arrowleft,13.338,960,500.5,146,6,-1,24,15,25,35,TRUE
null,null,psychophysics,299,434776,0.0-3.0-1.145,,key,null,13.338,960,500.5,,,,,,,,
648.5,arrowright,psychophysics,300,435427,0.0-3.0-0.146,,key,arrowright,13.338,960,500.5,147,6,1,30,15,25,35,TRUE
null,null,psychophysics,301,436435,0.0-3.0-1.146,,key,null,13.338,960,500.5,,,,,,,,
607.8,arrowright,psychophysics,302,437055,0.0-3.0-0.147,,key,arrowright,13.338,960,500.5,148,6,1,26,15,25,35,TRUE
null,null,psychophysics,303,438064,0.0-3.0-1.147,,key,null,13.51824324,960,500.5,,,,,,,,
558.2,arrowleft,psychophysics,304,438627,0.0-3.0-0.148,,key,arrowleft,13.338,960,500.5,149,6,1,20,35,25,35,FALSE
null,null,psychophysics,305,439634,0.0-3.0-1.148,,key,null,13.338,960,500.5,,,,,,,,
457.3,arrowright,psychophysics,306,440096,0.0-3.0-0.149,,key,arrowright,13.338,960,500.5,150,6,-1,23,15,25,35,FALSE
null,null,psychophysics,307,441105,0.0-3.0-1.149,,key,null,13.338,960,500.5,,,,,,,,
497.1,arrowleft,psychophysics,308,441608,0.0-3.0-0.150,,key,arrowleft,13.338,960,500.5,151,6,1,25,15,25,35,FALSE
null,null,psychophysics,309,442613,0.0-3.0-1.150,,key,null,13.338,960,500.5,,,,,,,,
514.4,arrowleft,psychophysics,310,443131,0.0-3.0-0.151,,key,arrowleft,13.338,960,500.5,152,6,1,23,15,25,35,FALSE
null,null,psychophysics,311,444133,0.0-3.0-1.151,,key,null,13.338,960,500.5,,,,,,,,
878,arrowright,psychophysics,312,445016,0.0-3.0-0.152,,key,arrowright,13.338,960,500.5,153,6,1,24,15,25,35,TRUE
null,null,psychophysics,313,446024,0.0-3.0-1.152,,key,null,13.338,960,500.5,,,,,,,,
555.2,arrowright,psychophysics,314,446584,0.0-3.0-0.153,,key,arrowright,13.338,960,500.5,154,6,1,30,35,25,35,TRUE
null,null,psychophysics,315,447587,0.0-3.0-1.153,,key,null,13.338,960,500.5,,,,,,,,
534.8,arrowright,psychophysics,316,448127,0.0-3.0-0.154,,key,arrowright,13.338,960,500.5,155,6,1,26,35,25,35,TRUE
null,null,psychophysics,317,449134,0.0-3.0-1.154,,key,null,13.35605405,960,500.5,,,,,,,,
571.5,arrowright,psychophysics,318,449711,0.0-3.0-0.155,,key,arrowright,13.338,960,500.5,156,6,1,27,35,25,35,TRUE
null,null,psychophysics,319,450722,0.0-3.0-1.155,,key,null,13.338,960,500.5,,,,,,,,
719.3,arrowleft,psychophysics,320,451448,0.0-3.0-0.156,,key,arrowleft,13.338,960,500.5,157,6,-1,25,35,25,35,TRUE
null,null,psychophysics,321,452457,0.0-3.0-1.156,,key,null,13.338,960,500.5,,,,,,,,
550.3,arrowleft,psychophysics,322,453013,0.0-3.0-0.157,,key,arrowleft,13.338,960,500.5,158,6,1,20,35,25,35,FALSE
null,null,psychophysics,323,454016,0.0-3.0-1.157,,key,null,13.338,960,500.5,,,,,,,,
666.4,arrowright,psychophysics,324,454695,0.0-3.0-0.158,,key,arrowright,13.338,960,500.5,159,6,1,27,35,25,35,TRUE
null,null,psychophysics,325,455697,0.0-3.0-1.158,,key,null,13.338,960,500.5,,,,,,,,
710.8,arrowright,psychophysics,326,456414,0.0-3.0-0.159,,key,arrowright,13.338,960,500.5,160,6,1,27,15,25,35,TRUE
null,null,psychophysics,327,457417,0.0-3.0-1.159,,key,null,13.338,960,500.5,,,,,,,,
608.7,arrowleft,psychophysics,328,458034,0.0-3.0-0.160,,key,arrowleft,13.338,960,500.5,161,6,1,23,35,25,35,FALSE
null,null,psychophysics,329,459042,0.0-3.0-1.160,,key,null,13.338,960,500.5,,,,,,,,
753.6,arrowleft,psychophysics,330,459799,0.0-3.0-0.161,,key,arrowleft,13.338,960,500.5,162,6,-1,27,15,25,35,TRUE
null,null,psychophysics,331,460809,0.0-3.0-1.161,,key,null,13.338,960,500.5,,,,,,,,
601,arrowleft,psychophysics,332,461414,0.0-3.0-0.162,,key,arrowleft,13.338,960,500.5,163,6,-1,30,15,25,35,TRUE
null,null,psychophysics,333,462420,0.0-3.0-1.162,,key,null,13.338,960,500.5,,,,,,,,
723,arrowleft,psychophysics,334,463157,0.0-3.0-0.163,,key,arrowleft,13.338,960,500.5,164,6,-1,26,15,25,35,TRUE
null,null,psychophysics,335,464167,0.0-3.0-1.163,,key,null,13.338,960,500.5,,,,,,,,
972.9,arrowleft,psychophysics,336,465147,0.0-3.0-0.164,,key,arrowleft,13.338,960,500.5,165,6,1,24,15,25,35,FALSE
null,null,psychophysics,337,466153,0.0-3.0-1.164,,key,null,13.338,960,500.5,,,,,,,,
501.7,arrowright,psychophysics,338,466663,0.0-3.0-0.165,,key,arrowright,13.338,960,500.5,166,6,1,26,35,25,35,TRUE
null,null,psychophysics,339,467674,0.0-3.0-1.165,,key,null,13.338,960,500.5,,,,,,,,
602.6,arrowleft,psychophysics,340,468283,0.0-3.0-0.166,,key,arrowleft,13.338,960,500.5,167,6,-1,26,35,25,35,TRUE
null,null,psychophysics,341,469289,0.0-3.0-1.166,,key,null,13.35552703,960,500.5,,,,,,,,
549.8,arrowright,psychophysics,342,469846,0.0-3.0-0.167,,key,arrowright,13.338,960,500.5,168,7,1,30,15,25,35,TRUE
null,null,psychophysics,343,470850,0.0-3.0-1.167,,key,null,13.338,960,500.5,,,,,,,,
5510,f,html-keyboard-response,344,476368,0.0-3.0-2.167-0.167,"<div style=""color: white; text-align: center; vertical-align: top; display: inline-block; width: 800px; margin: auto""><p>You have completed 60% of the trials. You are on block 7 of 10. <br>Good job! Take a break if you need to.</p><p>Press any key to continue the experiment.</p></div>",,,,,,,,,,,,,
1027.6,arrowleft,psychophysics,345,478412,0.0-3.0-0.168,,key,arrowleft,13.338,960,500.5,169,7,-1,27,35,25,35,TRUE
null,null,psychophysics,346,479415,0.0-3.0-1.168,,key,null,13.338,960,500.5,,,,,,,,
461.4,arrowright,psychophysics,347,479880,0.0-3.0-0.169,,key,arrowright,13.338,960,500.5,170,7,-1,20,15,25,35,FALSE
null,null,psychophysics,348,480882,0.0-3.0-1.169,,key,null,13.338,960,500.5,,,,,,,,
542.1,arrowleft,psychophysics,349,481429,0.0-3.0-0.170,,key,arrowleft,13.338,960,500.5,171,7,-1,30,15,25,35,TRUE
null,null,psychophysics,350,482432,0.0-3.0-1.170,,key,null,13.338,960,500.5,,,,,,,,
578.7,arrowleft,psychophysics,351,483014,0.0-3.0-0.171,,key,arrowleft,13.338,960,500.5,172,7,-1,27,35,25,35,TRUE
null,null,psychophysics,352,484016,0.0-3.0-1.171,,key,null,13.338,960,500.5,,,,,,,,
719,arrowleft,psychophysics,353,484740,0.0-3.0-0.172,,key,arrowleft,13.338,960,500.5,173,7,1,23,35,25,35,FALSE
null,null,psychophysics,354,485749,0.0-3.0-1.172,,key,null,13.338,960,500.5,,,,,,,,
460,arrowright,psychophysics,355,486220,0.0-3.0-0.173,,key,arrowright,13.338,960,500.5,174,7,-1,23,15,25,35,FALSE
null,null,psychophysics,356,487225,0.0-3.0-1.173,,key,null,13.338,960,500.5,,,,,,,,
539.4,arrowleft,psychophysics,357,487769,0.0-3.0-0.174,,key,arrowleft,13.338,960,500.5,175,7,1,20,35,25,35,FALSE
null,null,psychophysics,358,488779,0.0-3.0-1.174,,key,null,13.3562027,960,500.5,,,,,,,,
785.6,arrowright,psychophysics,359,489571,0.0-3.0-0.175,,key,arrowright,13.338,960,500.5,176,7,-1,23,35,25,35,FALSE
null,null,psychophysics,360,490579,0.0-3.0-1.175,,key,null,13.338,960,500.5,,,,,,,,
697.6,arrowright,psychophysics,361,491282,0.0-3.0-0.176,,key,arrowright,13.338,960,500.5,177,7,-1,23,35,25,35,FALSE
null,null,psychophysics,362,492287,0.0-3.0-1.176,,key,null,13.338,960,500.5,,,,,,,,
574.8,arrowright,psychophysics,363,492870,0.0-3.0-0.177,,key,arrowright,13.338,960,500.5,178,7,1,25,35,25,35,TRUE
null,null,psychophysics,364,493873,0.0-3.0-1.177,,key,null,13.338,960,500.5,,,,,,,,
747.2,arrowright,psychophysics,365,494634,0.0-3.0-0.178,,key,arrowright,13.338,960,500.5,179,7,-1,26,35,25,35,FALSE
null,null,psychophysics,366,495636,0.0-3.0-1.178,,key,null,13.338,960,500.5,,,,,,,,
806.3,arrowright,psychophysics,367,496447,0.0-3.0-0.179,,key,arrowright,13.338,960,500.5,180,7,1,27,15,25,35,TRUE
null,null,psychophysics,368,497449,0.0-3.0-1.179,,key,null,13.338,960,500.5,,,,,,,,
618.1,arrowright,psychophysics,369,498071,0.0-3.0-0.180,,key,arrowright,13.338,960,500.5,181,7,1,27,15,25,35,TRUE
null,null,psychophysics,370,499076,0.0-3.0-1.180,,key,null,13.338,960,500.5,,,,,,,,
601.3,arrowleft,psychophysics,371,499684,0.0-3.0-0.181,,key,arrowleft,13.338,960,500.5,182,7,-1,24,15,25,35,TRUE
null,null,psychophysics,372,500690,0.0-3.0-1.181,,key,null,13.338,960,500.5,,,,,,,,
599,arrowright,psychophysics,373,501300,0.0-3.0-0.182,,key,arrowright,13.338,960,500.5,183,7,1,25,15,25,35,TRUE
null,null,psychophysics,374,502304,0.0-3.0-1.182,,key,null,13.338,960,500.5,,,,,,,,
492.4,arrowright,psychophysics,375,502806,0.0-3.0-0.183,,key,arrowright,13.338,960,500.5,184,7,1,30,15,25,35,TRUE
null,null,psychophysics,376,503822,0.0-3.0-1.183,,key,null,13.338,960,500.5,,,,,,,,
467.7,arrowleft,psychophysics,377,504293,0.0-3.0-0.184,,key,arrowleft,13.338,960,500.5,185,7,1,20,15,25,35,FALSE
null,null,psychophysics,378,505302,0.0-3.0-1.184,,key,null,13.338,960,500.5,,,,,,,,
411.1,arrowright,psychophysics,379,505716,0.0-3.0-0.185,,key,arrowright,13.338,960,500.5,186,7,-1,23,15,25,35,FALSE
null,null,psychophysics,380,506719,0.0-3.0-1.185,,key,null,13.338,960,500.5,,,,,,,,
375.5,arrowleft,psychophysics,381,507098,0.0-3.0-0.186,,key,arrowleft,13.338,960,500.5,187,7,1,26,15,25,35,FALSE
null,null,psychophysics,382,508106,0.0-3.0-1.186,,key,null,13.338,960,500.5,,,,,,,,
454.2,arrowright,psychophysics,383,508566,0.0-3.0-0.187,,key,arrowright,13.338,960,500.5,188,7,-1,27,35,25,35,FALSE
null,null,psychophysics,384,509569,0.0-3.0-1.187,,key,null,13.35622973,960,500.5,,,,,,,,
1023.4,arrowleft,psychophysics,385,510596,0.0-3.0-0.188,,key,arrowleft,13.338,960,500.5,189,7,1,24,35,25,35,FALSE
null,null,psychophysics,386,511602,0.0-3.0-1.188,,key,null,13.338,960,500.5,,,,,,,,
1052.3,arrowleft,psychophysics,387,512666,0.0-3.0-0.189,,key,arrowleft,13.338,960,500.5,190,7,-1,25,15,25,35,TRUE
null,null,psychophysics,388,513672,0.0-3.0-1.189,,key,null,13.51824324,960,500.5,,,,,,,,
572.9,arrowright,psychophysics,389,514251,0.0-3.0-0.190,,key,arrowright,13.338,960,500.5,191,7,-1,20,15,25,35,FALSE
null,null,psychophysics,390,515258,0.0-3.0-1.190,,key,null,13.338,960,500.5,,,,,,,,
932.9,arrowright,psychophysics,391,516197,0.0-3.0-0.191,,key,arrowright,13.338,960,500.5,192,7,1,26,35,25,35,TRUE
null,null,psychophysics,392,517204,0.0-3.0-1.191,,key,null,13.338,960,500.5,,,,,,,,
1255.2,arrowleft,psychophysics,393,518466,0.0-3.0-0.192,,key,arrowleft,13.338,960,500.5,193,7,-1,27,15,25,35,TRUE
null,null,psychophysics,394,519473,0.0-3.0-1.192,,key,null,13.338,960,500.5,,,,,,,,
1014,arrowleft,psychophysics,395,520492,0.0-3.0-0.193,,key,arrowleft,13.338,960,500.5,194,7,-1,27,15,25,35,TRUE
null,null,psychophysics,396,521499,0.0-3.0-1.193,,key,null,13.338,960,500.5,,,,,,,,
515.7,arrowright,psychophysics,397,522022,0.0-3.0-0.194,,key,arrowright,13.338,960,500.5,195,7,-1,20,35,25,35,FALSE
null,null,psychophysics,398,523027,0.0-3.0-1.194,,key,null,13.338,960,500.5,,,,,,,,
691.8,arrowleft,psychophysics,399,523724,0.0-3.0-0.195,,key,arrowleft,13.338,960,500.5,196,8,1,23,15,25,35,FALSE
null,null,psychophysics,400,524728,0.0-3.0-1.195,,key,null,13.338,960,500.5,,,,,,,,
35820.5,u,html-keyboard-response,401,560553,0.0-3.0-2.195-0.195,"<div style=""color: white; text-align: center; vertical-align: top; display: inline-block; width: 800px; margin: auto""><p>You have completed 70% of the trials. You are on block 8 of 10. <br>Good job! Take a break if you need to.</p><p>Press any key to continue the experiment.</p></div>",,,,,,,,,,,,,
1892.3,arrowright,psychophysics,402,563454,0.0-3.0-0.196,,key,arrowright,13.338,960,500.5,197,8,-1,25,35,25,35,FALSE
null,null,psychophysics,403,564459,0.0-3.0-1.196,,key,null,13.338,960,500.5,,,,,,,,
624.1,arrowleft,psychophysics,404,565096,0.0-3.0-0.197,,key,arrowleft,13.338,960,500.5,198,8,-1,27,35,25,35,TRUE
null,null,psychophysics,405,566099,0.0-3.0-1.197,,key,null,13.338,960,500.5,,,,,,,,
484.2,arrowright,psychophysics,406,566592,0.0-3.0-0.198,,key,arrowright,13.338,960,500.5,199,8,-1,23,35,25,35,FALSE
null,null,psychophysics,407,567594,0.0-3.0-1.198,,key,null,13.338,960,500.5,,,,,,,,
448.2,arrowleft,psychophysics,408,568048,0.0-3.0-0.199,,key,arrowleft,13.338,960,500.5,200,8,1,26,15,25,35,FALSE
null,null,psychophysics,409,569057,0.0-3.0-1.199,,key,null,13.338,960,500.5,,,,,,,,
706.5,arrowleft,psychophysics,410,569765,0.0-3.0-0.200,,key,arrowleft,13.338,960,500.5,201,8,-1,25,15,25,35,TRUE
null,null,psychophysics,411,570775,0.0-3.0-1.200,,key,null,13.25822667,960,500.5,,,,,,,,
756.7,arrowleft,psychophysics,412,571540,0.0-3.0-0.201,,key,arrowleft,13.338,960,500.5,202,8,-1,27,15,25,35,TRUE
null,null,psychophysics,413,572547,0.0-3.0-1.201,,key,null,13.338,960,500.5,,,,,,,,
602.6,arrowright,psychophysics,414,573154,0.0-3.0-0.202,,key,arrowright,13.338,960,500.5,203,8,1,26,35,25,35,TRUE
null,null,psychophysics,415,574156,0.0-3.0-1.202,,key,null,13.338,960,500.5,,,,,,,,
784,arrowleft,psychophysics,416,574943,0.0-3.0-0.203,,key,arrowleft,13.338,960,500.5,204,8,-1,24,15,25,35,TRUE
null,null,psychophysics,417,575951,0.0-3.0-1.203,,key,null,13.338,960,500.5,,,,,,,,
967.7,arrowleft,psychophysics,418,576927,0.0-3.0-0.204,,key,arrowleft,13.338,960,500.5,205,8,1,25,15,25,35,FALSE
null,null,psychophysics,419,577942,0.0-3.0-1.204,,key,null,13.338,960,500.5,,,,,,,,
831.8,arrowleft,psychophysics,420,578777,0.0-3.0-0.205,,key,arrowleft,13.338,960,500.5,206,8,-1,23,15,25,35,TRUE
null,null,psychophysics,421,579780,0.0-3.0-1.205,,key,null,13.338,960,500.5,,,,,,,,
562.9,arrowright,psychophysics,422,580348,0.0-3.0-0.206,,key,arrowright,13.338,960,500.5,207,8,1,30,15,25,35,TRUE
null,null,psychophysics,423,581360,0.0-3.0-1.206,,key,null,13.25714667,960,500.5,,,,,,,,
1013.6,arrowleft,psychophysics,424,582379,0.0-3.0-0.207,,key,arrowleft,13.338,960,500.5,208,8,1,25,15,25,35,FALSE
null,null,psychophysics,425,583389,0.0-3.0-1.207,,key,null,13.338,960,500.5,,,,,,,,
672.6,arrowright,psychophysics,426,584065,0.0-3.0-0.208,,key,arrowright,13.338,960,500.5,209,8,-1,23,35,25,35,FALSE
null,null,psychophysics,427,585071,0.0-3.0-1.208,,key,null,13.338,960,500.5,,,,,,,,
714.7,arrowleft,psychophysics,428,585791,0.0-3.0-0.209,,key,arrowleft,13.338,960,500.5,210,8,1,24,35,25,35,FALSE
null,null,psychophysics,429,586796,0.0-3.0-1.209,,key,null,13.338,960,500.5,,,,,,,,
730,arrowleft,psychophysics,430,587530,0.0-3.0-0.210,,key,arrowleft,13.338,960,500.5,211,8,1,24,15,25,35,FALSE
null,null,psychophysics,431,588532,0.0-3.0-1.210,,key,null,13.338,960,500.5,,,,,,,,
626.4,arrowleft,psychophysics,432,589161,0.0-3.0-0.211,,key,arrowleft,13.338,960,500.5,212,8,-1,30,15,25,35,TRUE
null,null,psychophysics,433,590164,0.0-3.0-1.211,,key,null,13.338,960,500.5,,,,,,,,
874.7,arrowright,psychophysics,434,591044,0.0-3.0-0.212,,key,arrowright,13.24624615,960,500.5,213,8,1,26,35,25,35,TRUE
null,null,psychophysics,435,592054,0.0-3.0-1.212,,key,null,13.338,960,500.5,,,,,,,,
648.7,arrowleft,psychophysics,436,592708,0.0-3.0-0.213,,key,arrowleft,13.338,960,500.5,214,8,-1,23,15,25,35,TRUE
null,null,psychophysics,437,593718,0.0-3.0-1.213,,key,null,13.338,960,500.5,,,,,,,,
500.5,arrowleft,psychophysics,438,594228,0.0-3.0-0.214,,key,arrowleft,13.338,960,500.5,215,8,1,23,15,25,35,FALSE
null,null,psychophysics,439,595239,0.0-3.0-1.214,,key,null,13.338,960,500.5,,,,,,,,
686.2,arrowleft,psychophysics,440,595932,0.0-3.0-0.215,,key,arrowleft,13.338,960,500.5,216,8,-1,25,15,25,35,TRUE
null,null,psychophysics,441,596935,0.0-3.0-1.215,,key,null,13.338,960,500.5,,,,,,,,
522.1,arrowright,psychophysics,442,597462,0.0-3.0-0.216,,key,arrowright,13.338,960,500.5,217,8,-1,20,35,25,35,FALSE
null,null,psychophysics,443,598469,0.0-3.0-1.216,,key,null,13.338,960,500.5,,,,,,,,
1368.8,arrowright,psychophysics,444,599844,0.0-3.0-0.217,,key,arrowright,13.338,960,500.5,218,8,-1,26,35,25,35,FALSE
null,null,psychophysics,445,600855,0.0-3.0-1.217,,key,null,13.338,960,500.5,,,,,,,,
772.7,arrowright,psychophysics,446,601639,0.0-3.0-0.218,,key,arrowright,13.338,960,500.5,219,8,-1,20,15,25,35,FALSE
null,null,psychophysics,447,602644,0.0-3.0-1.218,,key,null,13.338,960,500.5,,,,,,,,
699.6,arrowright,psychophysics,448,603348,0.0-3.0-0.219,,key,arrowright,13.338,960,500.5,220,8,1,27,35,25,35,TRUE
null,null,psychophysics,449,604350,0.0-3.0-1.219,,key,null,13.338,960,500.5,,,,,,,,
659.4,arrowright,psychophysics,450,605013,0.0-3.0-0.220,,key,arrowright,13.338,960,500.5,221,8,-1,20,35,25,35,FALSE
null,null,psychophysics,451,606017,0.0-3.0-1.220,,key,null,13.338,960,500.5,,,,,,,,
563.1,arrowleft,psychophysics,452,606584,0.0-3.0-0.221,,key,arrowleft,13.338,960,500.5,222,8,1,20,15,25,35,FALSE
null,null,psychophysics,453,607590,0.0-3.0-1.221,,key,null,13.338,960,500.5,,,,,,,,
826.5,arrowleft,psychophysics,454,608423,0.0-3.0-0.222,,key,arrowleft,13.338,960,500.5,223,8,1,23,35,25,35,FALSE
null,null,psychophysics,455,609432,0.0-3.0-1.222,,key,null,13.338,960,500.5,,,,,,,,
691.1,arrowleft,psychophysics,456,610127,0.0-3.0-0.223,,key,arrowleft,13.338,960,500.5,224,9,1,23,15,25,35,FALSE
null,null,psychophysics,457,611134,0.0-3.0-1.223,,key,null,13.35556757,960,500.5,,,,,,,,
1484.2,g,html-keyboard-response,458,612620,0.0-3.0-2.223-0.223,"<div style=""color: white; text-align: center; vertical-align: top; display: inline-block; width: 800px; margin: auto""><p>You have completed 80% of the trials. You are on block 9 of 10. <br>Good job! Take a break if you need to.</p><p>Press any key to continue the experiment.</p></div>",,,,,,,,,,,,,
1076,arrowright,psychophysics,459,614711,0.0-3.0-0.224,,key,arrowright,13.338,960,500.5,225,9,-1,25,35,25,35,FALSE
null,null,psychophysics,460,615717,0.0-3.0-1.224,,key,null,13.338,960,500.5,,,,,,,,
561.2,arrowleft,psychophysics,461,616283,0.0-3.0-0.225,,key,arrowleft,13.338,960,500.5,226,9,1,23,35,25,35,FALSE
null,null,psychophysics,462,617292,0.0-3.0-1.225,,key,null,13.338,960,500.5,,,,,,,,
617,arrowright,psychophysics,463,617914,0.0-3.0-0.226,,key,arrowright,13.338,960,500.5,227,9,1,27,15,25,35,TRUE
null,null,psychophysics,464,618917,0.0-3.0-1.226,,key,null,13.338,960,500.5,,,,,,,,
525.8,arrowleft,psychophysics,465,619452,0.0-3.0-0.227,,key,arrowleft,13.338,960,500.5,228,9,1,20,15,25,35,FALSE
null,null,psychophysics,466,620463,0.0-3.0-1.227,,key,null,13.338,960,500.5,,,,,,,,
472.2,arrowright,psychophysics,467,620948,0.0-3.0-0.228,,key,arrowright,13.338,960,500.5,229,9,-1,27,15,25,35,FALSE
null,null,psychophysics,468,621957,0.0-3.0-1.228,,key,null,13.338,960,500.5,,,,,,,,
520.2,arrowleft,psychophysics,469,622485,0.0-3.0-0.229,,key,arrowleft,13.338,960,500.5,230,9,1,20,35,25,35,FALSE
null,null,psychophysics,470,623491,0.0-3.0-1.229,,key,null,13.338,960,500.5,,,,,,,,
849.2,arrowright,psychophysics,471,624347,0.0-3.0-0.230,,key,arrowright,13.338,960,500.5,231,9,-1,25,15,25,35,FALSE
null,null,psychophysics,472,625359,0.0-3.0-1.230,,key,null,13.338,960,500.5,,,,,,,,
1156.1,arrowleft,psychophysics,473,626522,0.0-3.0-0.231,,key,arrowleft,13.338,960,500.5,232,9,1,23,35,25,35,FALSE
null,null,psychophysics,474,627526,0.0-3.0-1.231,,key,null,13.338,960,500.5,,,,,,,,
734,arrowleft,psychophysics,475,628263,0.0-3.0-0.232,,key,arrowleft,13.338,960,500.5,233,9,-1,27,35,25,35,TRUE
null,null,psychophysics,476,629267,0.0-3.0-1.232,,key,null,13.338,960,500.5,,,,,,,,
627.2,arrowright,psychophysics,477,629900,0.0-3.0-0.233,,key,arrowright,13.338,960,500.5,234,9,1,27,15,25,35,TRUE
null,null,psychophysics,478,630909,0.0-3.0-1.233,,key,null,13.35691892,960,500.5,,,,,,,,
595.8,arrowright,psychophysics,479,631512,0.0-3.0-0.234,,key,arrowright,13.338,960,500.5,235,9,1,27,15,25,35,TRUE
null,null,psychophysics,480,632518,0.0-3.0-1.234,,key,null,13.338,960,500.5,,,,,,,,
568.1,arrowleft,psychophysics,481,633089,0.0-3.0-0.235,,key,arrowleft,13.338,960,500.5,236,9,-1,25,15,25,35,TRUE
null,null,psychophysics,482,634096,0.0-3.0-1.235,,key,null,13.338,960,500.5,,,,,,,,
1007.8,arrowright,psychophysics,483,635110,0.0-3.0-0.236,,key,arrowright,13.338,960,500.5,237,9,1,23,35,25,35,TRUE
null,null,psychophysics,484,636112,0.0-3.0-1.236,,key,null,13.338,960,500.5,,,,,,,,
774.1,arrowright,psychophysics,485,636889,0.0-3.0-0.237,,key,arrowright,13.338,960,500.5,238,9,1,30,35,25,35,TRUE
null,null,psychophysics,486,637893,0.0-3.0-1.237,,key,null,13.338,960,500.5,,,,,,,,
1569.7,arrowright,psychophysics,487,639466,0.0-3.0-0.238,,key,arrowright,13.338,960,500.5,239,9,1,25,35,25,35,TRUE
null,null,psychophysics,488,640471,0.0-3.0-1.238,,key,null,13.338,960,500.5,,,,,,,,
657.4,arrowleft,psychophysics,489,641132,0.0-3.0-0.239,,key,arrowleft,13.338,960,500.5,240,9,-1,30,35,25,35,TRUE
null,null,psychophysics,490,642139,0.0-3.0-1.239,,key,null,13.338,960,500.5,,,,,,,,
1097.2,arrowright,psychophysics,491,643246,0.0-3.0-0.240,,key,arrowright,13.338,960,500.5,241,9,1,25,15,25,35,TRUE
null,null,psychophysics,492,644248,0.0-3.0-1.240,,key,null,13.338,960,500.5,,,,,,,,
721.3,arrowright,psychophysics,493,644973,0.0-3.0-0.241,,key,arrowright,13.338,960,500.5,242,9,-1,24,35,25,35,FALSE
null,null,psychophysics,494,645982,0.0-3.0-1.241,,key,null,13.338,960,500.5,,,,,,,,
598.3,arrowright,psychophysics,495,646586,0.0-3.0-0.242,,key,arrowright,13.338,960,500.5,243,9,1,30,35,25,35,TRUE
null,null,psychophysics,496,647591,0.0-3.0-1.242,,key,null,13.338,960,500.5,,,,,,,,
636.7,arrowright,psychophysics,497,648232,0.0-3.0-0.243,,key,arrowright,13.338,960,500.5,244,9,1,30,35,25,35,TRUE
null,null,psychophysics,498,649236,0.0-3.0-1.243,,key,null,13.338,960,500.5,,,,,,,,
811.9,arrowright,psychophysics,499,650056,0.0-3.0-0.244,,key,arrowright,13.338,960,500.5,245,9,1,26,15,25,35,TRUE
null,null,psychophysics,500,651064,0.0-3.0-1.244,,key,null,13.35545946,960,500.5,,,,,,,,
676.2,arrowleft,psychophysics,501,651751,0.0-3.0-0.245,,key,arrowleft,13.338,960,500.5,246,9,-1,20,15,25,35,TRUE
null,null,psychophysics,502,652758,0.0-3.0-1.245,,key,null,13.338,960,500.5,,,,,,,,
680.7,arrowright,psychophysics,503,653448,0.0-3.0-0.246,,key,arrowright,13.338,960,500.5,247,9,-1,24,35,25,35,FALSE
null,null,psychophysics,504,654453,0.0-3.0-1.246,,key,null,13.338,960,500.5,,,,,,,,
540.9,arrowright,psychophysics,505,655002,0.0-3.0-0.247,,key,arrowright,13.338,960,500.5,248,9,-1,25,15,25,35,FALSE
null,null,psychophysics,506,656010,0.0-3.0-1.247,,key,null,13.338,960,500.5,,,,,,,,
1067.8,arrowleft,psychophysics,507,657082,0.0-3.0-0.248,,key,arrowleft,13.338,960,500.5,249,9,-1,25,35,25,35,TRUE
null,null,psychophysics,508,658089,0.0-3.0-1.248,,key,null,13.338,960,500.5,,,,,,,,
624.9,arrowright,psychophysics,509,658717,0.0-3.0-0.249,,key,arrowright,13.338,960,500.5,250,9,-1,20,35,25,35,FALSE
null,null,psychophysics,510,659721,0.0-3.0-1.249,,key,null,13.338,960,500.5,,,,,,,,
814.7,arrowleft,psychophysics,511,660542,0.0-3.0-0.250,,key,arrowleft,13.338,960,500.5,251,9,1,24,15,25,35,FALSE
null,null,psychophysics,512,661549,0.0-3.0-1.250,,key,null,13.338,960,500.5,,,,,,,,
796.8,arrowright,psychophysics,513,662353,0.0-3.0-0.251,,key,arrowright,13.338,960,500.5,252,10,-1,20,15,25,35,FALSE
null,null,psychophysics,514,663362,0.0-3.0-1.251,,key,null,13.338,960,500.5,,,,,,,,
1706.9,b,html-keyboard-response,515,665070,0.0-3.0-2.251-0.251,"<div style=""color: white; text-align: center; vertical-align: top; display: inline-block; width: 800px; margin: auto""><p>You have completed 90% of the trials. You are on block 10 of 10. <br>Good job! Take a break if you need to.</p><p>Press any key to continue the experiment.</p></div>",,,,,,,,,,,,,
725.5,arrowright,psychophysics,516,666814,0.0-3.0-0.252,,key,arrowright,13.338,960,500.5,253,10,-1,24,35,25,35,FALSE
null,null,psychophysics,517,667819,0.0-3.0-1.252,,key,null,13.338,960,500.5,,,,,,,,
648.6,arrowleft,psychophysics,518,668472,0.0-3.0-0.253,,key,arrowleft,13.338,960,500.5,254,10,1,24,35,25,35,FALSE
null,null,psychophysics,519,669477,0.0-3.0-1.253,,key,null,13.338,960,500.5,,,,,,,,
842.4,arrowleft,psychophysics,520,670322,0.0-3.0-0.254,,key,arrowleft,13.338,960,500.5,255,10,-1,26,15,25,35,TRUE
null,null,psychophysics,521,671327,0.0-3.0-1.254,,key,null,13.35610811,960,500.5,,,,,,,,
542.3,arrowleft,psychophysics,522,671876,0.0-3.0-0.255,,key,arrowleft,13.338,960,500.5,256,10,1,20,15,25,35,FALSE
null,null,psychophysics,523,672879,0.0-3.0-1.255,,key,null,13.338,960,500.5,,,,,,,,
535.1,arrowright,psychophysics,524,673418,0.0-3.0-0.256,,key,arrowright,13.338,960,500.5,257,10,-1,20,35,25,35,FALSE
null,null,psychophysics,525,674422,0.0-3.0-1.256,,key,null,13.338,960,500.5,,,,,,,,
855.1,arrowright,psychophysics,526,675281,0.0-3.0-0.257,,key,arrowright,13.338,960,500.5,258,10,-1,26,35,25,35,FALSE
null,null,psychophysics,527,676288,0.0-3.0-1.257,,key,null,13.338,960,500.5,,,,,,,,
654.2,arrowright,psychophysics,528,676950,0.0-3.0-0.258,,key,arrowright,13.338,960,500.5,259,10,1,30,15,25,35,TRUE
null,null,psychophysics,529,677956,0.0-3.0-1.258,,key,null,13.338,960,500.5,,,,,,,,
658,arrowleft,psychophysics,530,678618,0.0-3.0-0.259,,key,arrowleft,13.338,960,500.5,260,10,-1,23,15,25,35,TRUE
null,null,psychophysics,531,679623,0.0-3.0-1.259,,key,null,13.338,960,500.5,,,,,,,,
603,arrowleft,psychophysics,532,680233,0.0-3.0-0.260,,key,arrowleft,13.338,960,500.5,261,10,-1,26,15,25,35,TRUE
null,null,psychophysics,533,681240,0.0-3.0-1.260,,key,null,13.338,960,500.5,,,,,,,,
740.1,arrowleft,psychophysics,534,681991,0.0-3.0-0.261,,key,arrowleft,13.338,960,500.5,262,10,-1,26,35,25,35,TRUE
null,null,psychophysics,535,683000,0.0-3.0-1.261,,key,null,13.338,960,500.5,,,,,,,,
530.1,arrowright,psychophysics,536,683533,0.0-3.0-0.262,,key,arrowright,13.338,960,500.5,263,10,1,27,15,25,35,TRUE
null,null,psychophysics,537,684543,0.0-3.0-1.262,,key,null,13.338,960,500.5,,,,,,,,
535.9,arrowright,psychophysics,538,685085,0.0-3.0-0.263,,key,arrowright,13.338,960,500.5,264,10,1,26,35,25,35,TRUE
null,null,psychophysics,539,686087,0.0-3.0-1.263,,key,null,13.338,960,500.5,,,,,,,,
513.8,arrowright,psychophysics,540,686604,0.0-3.0-0.264,,key,arrowright,13.338,960,500.5,265,10,1,25,15,25,35,TRUE
null,null,psychophysics,541,687609,0.0-3.0-1.264,,key,null,13.338,960,500.5,,,,,,,,
552.4,arrowright,psychophysics,542,688167,0.0-3.0-0.265,,key,arrowright,13.338,960,500.5,266,10,1,27,35,25,35,TRUE
null,null,psychophysics,543,689175,0.0-3.0-1.265,,key,null,13.338,960,500.5,,,,,,,,
528.5,arrowright,psychophysics,544,689707,0.0-3.0-0.266,,key,arrowright,13.338,960,500.5,267,10,1,26,15,25,35,TRUE
null,null,psychophysics,545,690710,0.0-3.0-1.266,,key,null,13.35662667,960,500.5,,,,,,,,
626.8,arrowright,psychophysics,546,691343,0.0-3.0-0.267,,key,arrowright,13.338,960,500.5,268,10,1,30,35,25,35,TRUE
null,null,psychophysics,547,692350,0.0-3.0-1.267,,key,null,13.338,960,500.5,,,,,,,,
884.8,arrowleft,psychophysics,548,693238,0.0-3.0-0.268,,key,arrowleft,13.338,960,500.5,269,10,1,24,35,25,35,FALSE
null,null,psychophysics,549,694245,0.0-3.0-1.268,,key,null,13.338,960,500.5,,,,,,,,
785.5,arrowleft,psychophysics,550,695037,0.0-3.0-0.269,,key,arrowleft,13.338,960,500.5,270,10,1,23,35,25,35,FALSE
null,null,psychophysics,551,696039,0.0-3.0-1.269,,key,null,13.338,960,500.5,,,,,,,,
1026.3,arrowright,psychophysics,552,697069,0.0-3.0-0.270,,key,arrowright,13.338,960,500.5,271,10,1,26,35,25,35,TRUE
null,null,psychophysics,553,698074,0.0-3.0-1.270,,key,null,13.338,960,500.5,,,,,,,,
638.7,arrowright,psychophysics,554,698717,0.0-3.0-0.271,,key,arrowright,13.338,960,500.5,272,10,1,27,35,25,35,TRUE
null,null,psychophysics,555,699727,0.0-3.0-1.271,,key,null,13.338,960,500.5,,,,,,,,
630.7,arrowright,psychophysics,556,700362,0.0-3.0-0.272,,key,arrowright,13.338,960,500.5,273,10,-1,23,35,25,35,FALSE
null,null,psychophysics,557,701367,0.0-3.0-1.272,,key,null,13.338,960,500.5,,,,,,,,
835.6,arrowleft,psychophysics,558,702211,0.0-3.0-0.273,,key,arrowleft,13.338,960,500.5,274,10,-1,30,35,25,35,TRUE
null,null,psychophysics,559,703216,0.0-3.0-1.273,,key,null,13.338,960,500.5,,,,,,,,
593.2,arrowright,psychophysics,560,703813,0.0-3.0-0.274,,key,arrowright,13.338,960,500.5,275,10,-1,24,35,25,35,FALSE
null,null,psychophysics,561,704816,0.0-3.0-1.274,,key,null,13.338,960,500.5,,,,,,,,
561.1,arrowright,psychophysics,562,705381,0.0-3.0-0.275,,key,arrowright,13.338,960,500.5,276,10,-1,23,35,25,35,FALSE
null,null,psychophysics,563,706394,0.0-3.0-1.275,,key,null,13.338,960,500.5,,,,,,,,
909.2,arrowright,psychophysics,564,707313,0.0-3.0-0.276,,key,arrowright,13.338,960,500.5,277,10,-1,25,15,25,35,FALSE
null,null,psychophysics,565,708318,0.0-3.0-1.276,,key,null,13.338,960,500.5,,,,,,,,
570.2,arrowright,psychophysics,566,708892,0.0-3.0-0.277,,key,arrowright,13.338,960,500.5,278,10,-1,24,15,25,35,FALSE
null,null,psychophysics,567,709897,0.0-3.0-1.277,,key,null,13.338,960,500.5,,,,,,,,
755.2,arrowleft,psychophysics,568,710656,0.0-3.0-0.278,,key,arrowleft,13.338,960,500.5,279,10,1,26,35,25,35,FALSE
null,null,psychophysics,569,711664,0.0-3.0-1.278,,key,null,13.35622973,960,500.5,,,,,,,,
750.9,arrowleft,psychophysics,570,712423,0.0-3.0-0.279,,key,arrowleft,13.338,960,500.5,280,11,1,24,15,25,35,FALSE
null,null,psychophysics,571,713426,0.0-3.0-1.279,,key,null,13.338,960,500.5,,,,,,,,