rt,response,trial_type,trial_index,time_elapsed,internal_node_id,stimulus,response_type,key_press,avg_frame_time,center_x,center_y,trial,block,test_pos,test_inner_radius,test_outer_radius,ref_inner_radius,ref_outer_radius,test_bigger
7671.3,"{""p_id"":""4733"",""age"":""19"",""handedness"":""right"",""sex"":""female"",""other_sex"":""""}",survey-html-form,0,7674,0.0-0.0,,,,,,,,,,,,,,
3131, ,html-keyboard-response,1,10806,0.0-1.0,"<p style=""color: white"">Welcome to the Size Judgment Experiment. <br>There will be 10 blocks in this experiment. <br>There will be 28 trials in each block. <br>You will be given a chance to take a break between blocks. <br>Press any key to start the experiment.</p>",,,,,,,,,,,,,
3240,arrowright,psychophysics,2,14066,0.0-2.0,,key,arrowright,16.65291282,640,288.5,,,,,,,,
1163.2,arrowright,psychophysics,3,15234,0.0-3.0-0.0,,key,arrowright,16.6532,640,288.5,1,1,-1,24,35,25,35,FALSE
null,null,psychophysics,4,16248,0.0-3.0-1.0,,key,null,16.65018644,640,288.5,,,,,,,,
658.7,arrowright,psychophysics,5,16911,0.0-3.0-0.1,,key,arrowright,16.65184615,640,288.5,2,1,1,20,35,25,35,TRUE
null,null,psychophysics,6,17915,0.0-3.0-1.1,,key,null,16.65258333,640,288.5,,,,,,,,
573.3,arrowright,psychophysics,7,18491,0.0-3.0-0.2,,key,arrowright,16.65366667,640,288.5,3,1,-1,20,15,25,35,FALSE
null,null,psychophysics,8,19498,0.0-3.0-1.2,,key,null,16.65421667,640,288.5,,,,,,,,
519.1,arrowleft,psychophysics,9,20021,0.0-3.0-0.3,,key,arrowleft,16.6539,640,288.5,4,1,-1,26,35,25,35,TRUE
null,null,psychophysics,10,21029,0.0-3.0-1.3,,key,null,16.65531667,640,288.5,,,,,,,,
551.4,arrowleft,psychophysics,11,21584,0.0-3.0-0.4,,key,arrowleft,16.6565,640,288.5,5,1,-1,26,35,25,35,TRUE
null,null,psychophysics,12,22592,0.0-3.0-1.4,,key,null,16.64727119,640,288.5,,,,,,,,
484.9,arrowleft,psychophysics,13,23079,0.0-3.0-0.5,,key,arrowleft,16.66051724,640,288.5,6,1,-1,25,35,25,35,TRUE
null,null,psychophysics,14,24093,0.0-3.0-1.5,,key,null,16.65376271,640,288.5,,,,,,,,
521.6,arrowleft,psychophysics,15,24618,0.0-3.0-0.6,,key,arrowleft,16.65587097,640,288.5,7,1,1,24,35,25,35,FALSE
null,null,psychophysics,16,25624,0.0-3.0-1.6,,key,null,16.65291525,640,288.5,,,,,,,,
1029.2,arrowright,psychophysics,17,26657,0.0-3.0-0.7,,key,arrowright,16.65152459,640,288.5,8,1,1,26,15,25,35,TRUE
null,null,psychophysics,18,27660,0.0-3.0-1.7,,key,null,16.65453333,640,288.5,,,,,,,,
767.3,arrowright,psychophysics,19,28430,0.0-3.0-0.8,,key,arrowright,16.65253333,640,288.5,9,1,1,30,15,25,35,TRUE
null,null,psychophysics,20,29438,0.0-3.0-1.8,,key,null,16.65272881,640,288.5,,,,,,,,
680.1,arrowleft,psychophysics,21,30122,0.0-3.0-0.9,,key,arrowleft,16.6527,640,288.5,10,1,-1,30,15,25,35,TRUE
null,null,psychophysics,22,31124,0.0-3.0-1.9,,key,null,16.65321667,640,288.5,,,,,,,,
993.5,arrowright,psychophysics,23,32120,0.0-3.0-0.10,,key,arrowright,16.65351724,640,288.5,11,1,1,25,35,25,35,TRUE
null,null,psychophysics,24,33135,0.0-3.0-1.10,,key,null,16.93769492,640,288.5,,,,,,,,
1084.3,arrowright,psychophysics,25,34226,0.0-3.0-0.11,,key,arrowright,16.65321538,640,288.5,12,1,1,30,15,25,35,TRUE
null,null,psychophysics,26,35234,0.0-3.0-1.11,,key,null,16.65244068,640,288.5,,,,,,,,
567,arrowright,psychophysics,27,35807,0.0-3.0-0.12,,key,arrowright,16.66008824,640,288.5,13,1,-1,25,35,25,35,FALSE
null,null,psychophysics,28,36816,0.0-3.0-1.12,,key,null,16.65238983,640,288.5,,,,,,,,
524.3,arrowright,psychophysics,29,37346,0.0-3.0-0.13,,key,arrowright,17.20803333,640,288.5,14,1,-1,26,15,25,35,FALSE
null,null,psychophysics,30,38349,0.0-3.0-1.13,,key,null,16.65446667,640,288.5,,,,,,,,
702.3,arrowright,psychophysics,31,39055,0.0-3.0-0.14,,key,arrowright,16.65268293,640,288.5,15,1,1,24,15,25,35,TRUE
null,null,psychophysics,32,40063,0.0-3.0-1.14,,key,null,16.65305085,640,288.5,,,,,,,,
511.7,arrowright,psychophysics,33,40580,0.0-3.0-0.15,,key,arrowright,16.64751613,640,288.5,16,1,-1,24,15,25,35,FALSE
null,null,psychophysics,34,41595,0.0-3.0-1.15,,key,null,16.65252542,640,288.5,,,,,,,,
576.2,arrowright,psychophysics,35,42176,0.0-3.0-0.16,,key,arrowright,16.65226471,640,288.5,17,1,1,30,35,25,35,TRUE
null,null,psychophysics,36,43194,0.0-3.0-1.16,,key,null,16.65491667,640,288.5,,,,,,,,
547.4,arrowright,psychophysics,37,43753,0.0-3.0-0.17,,key,arrowright,16.65275758,640,288.5,18,1,1,24,35,25,35,TRUE
null,null,psychophysics,38,44759,0.0-3.0-1.17,,key,null,16.6499661,640,288.5,,,,,,,,
1669,arrowleft,psychophysics,39,46434,0.0-3.0-0.18,,key,arrowleft,16.65429,640,288.5,19,1,-1,27,35,25,35,TRUE
null,null,psychophysics,40,47440,0.0-3.0-1.18,,key,null,16.65498305,640,288.5,,,,,,,,
1295.7,arrowleft,psychophysics,41,48742,0.0-3.0-0.19,,key,arrowleft,16.6545641,640,288.5,20,1,1,20,15,25,35,FALSE
null,null,psychophysics,42,49749,0.0-3.0-1.19,,key,null,16.6529322,640,288.5,,,,,,,,
1307.5,arrowleft,psychophysics,43,51071,0.0-3.0-0.20,,key,arrowleft,16.65575641,640,288.5,21,1,-1,27,35,25,35,TRUE
null,null,psychophysics,44,52086,0.0-3.0-1.20,,key,null,16.65506667,640,288.5,,,,,,,,
513.5,arrowright,psychophysics,45,52606,0.0-3.0-0.21,,key,arrowright,16.65222581,640,288.5,22,1,-1,23,35,25,35,FALSE
null,null,psychophysics,46,53618,0.0-3.0-1.21,,key,null,16.65422034,640,288.5,,,,,,,,
697.1,arrowleft,psychophysics,47,54321,0.0-3.0-0.22,,key,arrowleft,16.65233333,640,288.5,23,1,-1,25,15,25,35,TRUE
null,null,psychophysics,48,55334,0.0-3.0-1.22,,key,null,16.65459322,640,288.5,,,,,,,,
537.5,arrowleft,psychophysics,49,55878,0.0-3.0-0.23,,key,arrowleft,16.6526875,640,288.5,24,1,-1,27,35,25,35,TRUE
null,null,psychophysics,50,56882,0.0-3.0-1.23,,key,null,16.65327119,640,288.5,,,,,,,,
472.5,arrowleft,psychophysics,51,57362,0.0-3.0-0.24,,key,arrowleft,16.65264286,640,288.5,25,1,1,24,15,25,35,FALSE
null,null,psychophysics,52,58365,0.0-3.0-1.24,,key,null,16.65283051,640,288.5,,,,,,,,
474.2,arrowright,psychophysics,53,58845,0.0-3.0-0.25,,key,arrowright,16.64696429,640,288.5,26,1,-1,27,15,25,35,FALSE
null,null,psychophysics,54,59848,0.0-3.0-1.25,,key,null,16.65585,640,288.5,,,,,,,,
588.8,arrowright,psychophysics,55,60440,0.0-3.0-0.26,,key,arrowright,16.65864706,640,288.5,27,1,-1,26,35,25,35,FALSE
null,null,psychophysics,56,61445,0.0-3.0-1.26,,key,null,16.65027119,640,288.5,,,,,,,,
325,arrowright,psychophysics,57,61774,0.0-3.0-0.27,,key,arrowright,16.64568421,640,288.5,28,2,-1,30,15,25,35,FALSE
null,null,psychophysics,58,62777,0.0-3.0-1.27,,key,null,16.65142373,640,288.5,,,,,,,,
2213.5, ,html-keyboard-response,59,64993,0.0-3.0-2.27-0.27,"<div style=""color: white; text-align: center; vertical-align: top; display: inline-block; width: 800px; margin: auto""><p>You have completed 10% of the trials. You are on block 2 of 10. <br>Good job! Take a break if you need to.</p><p>Press any key to continue the experiment.</p></div>",,,,,,,,,,,,,
1168.3,arrowright,psychophysics,60,67193,0.0-3.0-0.28,,key,arrowright,16.6545493,640,288.5,29,2,1,24,35,25,35,TRUE
null,null,psychophysics,61,68206,0.0-3.0-1.28,,key,null,16.65301695,640,288.5,,,,,,,,
400.7,arrowright,psychophysics,62,68614,0.0-3.0-0.29,,key,arrowright,16.65533333,640,288.5,30,2,-1,24,15,25,35,FALSE
null,null,psychophysics,63,69622,0.0-3.0-1.29,,key,null,16.648,640,288.5,,,,,,,,
74.5,arrowleft,psychophysics,64,69700,0.0-3.0-0.30,,key,arrowleft,16.645,640,288.5,31,2,-1,26,35,25,35,TRUE
null,null,psychophysics,65,70704,0.0-3.0-1.30,,key,null,16.6569322,640,288.5,,,,,,,,
531.4,arrowleft,psychophysics,66,71241,0.0-3.0-0.31,,key,arrowleft,16.65503125,640,288.5,32,2,1,23,35,25,35,FALSE
null,null,psychophysics,67,72254,0.0-3.0-1.31,,key,null,16.65193333,640,288.5,,,,,,,,
423.2,arrowleft,psychophysics,68,72682,0.0-3.0-0.32,,key,arrowleft,16.64916667,640,288.5,33,2,-1,23,35,25,35,TRUE
null,null,psychophysics,69,73686,0.0-3.0-1.32,,key,null,16.65158333,640,288.5,,,,,,,,
400.6,arrowleft,psychophysics,70,74091,0.0-3.0-0.33,,key,arrowleft,16.65269565,640,288.5,34,2,1,23,15,25,35,FALSE
null,null,psychophysics,71,75101,0.0-3.0-1.33,,key,null,16.65148333,640,288.5,,,,,,,,
190.3,arrowleft,psychophysics,72,75301,0.0-3.0-0.34,,key,arrowleft,16.64363636,640,288.5,35,2,1,24,35,25,35,FALSE
null,null,psychophysics,73,76316,0.0-3.0-1.34,,key,null,16.65422034,640,288.5,,,,,,,,
455.4,arrowright,psychophysics,74,76778,0.0-3.0-0.35,,key,arrowright,16.65622222,640,288.5,36,2,1,23,35,25,35,TRUE
null,null,psychophysics,75,77782,0.0-3.0-1.35,,key,null,16.65123729,640,288.5,,,,,,,,
1226.3,arrowleft,psychophysics,76,79021,0.0-3.0-0.36,,key,arrowleft,16.65141892,640,288.5,37,2,-1,26,35,25,35,TRUE
null,null,psychophysics,77,80029,0.0-3.0-1.36,,key,null,16.65511864,640,288.5,,,,,,,,
326.8,arrowright,psychophysics,78,80362,0.0-3.0-0.37,,key,arrowright,16.66068421,640,288.5,38,2,-1,25,35,25,35,FALSE
null,null,psychophysics,79,81378,0.0-3.0-1.37,,key,null,16.65788333,640,288.5,,,,,,,,
726.7,arrowleft,psychophysics,80,82110,0.0-3.0-0.38,,key,arrowleft,16.64832558,640,288.5,39,2,-1,30,35,25,35,TRUE
null,null,psychophysics,81,83127,0.0-3.0-1.38,,key,null,16.653,640,288.5,,,,,,,,
367.2,arrowleft,psychophysics,82,83500,0.0-3.0-0.39,,key,arrowleft,16.65236364,640,288.5,40,2,-1,26,15,25,35,TRUE
null,null,psychophysics,83,84509,0.0-3.0-1.39,,key,null,16.6559322,640,288.5,,,,,,,,
392.1,arrowleft,psychophysics,84,84907,0.0-3.0-0.40,,key,arrowleft,16.64669565,640,288.5,41,2,-1,24,35,25,35,TRUE
null,null,psychophysics,85,85918,0.0-3.0-1.40,,key,null,16.65223333,640,288.5,,,,,,,,
252.7,arrowright,psychophysics,86,86173,0.0-3.0-0.41,,key,arrowright,16.65685714,640,288.5,42,2,-1,25,35,25,35,FALSE
null,null,psychophysics,87,87175,0.0-3.0-1.41,,key,null,16.65345,640,288.5,,,,,,,,
260.3,arrowright,psychophysics,88,87439,0.0-3.0-0.42,,key,arrowright,16.66871429,640,288.5,43,2,-1,26,15,25,35,FALSE
null,null,psychophysics,89,88441,0.0-3.0-1.42,,key,null,16.66016667,640,288.5,,,,,,,,
496.6,arrowleft,psychophysics,90,88941,0.0-3.0-0.43,,key,arrowleft,16.65037931,640,288.5,44,2,-1,27,35,25,35,TRUE
null,null,psychophysics,91,89955,0.0-3.0-1.43,,key,null,16.65281356,640,288.5,,,,,,,,
661.2,arrowright,psychophysics,92,90621,0.0-3.0-0.44,,key,arrowright,16.65741026,640,288.5,45,2,-1,23,15,25,35,FALSE
null,null,psychophysics,93,91637,0.0-3.0-1.44,,key,null,16.65141667,640,288.5,,,,,,,,
418.1,arrowleft,psychophysics,94,92060,0.0-3.0-0.45,,key,arrowleft,16.6532,640,288.5,46,2,1,30,35,25,35,FALSE
null,null,psychophysics,95,93070,0.0-3.0-1.45,,key,null,16.65553333,640,288.5,,,,,,,,
463.3,arrowright,psychophysics,96,93537,0.0-3.0-0.46,,key,arrowright,16.66240741,640,288.5,47,2,-1,20,15,25,35,FALSE
null,null,psychophysics,97,94551,0.0-3.0-1.46,,key,null,16.65288136,640,288.5,,,,,,,,
556.5,arrowright,psychophysics,98,95113,0.0-3.0-0.47,,key,arrowright,16.64906061,640,288.5,48,2,1,20,35,25,35,TRUE
null,null,psychophysics,99,96118,0.0-3.0-1.47,,key,null,16.65348333,640,288.5,,,,,,,,
343.2,arrowright,psychophysics,100,96465,0.0-3.0-0.48,,key,arrowright,16.67010526,640,288.5,49,2,-1,23,15,25,35,FALSE
null,null,psychophysics,101,97467,0.0-3.0-1.48,,key,null,16.65725,640,288.5,,,,,,,,
570,arrowright,psychophysics,102,98042,0.0-3.0-0.49,,key,arrowright,16.65454545,640,288.5,50,2,-1,23,15,25,35,FALSE
null,null,psychophysics,103,99047,0.0-3.0-1.49,,key,null,16.64981356,640,288.5,,,,,,,,
709,arrowleft,psychophysics,104,99761,0.0-3.0-0.50,,key,arrowleft,16.65657143,640,288.5,51,2,-1,30,35,25,35,TRUE
null,null,psychophysics,105,100764,0.0-3.0-1.50,,key,null,16.65828333,640,288.5,,,,,,,,
699.8,arrowright,psychophysics,106,101467,0.0-3.0-0.51,,key,arrowright,16.65514634,640,288.5,52,2,1,26,15,25,35,TRUE
null,null,psychophysics,107,102479,0.0-3.0-1.51,,key,null,16.65263333,640,288.5,,,,,,,,
523,arrowright,psychophysics,108,103007,0.0-3.0-0.52,,key,arrowright,16.64886667,640,288.5,53,2,-1,27,35,25,35,FALSE
null,null,psychophysics,109,104010,0.0-3.0-1.52,,key,null,16.65862712,640,288.5,,,,,,,,
517.9,arrowright,psychophysics,110,104534,0.0-3.0-0.53,,key,arrowright,16.65951613,640,288.5,54,2,1,26,35,25,35,TRUE
null,null,psychophysics,111,105542,0.0-3.0-1.53,,key,null,16.65505085,640,288.5,,,,,,,,
312.6,arrowright,psychophysics,112,105861,0.0-3.0-0.54,,key,arrowright,16.65831579,640,288.5,55,2,-1,27,15,25,35,FALSE
null,null,psychophysics,113,106876,0.0-3.0-1.54,,key,null,16.65448333,640,288.5,,,,,,,,
447.1,arrowright,psychophysics,114,107326,0.0-3.0-0.55,,key,arrowright,16.65065385,640,288.5,56,3,1,30,35,25,35,TRUE
null,null,psychophysics,115,108340,0.0-3.0-1.55,,key,null,16.65616949,640,288.5,,,,,,,,
6227.8, ,html-keyboard-response,116,114578,0.0-3.0-2.55-0.55,"<div style=""color: white; text-align: center; vertical-align: top; display: inline-block; width: 800px; margin: auto""><p>You have completed 20% of the trials. You are on block 3 of 10. <br>Good job! Take a break if you need to.</p><p>Press any key to continue the experiment.</p></div>",,,,,,,,,,,,,
536.7,arrowright,psychophysics,117,116142,0.0-3.0-0.56,,key,arrowright,16.657875,640,288.5,57,3,1,23,35,25,35,TRUE
null,null,psychophysics,118,117150,0.0-3.0-1.56,,key,null,16.65071667,640,288.5,,,,,,,,
549,arrowright,psychophysics,119,117703,0.0-3.0-0.57,,key,arrowright,16.65534375,640,288.5,58,3,-1,20,35,25,35,FALSE
null,null,psychophysics,120,118716,0.0-3.0-1.57,,key,null,16.65305,640,288.5,,,,,,,,
114.4,arrowleft,psychophysics,121,118834,0.0-3.0-0.58,,key,arrowleft,16.7595,640,288.5,59,3,1,26,15,25,35,FALSE
null,null,psychophysics,122,119848,0.0-3.0-1.58,,key,null,16.65325,640,288.5,,,,,,,,
509.6,arrowright,psychophysics,123,120361,0.0-3.0-0.59,,key,arrowright,16.65924138,640,288.5,60,3,1,20,15,25,35,TRUE
null,null,psychophysics,124,121363,0.0-3.0-1.59,,key,null,16.65343333,640,288.5,,,,,,,,
305.7,arrowleft,psychophysics,125,121671,0.0-3.0-0.60,,key,arrowleft,16.65529412,640,288.5,61,3,-1,26,15,25,35,TRUE
null,null,psychophysics,126,122679,0.0-3.0-1.60,,key,null,16.65103333,640,288.5,,,,,,,,
415.9,arrowright,psychophysics,127,123099,0.0-3.0-0.61,,key,arrowright,16.65216667,640,288.5,62,3,-1,20,15,25,35,FALSE
null,null,psychophysics,128,124111,0.0-3.0-1.61,,key,null,16.6523,640,288.5,,,,,,,,
744.6,arrowright,psychophysics,129,124858,0.0-3.0-0.62,,key,arrowright,16.65272093,640,288.5,63,3,1,27,15,25,35,TRUE
null,null,psychophysics,130,125860,0.0-3.0-1.62,,key,null,16.65425,640,288.5,,,,,,,,
424.1,arrowright,psychophysics,131,126288,0.0-3.0-0.63,,key,arrowright,16.64883333,640,288.5,64,3,-1,20,35,25,35,FALSE
null,null,psychophysics,132,127292,0.0-3.0-1.63,,key,null,16.65428333,640,288.5,,,,,,,,
231.7,arrowright,psychophysics,133,127528,0.0-3.0-0.64,,key,arrowright,16.64561538,640,288.5,65,3,1,23,15,25,35,TRUE
null,null,psychophysics,134,128541,0.0-3.0-1.64,,key,null,16.65491667,640,288.5,,,,,,,,
268.8,arrowleft,psychophysics,135,128813,0.0-3.0-0.65,,key,arrowleft,16.6522,640,288.5,66,3,1,20,35,25,35,FALSE
null,null,psychophysics,136,129823,0.0-3.0-1.65,,key,null,16.65225,640,288.5,,,,,,,,
339.2,arrowright,psychophysics,137,130166,0.0-3.0-0.66,,key,arrowright,16.65710526,640,288.5,67,3,1,27,35,25,35,TRUE
null,null,psychophysics,138,131172,0.0-3.0-1.66,,key,null,16.65241667,640,288.5,,,,,,,,
294.7,arrowright,psychophysics,139,131470,0.0-3.0-0.67,,key,arrowright,16.6488125,640,288.5,68,3,-1,30,35,25,35,FALSE
null,null,psychophysics,140,132473,0.0-3.0-1.67,,key,null,16.6511,640,288.5,,,,,,,,
516.1,arrowleft,psychophysics,141,132992,0.0-3.0-0.68,,key,arrowleft,16.6516,640,288.5,69,3,-1,25,35,25,35,TRUE
null,null,psychophysics,142,134002,0.0-3.0-1.68,,key,null,16.65547458,640,288.5,,,,,,,,
280.1,arrowright,psychophysics,143,134287,0.0-3.0-0.69,,key,arrowright,16.65641176,640,288.5,70,3,1,30,35,25,35,TRUE
null,null,psychophysics,144,135301,0.0-3.0-1.69,,key,null,16.65036667,640,288.5,,,,,,,,
352.2,arrowright,psychophysics,145,135656,0.0-3.0-0.70,,key,arrowright,16.66155,640,288.5,71,3,1,23,15,25,35,TRUE
null,null,psychophysics,146,136668,0.0-3.0-1.70,,key,null,16.65243333,640,288.5,,,,,,,,
446,arrowleft,psychophysics,147,137118,0.0-3.0-0.71,,key,arrowleft,16.64557692,640,288.5,72,3,1,27,15,25,35,FALSE
null,null,psychophysics,148,138132,0.0-3.0-1.71,,key,null,16.65425424,640,288.5,,,,,,,,
290.1,arrowright,psychophysics,149,138427,0.0-3.0-0.72,,key,arrowright,16.64558824,640,288.5,73,3,-1,26,35,25,35,FALSE
null,null,psychophysics,150,139430,0.0-3.0-1.72,,key,null,16.65113559,640,288.5,,,,,,,,
316.2,arrowright,psychophysics,151,139752,0.0-3.0-0.73,,key,arrowright,16.66173684,640,288.5,74,3,1,26,15,25,35,TRUE
null,null,psychophysics,152,140762,0.0-3.0-1.73,,key,null,16.65171186,640,288.5,,,,,,,,
350.4,arrowright,psychophysics,153,141116,0.0-3.0-0.74,,key,arrowright,16.65961905,640,288.5,75,3,-1,23,15,25,35,FALSE
null,null,psychophysics,154,142130,0.0-3.0-1.74,,key,null,16.65738333,640,288.5,,,,,,,,
319,arrowright,psychophysics,155,142453,0.0-3.0-0.75,,key,arrowright,16.648,640,288.5,76,3,1,26,35,25,35,TRUE
null,null,psychophysics,156,143461,0.0-3.0-1.75,,key,null,16.6504,640,288.5,,,,,,,,
292.6,arrowright,psychophysics,157,143757,0.0-3.0-0.76,,key,arrowright,16.6405,640,288.5,77,3,1,27,35,25,35,TRUE
null,null,psychophysics,158,144759,0.0-3.0-1.76,,key,null,16.65801695,640,288.5,,,,,,,,
315.7,arrowright,psychophysics,159,145084,0.0-3.0-0.77,,key,arrowright,16.66468421,640,288.5,78,3,-1,23,15,25,35,FALSE
null,null,psychophysics,160,146092,0.0-3.0-1.77,,key,null,16.65486441,640,288.5,,,,,,,,
63,arrowright,psychophysics,161,146161,0.0-3.0-0.78,,key,arrowright,16.648,640,288.5,79,3,-1,27,35,25,35,FALSE
null,null,psychophysics,162,147174,0.0-3.0-1.78,,key,null,16.64822034,640,288.5,,,,,,,,
557.5,arrowright,psychophysics,163,147734,0.0-3.0-0.79,,key,arrowright,16.65951515,640,288.5,80,3,-1,24,35,25,35,FALSE
null,null,psychophysics,164,148739,0.0-3.0-1.79,,key,null,16.65261017,640,288.5,,,,,,,,
480.2,arrowleft,psychophysics,165,149222,0.0-3.0-0.80,,key,arrowleft,16.6625,640,288.5,81,3,-1,26,35,25,35,TRUE
null,null,psychophysics,166,150224,0.0-3.0-1.80,,key,null,16.65711667,640,288.5,,,,,,,,
487.9,arrowright,psychophysics,167,150715,0.0-3.0-0.81,,key,arrowright,16.65178571,640,288.5,82,3,1,26,15,25,35,TRUE
null,null,psychophysics,168,151721,0.0-3.0-1.81,,key,null,16.64898333,640,288.5,,,,,,,,
280.3,arrowright,psychophysics,169,152005,0.0-3.0-0.82,,key,arrowright,16.6456875,640,288.5,83,3,-1,24,15,25,35,FALSE
null,null,psychophysics,170,153020,0.0-3.0-1.82,,key,null,16.65313333,640,288.5,,,,,,,,
297.5,arrowright,psychophysics,171,153322,0.0-3.0-0.83,,key,arrowright,16.64888235,640,288.5,84,4,-1,24,35,25,35,FALSE
null,null,psychophysics,172,154328,0.0-3.0-1.83,,key,null,16.65674576,640,288.5,,,,,,,,
1147.1, ,html-keyboard-response,173,155477,0.0-3.0-2.83-0.83,"<div style=""color: white; text-align: center; vertical-align: top; display: inline-block; width: 800px; margin: auto""><p>You have completed 30% of the trials. You are on block 4 of 10. <br>Good job! Take a break if you need to.</p><p>Press any key to continue the experiment.</p></div>",,,,,,,,,,,,,
379.9,arrowright,psychophysics,174,156874,0.0-3.0-0.84,,key,arrowright,16.66021739,640,288.5,85,4,-1,24,15,25,35,FALSE
null,null,psychophysics,175,157882,0.0-3.0-1.84,,key,null,16.65518644,640,288.5,,,,,,,,
240,arrowright,psychophysics,176,158134,0.0-3.0-0.85,,key,arrowright,16.66966667,640,288.5,86,4,1,30,35,25,35,TRUE
null,null,psychophysics,177,159147,0.0-3.0-1.85,,key,null,16.65440678,640,288.5,,,,,,,,
69.39999998,arrowright,psychophysics,178,159220,0.0-3.0-0.86,,key,arrowright,16.67875,640,288.5,87,4,-1,26,15,25,35,FALSE
null,null,psychophysics,179,160231,0.0-3.0-1.86,,key,null,16.65298333,640,288.5,,,,,,,,
36.79999995,arrowleft,psychophysics,180,160272,0.0-3.0-0.87,,key,arrowleft,16.631,640,288.5,88,4,-1,30,35,25,35,TRUE
null,null,psychophysics,181,161281,0.0-3.0-1.87,,key,null,16.66023333,640,288.5,,,,,,,,
452.8,arrowright,psychophysics,182,161737,0.0-3.0-0.88,,key,arrowright,16.65261538,640,288.5,89,4,-1,26,15,25,35,FALSE
null,null,psychophysics,183,162746,0.0-3.0-1.88,,key,null,16.65336667,640,288.5,,,,,,,,
111.3,arrowleft,psychophysics,184,162861,0.0-3.0-0.89,,key,arrowleft,16.6638,640,288.5,90,4,-1,20,15,25,35,TRUE
null,null,psychophysics,185,163863,0.0-3.0-1.89,,key,null,16.65471667,640,288.5,,,,,,,,
229.7,arrowright,psychophysics,186,164097,0.0-3.0-0.90,,key,arrowright,16.64707692,640,288.5,91,4,-1,25,35,25,35,FALSE
null,null,psychophysics,187,165110,0.0-3.0-1.90,,key,null,16.65146667,640,288.5,,,,,,,,
718.7,arrowright,psychophysics,188,165833,0.0-3.0-0.91,,key,arrowright,16.64919048,640,288.5,92,4,1,27,15,25,35,TRUE
null,null,psychophysics,189,166841,0.0-3.0-1.91,,key,null,16.65128814,640,288.5,,,,,,,,
640.5,arrowright,psychophysics,190,167487,0.0-3.0-0.92,,key,arrowright,16.65628947,640,288.5,93,4,1,24,15,25,35,TRUE
null,null,psychophysics,191,168491,0.0-3.0-1.92,,key,null,16.65251667,640,288.5,,,,,,,,
180.7,arrowright,psychophysics,192,168675,0.0-3.0-0.93,,key,arrowright,16.6472,640,288.5,94,4,1,25,15,25,35,TRUE
null,null,psychophysics,193,169690,0.0-3.0-1.93,,key,null,16.65906667,640,288.5,,,,,,,,
171.3,arrowright,psychophysics,194,169866,0.0-3.0-0.94,,key,arrowright,16.65244444,640,288.5,95,4,-1,30,15,25,35,FALSE
null,null,psychophysics,195,170872,0.0-3.0-1.94,,key,null,16.65171667,640,288.5,,,,,,,,
373.3,arrowleft,psychophysics,196,171249,0.0-3.0-0.95,,key,arrowleft,16.64780952,640,288.5,96,4,-1,25,35,25,35,TRUE
null,null,psychophysics,197,172255,0.0-3.0-1.95,,key,null,16.65238333,640,288.5,,,,,,,,
283,arrowright,psychophysics,198,172541,0.0-3.0-0.96,,key,arrowright,16.6543125,640,288.5,97,4,1,20,35,25,35,TRUE
null,null,psychophysics,199,173554,0.0-3.0-1.96,,key,null,16.65091667,640,288.5,,,,,,,,
631,arrowright,psychophysics,200,174188,0.0-3.0-0.97,,key,arrowright,16.64978378,640,288.5,98,4,1,27,35,25,35,TRUE
null,null,psychophysics,201,175201,0.0-3.0-1.97,,key,null,16.65449153,640,288.5,,,,,,,,
703.2,arrowright,psychophysics,202,175910,0.0-3.0-0.98,,key,arrowright,16.64809524,640,288.5,99,4,1,26,15,25,35,TRUE
null,null,psychophysics,203,176918,0.0-3.0-1.98,,key,null,16.65623333,640,288.5,,,,,,,,
497.3,arrowright,psychophysics,204,177419,0.0-3.0-0.99,,key,arrowright,16.65382759,640,288.5,100,4,1,23,35,25,35,TRUE
null,null,psychophysics,205,178435,0.0-3.0-1.99,,key,null,16.65484746,640,288.5,,,,,,,,
571.4,arrowright,psychophysics,206,179018,0.0-3.0-0.100,,key,arrowright,16.5556,640,288.5,101,4,1,26,35,25,35,TRUE
null,null,psychophysics,207,180032,0.0-3.0-1.100,,key,null,16.65193333,640,288.5,,,,,,,,
692.4,arrowright,psychophysics,208,180728,0.0-3.0-0.101,,key,arrowright,16.653325,640,288.5,102,4,-1,24,35,25,35,FALSE
null,null,psychophysics,209,181730,0.0-3.0-1.101,,key,null,16.65452542,640,288.5,,,,,,,,
705.2,arrowright,psychophysics,210,182441,0.0-3.0-0.102,,key,arrowright,16.64219048,640,288.5,103,4,1,20,15,25,35,TRUE
null,null,psychophysics,211,183446,0.0-3.0-1.102,,key,null,16.6503,640,288.5,,,,,,,,
430.9,arrowright,psychophysics,212,183880,0.0-3.0-0.103,,key,arrowright,16.66712,640,288.5,104,4,-1,20,35,25,35,FALSE
null,null,psychophysics,213,184894,0.0-3.0-1.103,,key,null,16.65016667,640,288.5,,,,,,,,
339,arrowright,psychophysics,214,185238,0.0-3.0-0.104,,key,arrowright,16.66905263,640,288.5,105,4,1,27,15,25,35,TRUE
null,null,psychophysics,215,186244,0.0-3.0-1.104,,key,null,16.65308333,640,288.5,,,,,,,,
359.6,arrowright,psychophysics,216,186607,0.0-3.0-0.105,,key,arrowright,16.6632,640,288.5,106,4,-1,23,35,25,35,FALSE
null,null,psychophysics,217,187610,0.0-3.0-1.105,,key,null,16.65343333,640,288.5,,,,,,,,
425.3,arrowright,psychophysics,218,188037,0.0-3.0-0.106,,key,arrowright,16.65329167,640,288.5,107,4,-1,25,35,25,35,FALSE
null,null,psychophysics,219,189040,0.0-3.0-1.106,,key,null,16.65767797,640,288.5,,,,,,,,
1352.6,arrowright,psychophysics,220,190403,0.0-3.0-0.107,,key,arrowright,16.65449383,640,288.5,108,4,-1,30,35,25,35,FALSE
null,null,psychophysics,221,191406,0.0-3.0-1.107,,key,null,16.65568333,640,288.5,,,,,,,,
859.9,arrowright,psychophysics,222,192270,0.0-3.0-0.108,,key,arrowright,16.65702,640,288.5,109,4,1,27,15,25,35,TRUE
null,null,psychophysics,223,193272,0.0-3.0-1.108,,key,null,16.65305,640,288.5,,,,,,,,
384.9,arrowright,psychophysics,224,193660,0.0-3.0-0.109,,key,arrowright,16.64745455,640,288.5,110,4,-1,20,35,25,35,FALSE
null,null,psychophysics,225,194669,0.0-3.0-1.109,,key,null,16.65615254,640,288.5,,,,,,,,
443.1,arrowright,psychophysics,226,195118,0.0-3.0-0.110,,key,arrowright,16.63046154,640,288.5,111,4,-1,23,15,25,35,FALSE
null,null,psychophysics,227,196134,0.0-3.0-1.110,,key,null,16.65543333,640,288.5,,,,,,,,
404.2,arrowright,psychophysics,228,196545,0.0-3.0-0.111,,key,arrowright,16.647,640,288.5,112,5,1,23,15,25,35,TRUE
null,null,psychophysics,229,197551,0.0-3.0-1.111,,key,null,16.6508,640,288.5,,,,,,,,
91.89999998,arrowright,html-keyboard-response,230,197644,0.0-3.0-2.111-0.111,"<div style=""color: white; text-align: center; vertical-align: top; display: inline-block; width: 800px; margin: auto""><p>You have completed 40% of the trials. You are on block 5 of 10. <br>Good job! Take a break if you need to.</p><p>Press any key to continue the experiment.</p></div>",,,,,,,,,,,,,
383.5,arrowright,psychophysics,231,199037,0.0-3.0-0.112,,key,arrowright,16.65769565,640,288.5,113,5,-1,24,15,25,35,FALSE
null,null,psychophysics,232,200048,0.0-3.0-1.112,,key,null,16.65188333,640,288.5,,,,,,,,
326.3,arrowright,psychophysics,233,200378,0.0-3.0-0.113,,key,arrowright,16.64833333,640,288.5,114,5,-1,30,15,25,35,FALSE
null,null,psychophysics,234,201380,0.0-3.0-1.113,,key,null,16.65463333,640,288.5,,,,,,,,
155.2,arrowleft,psychophysics,235,201539,0.0-3.0-0.114,,key,arrowleft,16.660375,640,288.5,115,5,1,26,35,25,35,FALSE
null,null,psychophysics,236,202546,0.0-3.0-1.114,,key,null,16.65271667,640,288.5,,,,,,,,
166.7,arrowright,psychophysics,237,202716,0.0-3.0-0.115,,key,arrowright,16.63133333,640,288.5,116,5,1,26,35,25,35,TRUE
null,null,psychophysics,238,203728,0.0-3.0-1.115,,key,null,16.65568333,640,288.5,,,,,,,,
285.8,arrowright,psychophysics,239,204018,0.0-3.0-0.116,,key,arrowright,16.646375,640,288.5,117,5,-1,20,15,25,35,FALSE
null,null,psychophysics,240,205027,0.0-3.0-1.116,,key,null,16.65363333,640,288.5,,,,,,,,
101.1,arrowright,psychophysics,241,205132,0.0-3.0-0.117,,key,arrowright,16.6342,640,288.5,118,5,1,23,15,25,35,TRUE
null,null,psychophysics,242,206138,0.0-3.0-1.117,,key,null,16.65184746,640,288.5,,,,,,,,
159.6,arrowright,psychophysics,243,206300,0.0-3.0-0.118,,key,arrowright,16.65044444,640,288.5,119,5,1,26,35,25,35,TRUE
null,null,psychophysics,244,207310,0.0-3.0-1.118,,key,null,16.66,640,288.5,,,,,,,,
135.8,arrowright,psychophysics,245,207450,0.0-3.0-0.119,,key,arrowright,16.65357143,640,288.5,120,5,1,24,35,25,35,TRUE
null,null,psychophysics,246,208457,0.0-3.0-1.119,,key,null,16.64881356,640,288.5,,,,,,,,
275.7,arrowright,psychophysics,247,208738,0.0-3.0-0.120,,key,arrowright,16.6460625,640,288.5,121,5,-1,20,15,25,35,FALSE
null,null,psychophysics,248,209741,0.0-3.0-1.120,,key,null,16.65575,640,288.5,,,,,,,,
180.2,arrowright,psychophysics,249,209929,0.0-3.0-0.121,,key,arrowright,16.6342,640,288.5,122,5,1,20,35,25,35,TRUE
null,null,psychophysics,250,210940,0.0-3.0-1.121,,key,null,16.65343333,640,288.5,,,,,,,,
315.6,arrowright,psychophysics,251,211259,0.0-3.0-0.122,,key,arrowright,16.65922222,640,288.5,123,5,1,30,35,25,35,TRUE
null,null,psychophysics,252,212272,0.0-3.0-1.122,,key,null,16.65173333,640,288.5,,,,,,,,
174.9,arrowright,psychophysics,253,212450,0.0-3.0-0.123,,key,arrowright,16.65722222,640,288.5,124,5,-1,30,35,25,35,FALSE
null,null,psychophysics,254,213454,0.0-3.0-1.123,,key,null,16.65556667,640,288.5,,,,,,,,
238.8,arrowright,psychophysics,255,213696,0.0-3.0-0.124,,key,arrowright,16.67069231,640,288.5,125,5,-1,24,35,25,35,FALSE
null,null,psychophysics,256,214702,0.0-3.0-1.124,,key,null,16.65250847,640,288.5,,,,,,,,
476.4,arrowright,psychophysics,257,215184,0.0-3.0-0.125,,key,arrowright,16.65314286,640,288.5,126,5,-1,24,35,25,35,FALSE
null,null,psychophysics,258,216185,0.0-3.0-1.125,,key,null,16.65571667,640,288.5,,,,,,,,
347.5,arrowright,psychophysics,259,216536,0.0-3.0-0.126,,key,arrowright,16.6674,640,288.5,127,5,-1,23,35,25,35,FALSE
null,null,psychophysics,260,217551,0.0-3.0-1.126,,key,null,16.65213333,640,288.5,,,,,,,,
163.3,arrowright,psychophysics,261,217718,0.0-3.0-0.127,,key,arrowright,16.65533333,640,288.5,128,5,-1,27,15,25,35,FALSE
null,null,psychophysics,262,218733,0.0-3.0-1.127,,key,null,16.65401667,640,288.5,,,,,,,,
227,arrowright,psychophysics,263,218964,0.0-3.0-0.128,,key,arrowright,16.66558333,640,288.5,129,5,1,20,15,25,35,TRUE
null,null,psychophysics,264,219965,0.0-3.0-1.128,,key,null,16.65353333,640,288.5,,,,,,,,
455.7,arrowright,psychophysics,265,220424,0.0-3.0-0.129,,key,arrowright,16.65926923,640,288.5,130,5,-1,20,15,25,35,FALSE
null,null,psychophysics,266,221431,0.0-3.0-1.129,,key,null,16.64998333,640,288.5,,,,,,,,
893.2,arrowright,psychophysics,267,222328,0.0-3.0-0.130,,key,arrowright,16.64911538,640,288.5,131,5,-1,23,35,25,35,FALSE
null,null,psychophysics,268,223330,0.0-3.0-1.130,,key,null,16.65401667,640,288.5,,,,,,,,
333.6,arrowright,psychophysics,269,223667,0.0-3.0-0.131,,key,arrowright,16.64478947,640,288.5,132,5,-1,27,15,25,35,FALSE
null,null,psychophysics,270,224678,0.0-3.0-1.131,,key,null,16.65526667,640,288.5,,,,,,,,
310.5,arrowright,psychophysics,271,224992,0.0-3.0-0.132,,key,arrowright,16.65135294,640,288.5,133,5,-1,25,15,25,35,FALSE
null,null,psychophysics,272,225994,0.0-3.0-1.132,,key,null,16.65353333,640,288.5,,,,,,,,
222,arrowright,psychophysics,273,226219,0.0-3.0-0.133,,key,arrowright,16.65958333,640,288.5,134,5,1,27,35,25,35,TRUE
null,null,psychophysics,274,227226,0.0-3.0-1.133,,key,null,16.6529,640,288.5,,,,,,,,
194,arrowright,psychophysics,275,227424,0.0-3.0-0.134,,key,arrowright,16.641,640,288.5,135,5,1,24,35,25,35,TRUE
null,null,psychophysics,276,228426,0.0-3.0-1.134,,key,null,16.6574,640,288.5,,,,,,,,
274.5,arrowright,psychophysics,277,228704,0.0-3.0-0.135,,key,arrowright,16.6416,640,288.5,136,5,1,20,15,25,35,TRUE
null,null,psychophysics,278,229707,0.0-3.0-1.135,,key,null,16.6552,640,288.5,,,,,,,,
101.4,arrowleft,psychophysics,279,229812,0.0-3.0-0.136,,key,arrowleft,16.666,640,288.5,137,5,-1,20,35,25,35,TRUE
null,null,psychophysics,280,230822,0.0-3.0-1.136,,key,null,16.65101695,640,288.5,,,,,,,,
446.3,arrowleft,psychophysics,281,231274,0.0-3.0-0.137,,key,arrowleft,16.66892593,640,288.5,138,5,1,26,35,25,35,FALSE
null,null,psychophysics,282,232287,0.0-3.0-1.137,,key,null,16.65201695,640,288.5,,,,,,,,
331.3,arrowleft,psychophysics,283,232624,0.0-3.0-0.138,,key,arrowleft,16.6458,640,288.5,139,5,1,24,35,25,35,FALSE
null,null,psychophysics,284,233637,0.0-3.0-1.138,,key,null,16.65098333,640,288.5,,,,,,,,
362.7,arrowleft,psychophysics,285,234004,0.0-3.0-0.139,,key,arrowleft,16.64314286,640,288.5,140,6,1,25,15,25,35,FALSE
null,null,psychophysics,286,235020,0.0-3.0-1.139,,key,null,16.65398333,640,288.5,,,,,,,,
51.80000001,arrowleft,html-keyboard-response,287,235074,0.0-3.0-2.139-0.139,"<div style=""color: white; text-align: center; vertical-align: top; display: inline-block; width: 800px; margin: auto""><p>You have completed 50% of the trials. You are on block 6 of 10. <br>Good job! Take a break if you need to.</p><p>Press any key to continue the experiment.</p></div>",,,,,,,,,,,,,
633.6,arrowleft,psychophysics,288,236737,0.0-3.0-0.140,,key,arrowleft,16.66002564,640,288.5,141,6,1,24,15,25,35,FALSE
null,null,psychophysics,289,237749,0.0-3.0-1.140,,key,null,16.65657627,640,288.5,,,,,,,,
1557.8,arrowleft,psychophysics,290,239313,0.0-3.0-0.141,,key,arrowleft,16.65473118,640,288.5,142,6,1,23,15,25,35,FALSE
null,null,psychophysics,291,240315,0.0-3.0-1.141,,key,null,16.65703333,640,288.5,,,,,,,,
841.6,arrowright,psychophysics,292,241161,0.0-3.0-0.142,,key,arrowright,16.65453061,640,288.5,143,6,-1,27,15,25,35,FALSE
null,null,psychophysics,293,242164,0.0-3.0-1.142,,key,null,16.6556,640,288.5,,,,,,,,
432.9,arrowleft,psychophysics,294,242600,0.0-3.0-0.143,,key,arrowleft,16.6612,640,288.5,144,6,1,27,15,25,35,FALSE
null,null,psychophysics,295,243613,0.0-3.0-1.143,,key,null,16.65495,640,288.5,,,,,,,,
335.7,arrowright,psychophysics,296,243952,0.0-3.0-0.144,,key,arrowright,16.64384211,640,288.5,145,6,1,20,15,25,35,TRUE
null,null,psychophysics,297,244961,0.0-3.0-1.144,,key,null,16.65125,640,288.5,,,,,,,,
347.7,arrowright,psychophysics,298,245312,0.0-3.0-0.145,,key,arrowright,16.6396,640,288.5,146,6,-1,30,35,25,35,FALSE
null,null,psychophysics,299,246325,0.0-3.0-1.145,,key,null,16.64884746,640,288.5,,,,,,,,
510.1,arrowright,psychophysics,300,246840,0.0-3.0-0.146,,key,arrowright,16.65623333,640,288.5,147,6,1,20,15,25,35,TRUE
null,null,psychophysics,301,247842,0.0-3.0-1.146,,key,null,16.65263333,640,288.5,,,,,,,,
176.1,arrowleft,psychophysics,302,248023,0.0-3.0-0.147,,key,arrowleft,16.68111111,640,288.5,148,6,1,25,35,25,35,FALSE
null,null,psychophysics,303,249025,0.0-3.0-1.147,,key,null,16.65561667,640,288.5,,,,,,,,
366.6,arrowleft,psychophysics,304,249402,0.0-3.0-0.148,,key,arrowleft,16.65480952,640,288.5,149,6,-1,23,35,25,35,TRUE
null,null,psychophysics,305,250406,0.0-3.0-1.148,,key,null,16.6490678,640,288.5,,,,,,,,
472.3,arrowright,psychophysics,306,250884,0.0-3.0-0.149,,key,arrowright,16.65775,640,288.5,150,6,-1,26,35,25,35,FALSE
null,null,psychophysics,307,251888,0.0-3.0-1.149,,key,null,16.65350847,640,288.5,,,,,,,,
298.6,arrowright,psychophysics,308,252199,0.0-3.0-0.150,,key,arrowright,16.63972222,640,288.5,151,6,-1,24,35,25,35,FALSE
null,null,psychophysics,309,253205,0.0-3.0-1.150,,key,null,16.65716667,640,288.5,,,,,,,,
241.7,arrowright,psychophysics,310,253450,0.0-3.0-0.151,,key,arrowright,16.67184615,640,288.5,152,6,1,27,15,25,35,TRUE
null,null,psychophysics,311,254454,0.0-3.0-1.151,,key,null,16.65733333,640,288.5,,,,,,,,
303.4,arrowright,psychophysics,312,254760,0.0-3.0-0.152,,key,arrowright,16.65852941,640,288.5,153,6,1,30,35,25,35,TRUE
null,null,psychophysics,313,255767,0.0-3.0-1.152,,key,null,16.6530678,640,288.5,,,,,,,,
58.19999999,arrowright,psychophysics,314,255831,0.0-3.0-0.153,,key,arrowright,16.64666667,640,288.5,154,6,1,26,15,25,35,TRUE
null,null,psychophysics,315,256834,0.0-3.0-1.153,,key,null,16.65461017,640,288.5,,,,,,,,
254.6,arrowright,psychophysics,316,257095,0.0-3.0-0.154,,key,arrowright,16.65366667,640,288.5,155,6,-1,27,35,25,35,FALSE
null,null,psychophysics,317,258099,0.0-3.0-1.154,,key,null,16.65598305,640,288.5,,,,,,,,
569,arrowright,psychophysics,318,258676,0.0-3.0-0.155,,key,arrowright,16.65985294,640,288.5,156,6,1,24,35,25,35,TRUE
null,null,psychophysics,319,259684,0.0-3.0-1.155,,key,null,16.65401667,640,288.5,,,,,,,,
583,arrowleft,psychophysics,320,260271,0.0-3.0-0.156,,key,arrowleft,16.65285294,640,288.5,157,6,1,30,15,25,35,FALSE
null,null,psychophysics,321,261282,0.0-3.0-1.156,,key,null,16.65056667,640,288.5,,,,,,,,
478.1,arrowright,psychophysics,322,261768,0.0-3.0-0.157,,key,arrowright,16.65185714,640,288.5,158,6,-1,27,35,25,35,FALSE
null,null,psychophysics,323,262780,0.0-3.0-1.157,,key,null,16.65464407,640,288.5,,,,,,,,
556.1,arrowright,psychophysics,324,263342,0.0-3.0-0.158,,key,arrowright,16.63842424,640,288.5,159,6,1,27,15,25,35,TRUE
null,null,psychophysics,325,264346,0.0-3.0-1.158,,key,null,16.65253333,640,288.5,,,,,,,,
447.9,arrowright,psychophysics,326,264798,0.0-3.0-0.159,,key,arrowright,16.65973077,640,288.5,160,6,1,25,35,25,35,TRUE
null,null,psychophysics,327,265812,0.0-3.0-1.159,,key,null,16.6534,640,288.5,,,,,,,,
656.1,arrowright,psychophysics,328,266471,0.0-3.0-0.160,,key,arrowright,16.64928947,640,288.5,161,6,-1,20,15,25,35,FALSE
null,null,psychophysics,329,267476,0.0-3.0-1.160,,key,null,16.64942373,640,288.5,,,,,,,,
526.8,arrowright,psychophysics,330,268009,0.0-3.0-0.161,,key,arrowright,16.65025806,640,288.5,162,6,1,27,35,25,35,TRUE
null,null,psychophysics,331,269024,0.0-3.0-1.161,,key,null,16.65313333,640,288.5,,,,,,,,
366.2,arrowright,psychophysics,332,269394,0.0-3.0-0.162,,key,arrowright,16.6535,640,288.5,163,6,-1,24,15,25,35,FALSE
null,null,psychophysics,333,270408,0.0-3.0-1.162,,key,null,16.65335,640,288.5,,,,,,,,
617.1,arrowright,psychophysics,334,271029,0.0-3.0-0.163,,key,arrowright,16.64997222,640,288.5,164,6,1,27,35,25,35,TRUE
null,null,psychophysics,335,272040,0.0-3.0-1.163,,key,null,16.65475,640,288.5,,,,,,,,
772.7,arrowright,psychophysics,336,272817,0.0-3.0-0.164,,key,arrowright,16.6502,640,288.5,165,6,-1,30,15,25,35,FALSE
null,null,psychophysics,337,273821,0.0-3.0-1.164,,key,null,16.65188333,640,288.5,,,,,,,,
1435.1,arrowright,psychophysics,338,275262,0.0-3.0-0.165,,key,arrowright,16.65384706,640,288.5,166,6,-1,20,35,25,35,FALSE
null,null,psychophysics,339,276270,0.0-3.0-1.165,,key,null,16.65565,640,288.5,,,,,,,,
516.4,arrowright,psychophysics,340,276790,0.0-3.0-0.166,,key,arrowright,16.65396667,640,288.5,167,6,1,23,35,25,35,TRUE
null,null,psychophysics,341,277801,0.0-3.0-1.166,,key,null,16.65211864,640,288.5,,,,,,,,
609.9,arrowright,psychophysics,342,278417,0.0-3.0-0.167,,key,arrowright,16.65752778,640,288.5,168,7,1,30,15,25,35,TRUE
null,null,psychophysics,343,279433,0.0-3.0-1.167,,key,null,16.65258333,640,288.5,,,,,,,,
932.1, ,html-keyboard-response,344,280375,0.0-3.0-2.167-0.167,"<div style=""color: white; text-align: center; vertical-align: top; display: inline-block; width: 800px; margin: auto""><p>You have completed 60% of the trials. You are on block 7 of 10. <br>Good job! Take a break if you need to.</p><p>Press any key to continue the experiment.</p></div>",,,,,,,,,,,,,
327.6,arrowright,psychophysics,345,281721,0.0-3.0-0.168,,key,arrowright,16.65005,640,288.5,169,7,1,25,35,25,35,TRUE
null,null,psychophysics,346,282731,0.0-3.0-1.168,,key,null,16.65291667,640,288.5,,,,,,,,
88.30000001,arrowleft,psychophysics,347,282823,0.0-3.0-0.169,,key,arrowleft,16.6315,640,288.5,170,7,1,25,15,25,35,FALSE
null,null,psychophysics,348,283829,0.0-3.0-1.169,,key,null,16.65738983,640,288.5,,,,,,,,
474.8,arrowleft,psychophysics,349,284310,0.0-3.0-0.170,,key,arrowleft,16.66017857,640,288.5,171,7,1,27,15,25,35,FALSE
null,null,psychophysics,350,285312,0.0-3.0-1.170,,key,null,16.6542,640,288.5,,,,,,,,
463.9,arrowright,psychophysics,351,285779,0.0-3.0-0.171,,key,arrowright,16.64433333,640,288.5,172,7,-1,25,15,25,35,FALSE
null,null,psychophysics,352,286794,0.0-3.0-1.171,,key,null,16.65483051,640,288.5,,,,,,,,
462.1,arrowright,psychophysics,353,287262,0.0-3.0-0.172,,key,arrowright,16.65582143,640,288.5,173,7,1,24,15,25,35,TRUE
null,null,psychophysics,354,288277,0.0-3.0-1.172,,key,null,16.65376667,640,288.5,,,,,,,,
497.5,arrowright,psychophysics,355,288778,0.0-3.0-0.173,,key,arrowright,16.64855172,640,288.5,174,7,-1,20,35,25,35,FALSE
null,null,psychophysics,356,289791,0.0-3.0-1.173,,key,null,16.65310169,640,288.5,,,,,,,,
746.5,arrowright,psychophysics,357,290543,0.0-3.0-0.174,,key,arrowright,16.65273333,640,288.5,175,7,1,20,35,25,35,TRUE
null,null,psychophysics,358,291558,0.0-3.0-1.174,,key,null,16.64736667,640,288.5,,,,,,,,
617.8,arrowleft,psychophysics,359,292179,0.0-3.0-0.175,,key,arrowleft,16.65402778,640,288.5,176,7,-1,23,15,25,35,TRUE
null,null,psychophysics,360,293188,0.0-3.0-1.175,,key,null,16.65145763,640,288.5,,,,,,,,
241.5,arrowleft,psychophysics,361,293435,0.0-3.0-0.176,,key,arrowleft,16.63835714,640,288.5,177,7,-1,26,35,25,35,TRUE
null,null,psychophysics,362,294438,0.0-3.0-1.176,,key,null,16.65396667,640,288.5,,,,,,,,
454,arrowright,psychophysics,363,294900,0.0-3.0-0.177,,key,arrowright,16.65484615,640,288.5,178,7,-1,27,15,25,35,FALSE
null,null,psychophysics,364,295904,0.0-3.0-1.177,,key,null,16.6569,640,288.5,,,,,,,,
307.9,arrowright,psychophysics,365,296215,0.0-3.0-0.178,,key,arrowright,16.65470588,640,288.5,179,7,-1,23,15,25,35,FALSE
null,null,psychophysics,366,297219,0.0-3.0-1.178,,key,null,16.65295,640,288.5,,,,,,,,
518.2,arrowleft,psychophysics,367,297742,0.0-3.0-0.179,,key,arrowleft,16.6547,640,288.5,180,7,1,23,15,25,35,FALSE
null,null,psychophysics,368,298750,0.0-3.0-1.179,,key,null,16.65645763,640,288.5,,,,,,,,
265.6,arrowright,psychophysics,369,299021,0.0-3.0-0.180,,key,arrowright,16.6683125,640,288.5,181,7,-1,30,35,25,35,FALSE
null,null,psychophysics,370,300033,0.0-3.0-1.180,,key,null,16.65467797,640,288.5,,,,,,,,
471.6,arrowright,psychophysics,371,300510,0.0-3.0-0.181,,key,arrowright,16.65021429,640,288.5,182,7,1,25,35,25,35,TRUE
null,null,psychophysics,372,301516,0.0-3.0-1.181,,key,null,16.65308333,640,288.5,,,,,,,,
301.3,arrowright,psychophysics,373,301821,0.0-3.0-0.182,,key,arrowright,16.65364706,640,288.5,183,7,-1,27,35,25,35,FALSE
null,null,psychophysics,374,302830,0.0-3.0-1.182,,key,null,16.65550847,640,288.5,,,,,,,,
334.3,arrowright,psychophysics,375,303170,0.0-3.0-0.183,,key,arrowright,16.65605,640,288.5,184,7,1,30,15,25,35,TRUE
null,null,psychophysics,376,304180,0.0-3.0-1.183,,key,null,16.65205,640,288.5,,,,,,,,
320.6,arrowright,psychophysics,377,304504,0.0-3.0-0.184,,key,arrowright,16.654,640,288.5,185,7,1,25,35,25,35,TRUE
null,null,psychophysics,378,305513,0.0-3.0-1.184,,key,null,16.65356667,640,288.5,,,,,,,,
177.4,arrowright,psychophysics,379,305693,0.0-3.0-0.185,,key,arrowright,16.66444444,640,288.5,186,7,-1,26,15,25,35,FALSE
null,null,psychophysics,380,306695,0.0-3.0-1.185,,key,null,16.65641667,640,288.5,,,,,,,,
220.8,arrowleft,psychophysics,381,306919,0.0-3.0-0.186,,key,arrowleft,16.6665,640,288.5,187,7,1,25,15,25,35,FALSE
null,null,psychophysics,382,307927,0.0-3.0-1.186,,key,null,16.65116667,640,288.5,,,,,,,,
550.2,arrowright,psychophysics,383,308481,0.0-3.0-0.187,,key,arrowright,16.654375,640,288.5,188,7,-1,24,15,25,35,FALSE
null,null,psychophysics,384,309492,0.0-3.0-1.187,,key,null,16.65308333,640,288.5,,,,,,,,
558.1,arrowright,psychophysics,385,310054,0.0-3.0-0.188,,key,arrowright,16.64778125,640,288.5,189,7,1,20,35,25,35,TRUE
null,null,psychophysics,386,311058,0.0-3.0-1.188,,key,null,16.65731667,640,288.5,,,,,,,,
249,arrowright,psychophysics,387,311311,0.0-3.0-0.189,,key,arrowright,16.65421429,640,288.5,190,7,-1,25,15,25,35,FALSE
null,null,psychophysics,388,312323,0.0-3.0-1.189,,key,null,16.65255,640,288.5,,,,,,,,
109.5,arrowleft,psychophysics,389,312436,0.0-3.0-0.190,,key,arrowleft,16.6426,640,288.5,191,7,1,23,35,25,35,FALSE
null,null,psychophysics,390,313439,0.0-3.0-1.190,,key,null,16.65486667,640,288.5,,,,,,,,
241,arrowleft,psychophysics,391,313684,0.0-3.0-0.191,,key,arrowleft,16.643,640,288.5,192,7,1,24,15,25,35,FALSE
null,null,psychophysics,392,314687,0.0-3.0-1.191,,key,null,16.65132203,640,288.5,,,,,,,,
486.5,arrowright,psychophysics,393,315179,0.0-3.0-0.192,,key,arrowright,16.65827586,640,288.5,193,7,-1,25,15,25,35,FALSE
null,null,psychophysics,394,316187,0.0-3.0-1.192,,key,null,16.6528,640,288.5,,,,,,,,
1052.8,arrowleft,psychophysics,395,317244,0.0-3.0-0.193,,key,arrowleft,16.65058065,640,288.5,194,7,1,23,15,25,35,FALSE
null,null,psychophysics,396,318250,0.0-3.0-1.193,,key,null,16.6480678,640,288.5,,,,,,,,
285.8,arrowright,psychophysics,397,318540,0.0-3.0-0.194,,key,arrowright,16.65864706,640,288.5,195,7,-1,23,35,25,35,FALSE
null,null,psychophysics,398,319549,0.0-3.0-1.194,,key,null,16.65284746,640,288.5,,,,,,,,
144.9,arrowright,psychophysics,399,319697,0.0-3.0-0.195,,key,arrowright,16.64975,640,288.5,196,8,-1,25,15,25,35,FALSE
null,null,psychophysics,400,320700,0.0-3.0-1.195,,key,null,16.66088333,640,288.5,,,,,,,,
717.4,arrowleft,html-keyboard-response,401,321423,0.0-3.0-2.195-0.195,"<div style=""color: white; text-align: center; vertical-align: top; display: inline-block; width: 800px; margin: auto""><p>You have completed 70% of the trials. You are on block 8 of 10. <br>Good job! Take a break if you need to.</p><p>Press any key to continue the experiment.</p></div>",,,,,,,,,,,,,
929.7,arrowright,psychophysics,402,323380,0.0-3.0-0.196,,key,arrowright,16.65464286,640,288.5,197,8,1,24,15,25,35,TRUE
null,null,psychophysics,403,324395,0.0-3.0-1.196,,key,null,16.65147458,640,288.5,,,,,,,,
407,arrowleft,psychophysics,404,324806,0.0-3.0-0.197,,key,arrowleft,16.65270833,640,288.5,198,8,1,30,15,25,35,FALSE
null,null,psychophysics,405,325812,0.0-3.0-1.197,,key,null,16.65398333,640,288.5,,,,,,,,
272.5,arrowright,psychophysics,406,326088,0.0-3.0-0.198,,key,arrowright,16.66066667,640,288.5,199,8,1,27,35,25,35,TRUE
null,null,psychophysics,407,327094,0.0-3.0-1.198,,key,null,16.65571667,640,288.5,,,,,,,,
375.2,arrowright,psychophysics,408,327473,0.0-3.0-0.199,,key,arrowright,16.65219048,640,288.5,200,8,1,24,35,25,35,TRUE
null,null,psychophysics,409,328476,0.0-3.0-1.199,,key,null,16.65665,640,288.5,,,,,,,,
41.29999995,arrowright,psychophysics,410,328522,0.0-3.0-0.200,,key,arrowright,16.654,640,288.5,201,8,-1,20,15,25,35,FALSE
null,null,psychophysics,411,329525,0.0-3.0-1.200,,key,null,16.65571667,640,288.5,,,,,,,,
253.4,arrowleft,psychophysics,412,329783,0.0-3.0-0.201,,key,arrowleft,16.65471429,640,288.5,202,8,1,30,35,25,35,FALSE
null,null,psychophysics,413,330791,0.0-3.0-1.201,,key,null,16.65171667,640,288.5,,,,,,,,
314.4,arrowright,psychophysics,414,331109,0.0-3.0-0.202,,key,arrowright,16.65333333,640,288.5,203,8,1,25,35,25,35,TRUE
null,null,psychophysics,415,332119,0.0-3.0-1.202,,key,null,16.65338983,640,288.5,,,,,,,,
278,arrowright,psychophysics,416,332399,0.0-3.0-0.203,,key,arrowright,16.65825,640,288.5,204,8,1,26,15,25,35,TRUE
null,null,psychophysics,417,333406,0.0-3.0-1.203,,key,null,16.65133333,640,288.5,,,,,,,,
369.6,arrowright,psychophysics,418,333782,0.0-3.0-0.204,,key,arrowright,16.65485714,640,288.5,205,8,1,23,35,25,35,TRUE
null,null,psychophysics,419,334788,0.0-3.0-1.204,,key,null,16.6543,640,288.5,,,,,,,,
188.2,arrowright,psychophysics,420,334980,0.0-3.0-0.205,,key,arrowright,16.6317,640,288.5,206,8,1,23,35,25,35,TRUE
null,null,psychophysics,421,335987,0.0-3.0-1.205,,key,null,16.65315,640,288.5,,,,,,,,
18.19999999,arrowright,psychophysics,422,336010,0.0-3.0-0.206,,key,arrowright,NaN,640,288.5,207,8,-1,25,35,25,35,FALSE
null,null,psychophysics,423,337019,0.0-3.0-1.206,,key,null,16.65661667,640,288.5,,,,,,,,
93.09999996,arrowleft,psychophysics,424,337117,0.0-3.0-0.207,,key,arrowleft,16.6555,640,288.5,208,8,1,26,35,25,35,FALSE
null,null,psychophysics,425,338119,0.0-3.0-1.207,,key,null,16.6569,640,288.5,,,,,,,,
232.8,arrowleft,psychophysics,426,338355,0.0-3.0-0.208,,key,arrowleft,16.634,640,288.5,209,8,1,20,15,25,35,FALSE
null,null,psychophysics,427,339368,0.0-3.0-1.208,,key,null,16.6537,640,288.5,,,,,,,,
338,arrowright,psychophysics,428,339710,0.0-3.0-0.209,,key,arrowright,16.63710526,640,288.5,210,8,-1,25,15,25,35,FALSE
null,null,psychophysics,429,340716,0.0-3.0-1.209,,key,null,16.65326667,640,288.5,,,,,,,,
347.6,arrowright,psychophysics,430,341066,0.0-3.0-0.210,,key,arrowright,16.64135,640,288.5,211,8,-1,20,35,25,35,FALSE
null,null,psychophysics,431,342081,0.0-3.0-1.210,,key,null,16.64955,640,288.5,,,,,,,,
128.9,arrowright,psychophysics,432,342214,0.0-3.0-0.211,,key,arrowright,16.66516667,640,288.5,212,8,1,26,15,25,35,TRUE
null,null,psychophysics,433,343216,0.0-3.0-1.211,,key,null,16.65625,640,288.5,,,,,,,,
345.5,arrowright,psychophysics,434,343564,0.0-3.0-0.212,,key,arrowright,16.65965,640,288.5,213,8,-1,23,35,25,35,FALSE
null,null,psychophysics,435,344568,0.0-3.0-1.212,,key,null,16.655,640,288.5,,,,,,,,
356.2,arrowright,psychophysics,436,344927,0.0-3.0-0.213,,key,arrowright,16.66245,640,288.5,214,8,1,26,35,25,35,TRUE
null,null,psychophysics,437,345928,0.0-3.0-1.213,,key,null,16.65566667,640,288.5,,,,,,,,
206.7,arrowright,psychophysics,438,346138,0.0-3.0-0.214,,key,arrowright,16.64463636,640,288.5,215,8,-1,27,15,25,35,FALSE
null,null,psychophysics,439,347143,0.0-3.0-1.214,,key,null,16.65337288,640,288.5,,,,,,,,
312.5,arrowleft,psychophysics,440,347466,0.0-3.0-0.215,,key,arrowleft,16.64221053,640,288.5,216,8,-1,23,35,25,35,TRUE
null,null,psychophysics,441,348477,0.0-3.0-1.215,,key,null,16.65083333,640,288.5,,,,,,,,
117.2,arrowright,psychophysics,442,348598,0.0-3.0-0.216,,key,arrowright,16.65683333,640,288.5,217,8,1,25,35,25,35,TRUE
null,null,psychophysics,443,349609,0.0-3.0-1.216,,key,null,16.65125,640,288.5,,,,,,,,
447.1,arrowright,psychophysics,444,350060,0.0-3.0-0.217,,key,arrowright,16.65365385,640,288.5,218,8,1,23,35,25,35,TRUE
null,null,psychophysics,445,351074,0.0-3.0-1.217,,key,null,16.65085,640,288.5,,,,,,,,
90.40000004,arrowright,psychophysics,446,351169,0.0-3.0-0.218,,key,arrowright,16.6645,640,288.5,219,8,-1,27,15,25,35,FALSE
null,null,psychophysics,447,352174,0.0-3.0-1.218,,key,null,16.65608333,640,288.5,,,,,,,,
365,arrowright,psychophysics,448,352543,0.0-3.0-0.219,,key,arrowright,16.63971429,640,288.5,220,8,1,23,35,25,35,TRUE
null,null,psychophysics,449,353555,0.0-3.0-1.219,,key,null,16.6528,640,288.5,,,,,,,,
143.5,arrowright,psychophysics,450,353701,0.0-3.0-0.220,,key,arrowright,16.65771429,640,288.5,221,8,1,30,15,25,35,TRUE
null,null,psychophysics,451,354705,0.0-3.0-1.220,,key,null,16.65721667,640,288.5,,,,,,,,
1035,arrowright,psychophysics,452,355743,0.0-3.0-0.221,,key,arrowright,16.65496721,640,288.5,222,8,-1,23,15,25,35,FALSE
null,null,psychophysics,453,356753,0.0-3.0-1.221,,key,null,16.65691667,640,288.5,,,,,,,,
529.9,arrowright,psychophysics,454,357287,0.0-3.0-0.222,,key,arrowright,16.66441935,640,288.5,223,8,-1,24,15,25,35,FALSE
null,null,psychophysics,455,358301,0.0-3.0-1.222,,key,null,16.65036667,640,288.5,,,,,,,,
583.6,arrowright,psychophysics,456,358889,0.0-3.0-0.223,,key,arrowright,16.65152941,640,288.5,224,9,-1,26,35,25,35,FALSE
null,null,psychophysics,457,359899,0.0-3.0-1.223,,key,null,16.65449153,640,288.5,,,,,,,,
423.6,arrowright,html-keyboard-response,458,360330,0.0-3.0-2.223-0.223,"<div style=""color: white; text-align: center; vertical-align: top; display: inline-block; width: 800px; margin: auto""><p>You have completed 80% of the trials. You are on block 9 of 10. <br>Good job! Take a break if you need to.</p><p>Press any key to continue the experiment.</p></div>",,,,,,,,,,,,,
279.9,arrowleft,psychophysics,459,361634,0.0-3.0-0.224,,key,arrowleft,16.66823529,640,288.5,225,9,1,25,15,25,35,FALSE
null,null,psychophysics,460,362648,0.0-3.0-1.224,,key,null,16.65141667,640,288.5,,,,,,,,
549.8,arrowright,psychophysics,461,363201,0.0-3.0-0.225,,key,arrowright,16.649125,640,288.5,226,9,1,25,15,25,35,TRUE
null,null,psychophysics,462,364208,0.0-3.0-1.225,,key,null,16.65323729,640,288.5,,,,,,,,
188.1,arrowright,psychophysics,463,364399,0.0-3.0-0.226,,key,arrowright,16.64872727,640,288.5,227,9,-1,26,15,25,35,FALSE
null,null,psychophysics,464,365413,0.0-3.0-1.226,,key,null,16.65271667,640,288.5,,,,,,,,
85.5,arrowright,psychophysics,465,365502,0.0-3.0-0.227,,key,arrowright,16.65175,640,288.5,228,9,1,20,15,25,35,TRUE
null,null,psychophysics,466,366512,0.0-3.0-1.227,,key,null,16.65138333,640,288.5,,,,,,,,
45.59999996,arrowright,psychophysics,467,366561,0.0-3.0-0.228,,key,arrowright,16.4615,640,288.5,229,9,1,20,35,25,35,TRUE
null,null,psychophysics,468,367577,0.0-3.0-1.228,,key,null,16.65145,640,288.5,,,,,,,,
50.39999998,arrowright,psychophysics,469,367631,0.0-3.0-0.229,,key,arrowright,16.592,640,288.5,230,9,-1,25,15,25,35,FALSE
null,null,psychophysics,470,368642,0.0-3.0-1.229,,key,null,16.65183051,640,288.5,,,,,,,,
178.1,arrowleft,psychophysics,471,368825,0.0-3.0-0.230,,key,arrowleft,16.6353,640,288.5,231,9,1,30,15,25,35,FALSE
null,null,psychophysics,472,369827,0.0-3.0-1.230,,key,null,16.65318333,640,288.5,,,,,,,,
303.8,arrowright,psychophysics,473,370139,0.0-3.0-0.231,,key,arrowright,16.66494118,640,288.5,232,9,-1,30,15,25,35,FALSE
null,null,psychophysics,474,371141,0.0-3.0-1.231,,key,null,16.6546,640,288.5,,,,,,,,
296.5,arrowleft,psychophysics,475,371441,0.0-3.0-0.232,,key,arrowleft,16.64423529,640,288.5,233,9,1,30,15,25,35,FALSE
null,null,psychophysics,476,372457,0.0-3.0-1.232,,key,null,16.65378333,640,288.5,,,,,,,,
429.8,arrowright,psychophysics,477,372891,0.0-3.0-0.233,,key,arrowright,16.64808,640,288.5,234,9,1,24,15,25,35,TRUE
null,null,psychophysics,478,373898,0.0-3.0-1.233,,key,null,16.6540678,640,288.5,,,,,,,,
524.5,arrowright,psychophysics,479,374432,0.0-3.0-0.234,,key,arrowright,16.64851613,640,288.5,235,9,1,23,15,25,35,TRUE
null,null,psychophysics,480,375437,0.0-3.0-1.234,,key,null,16.65266667,640,288.5,,,,,,,,
110.6,arrowright,psychophysics,481,375550,0.0-3.0-0.235,,key,arrowright,16.6616,640,288.5,236,9,1,27,35,25,35,TRUE
null,null,psychophysics,482,376553,0.0-3.0-1.235,,key,null,16.65531667,640,288.5,,,,,,,,
350.1,arrowright,psychophysics,483,376907,0.0-3.0-0.236,,key,arrowright,16.64885,640,288.5,237,9,1,24,35,25,35,TRUE
null,null,psychophysics,484,377917,0.0-3.0-1.236,,key,null,16.64979661,640,288.5,,,,,,,,
332.5,arrowright,psychophysics,485,378256,0.0-3.0-0.237,,key,arrowright,16.64065,640,288.5,238,9,1,25,35,25,35,TRUE
null,null,psychophysics,486,379268,0.0-3.0-1.237,,key,null,16.6538,640,288.5,,,,,,,,
248.3,arrowright,psychophysics,487,379520,0.0-3.0-0.238,,key,arrowright,16.65485714,640,288.5,239,9,1,24,15,25,35,TRUE
null,null,psychophysics,488,380527,0.0-3.0-1.238,,key,null,16.65269492,640,288.5,,,,,,,,
127.3,arrowright,psychophysics,489,380658,0.0-3.0-0.239,,key,arrowright,16.64914286,640,288.5,240,9,-1,25,15,25,35,FALSE
null,null,psychophysics,490,381665,0.0-3.0-1.239,,key,null,16.65315,640,288.5,,,,,,,,
485,arrowright,psychophysics,491,382153,0.0-3.0-0.240,,key,arrowright,16.65757143,640,288.5,241,9,-1,30,35,25,35,FALSE
null,null,psychophysics,492,383163,0.0-3.0-1.240,,key,null,16.65594915,640,288.5,,,,,,,,
43.5,arrowright,psychophysics,493,383213,0.0-3.0-0.241,,key,arrowright,16.6915,640,288.5,242,9,1,26,15,25,35,TRUE
null,null,psychophysics,494,384229,0.0-3.0-1.241,,key,null,16.65448333,640,288.5,,,,,,,,
418.6,arrowright,psychophysics,495,384654,0.0-3.0-0.242,,key,arrowright,16.65692,640,288.5,243,9,1,25,15,25,35,TRUE
null,null,psychophysics,496,385663,0.0-3.0-1.242,,key,null,16.65311667,640,288.5,,,,,,,,
343.8,arrowright,psychophysics,497,386010,0.0-3.0-0.243,,key,arrowright,16.63763158,640,288.5,244,9,1,30,35,25,35,TRUE
null,null,psychophysics,498,387024,0.0-3.0-1.243,,key,null,16.65305,640,288.5,,,,,,,,
470.5,arrowright,psychophysics,499,387496,0.0-3.0-0.244,,key,arrowright,16.65278571,640,288.5,245,9,-1,24,15,25,35,FALSE
null,null,psychophysics,500,388510,0.0-3.0-1.244,,key,null,16.65435,640,288.5,,,,,,,,
317,arrowright,psychophysics,501,388831,0.0-3.0-0.245,,key,arrowright,16.64638889,640,288.5,246,9,-1,24,15,25,35,FALSE
null,null,psychophysics,502,389842,0.0-3.0-1.245,,key,null,16.65033333,640,288.5,,,,,,,,
290.9,arrowright,psychophysics,503,390137,0.0-3.0-0.246,,key,arrowright,16.646125,640,288.5,247,9,-1,30,15,25,35,FALSE
null,null,psychophysics,504,391140,0.0-3.0-1.246,,key,null,16.65484746,640,288.5,,,,,,,,
320.3,arrowright,psychophysics,505,391464,0.0-3.0-0.247,,key,arrowright,16.66978947,640,288.5,248,9,-1,23,35,25,35,FALSE
null,null,psychophysics,506,392474,0.0-3.0-1.247,,key,null,16.6534,640,288.5,,,,,,,,
422.9,arrowright,psychophysics,507,392900,0.0-3.0-0.248,,key,arrowright,16.66875,640,288.5,249,9,-1,26,15,25,35,FALSE
null,null,psychophysics,508,393905,0.0-3.0-1.248,,key,null,16.65289831,640,288.5,,,,,,,,
342.4,arrowright,psychophysics,509,394253,0.0-3.0-0.249,,key,arrowright,16.65115,640,288.5,250,9,-1,30,35,25,35,FALSE
null,null,psychophysics,510,395271,0.0-3.0-1.249,,key,null,16.65252459,640,288.5,,,,,,,,
244.9,arrowright,psychophysics,511,395520,0.0-3.0-0.250,,key,arrowright,16.645,640,288.5,251,9,1,25,15,25,35,TRUE
null,null,psychophysics,512,396536,0.0-3.0-1.250,,key,null,16.65601667,640,288.5,,,,,,,,
653.4,arrowright,psychophysics,513,397197,0.0-3.0-0.251,,key,arrowright,16.6495641,640,288.5,252,10,1,24,15,25,35,TRUE
null,null,psychophysics,514,398202,0.0-3.0-1.251,,key,null,16.65193333,640,288.5,,,,,,,,
1706.9, ,html-keyboard-response,515,399917,0.0-3.0-2.251-0.251,"<div style=""color: white; text-align: center; vertical-align: top; display: inline-block; width: 800px; margin: auto""><p>You have completed 90% of the trials. You are on block 10 of 10. <br>Good job! Take a break if you need to.</p><p>Press any key to continue the experiment.</p></div>",,,,,,,,,,,,,
1156.5,arrowright,psychophysics,516,402100,0.0-3.0-0.252,,key,arrowright,16.65665714,640,288.5,253,10,1,27,35,25,35,TRUE
null,null,psychophysics,517,403115,0.0-3.0-1.252,,key,null,16.65431667,640,288.5,,,,,,,,
270.2,arrowright,psychophysics,518,403390,0.0-3.0-0.253,,key,arrowright,16.6436,640,288.5,254,10,1,25,35,25,35,TRUE
null,null,psychophysics,519,404397,0.0-3.0-1.253,,key,null,16.65308333,640,288.5,,,,,,,,
44.10000002,arrowleft,psychophysics,520,404444,0.0-3.0-0.254,,key,arrowleft,16.451,640,288.5,255,10,-1,27,15,25,35,TRUE
null,null,psychophysics,521,405446,0.0-3.0-1.254,,key,null,16.6548,640,288.5,,,,,,,,
502.8,arrowright,psychophysics,522,405952,0.0-3.0-0.255,,key,arrowright,16.6562069,640,288.5,256,10,1,26,35,25,35,TRUE
null,null,psychophysics,523,406962,0.0-3.0-1.255,,key,null,16.65093333,640,288.5,,,,,,,,
281.9,arrowright,psychophysics,524,407247,0.0-3.0-0.256,,key,arrowright,16.6595,640,288.5,257,10,-1,30,15,25,35,FALSE
null,null,psychophysics,525,408259,0.0-3.0-1.256,,key,null,16.65684746,640,288.5,,,,,,,,
362.1,arrowright,psychophysics,526,408627,0.0-3.0-0.257,,key,arrowright,16.65463636,640,288.5,258,10,-1,20,35,25,35,FALSE
null,null,psychophysics,527,409643,0.0-3.0-1.257,,key,null,16.65488333,640,288.5,,,,,,,,
33.29999995,arrowleft,psychophysics,528,409680,0.0-3.0-0.258,,key,arrowleft,16.639,640,288.5,259,10,-1,20,15,25,35,TRUE
null,null,psychophysics,529,410692,0.0-3.0-1.258,,key,null,16.65078333,640,288.5,,,,,,,,
313.9,arrowright,psychophysics,530,411010,0.0-3.0-0.259,,key,arrowright,16.667,640,288.5,260,10,-1,23,15,25,35,FALSE
null,null,psychophysics,531,412025,0.0-3.0-1.259,,key,null,16.653,640,288.5,,,,,,,,
455.1,arrowright,psychophysics,532,412483,0.0-3.0-0.260,,key,arrowright,16.65392308,640,288.5,261,10,-1,26,15,25,35,FALSE
null,null,psychophysics,533,413489,0.0-3.0-1.260,,key,null,16.65772881,640,288.5,,,,,,,,
266.2,arrowright,psychophysics,534,413761,0.0-3.0-0.261,,key,arrowright,16.6544375,640,288.5,262,10,1,20,35,25,35,TRUE
null,null,psychophysics,535,414771,0.0-3.0-1.261,,key,null,16.65056667,640,288.5,,,,,,,,
2.400000036,arrowright,psychophysics,536,414776,0.0-3.0-0.262,,key,arrowright,NaN,640,288.5,263,10,-1,24,35,25,35,FALSE
null,null,psychophysics,537,415788,0.0-3.0-1.262,,key,null,16.65418333,640,288.5,,,,,,,,
351.3,arrowright,psychophysics,538,416144,0.0-3.0-0.263,,key,arrowright,16.6554,640,288.5,264,10,1,23,15,25,35,TRUE
null,null,psychophysics,539,417153,0.0-3.0-1.263,,key,null,16.6514,640,288.5,,,,,,,,
411.3,arrowleft,psychophysics,540,417568,0.0-3.0-0.264,,key,arrowleft,16.64591304,640,288.5,265,10,1,30,15,25,35,FALSE
null,null,psychophysics,541,418570,0.0-3.0-1.264,,key,null,16.6618,640,288.5,,,,,,,,
374,arrowright,psychophysics,542,418946,0.0-3.0-0.265,,key,arrowright,16.66042857,640,288.5,266,10,1,25,15,25,35,TRUE
null,null,psychophysics,543,419950,0.0-3.0-1.265,,key,null,16.65110169,640,288.5,,,,,,,,
360.4,arrowright,psychophysics,544,420315,0.0-3.0-0.266,,key,arrowright,16.64995238,640,288.5,267,10,-1,30,15,25,35,FALSE
null,null,psychophysics,545,421317,0.0-3.0-1.266,,key,null,16.65475,640,288.5,,,,,,,,
395.4,arrowright,psychophysics,546,421717,0.0-3.0-0.267,,key,arrowright,16.6503913,640,288.5,268,10,-1,25,15,25,35,FALSE
null,null,psychophysics,547,422732,0.0-3.0-1.267,,key,null,16.65253333,640,288.5,,,,,,,,
819.5,arrowleft,psychophysics,548,423555,0.0-3.0-0.268,,key,arrowleft,16.65660417,640,288.5,269,10,1,20,15,25,35,FALSE
null,null,psychophysics,549,424564,0.0-3.0-1.268,,key,null,16.6546,640,288.5,,,,,,,,
763.7,arrowright,psychophysics,550,425332,0.0-3.0-0.269,,key,arrowright,16.66195556,640,288.5,270,10,1,27,15,25,35,TRUE
null,null,psychophysics,551,426338,0.0-3.0-1.269,,key,null,16.65527119,640,288.5,,,,,,,,
1475.8,arrowright,psychophysics,552,427817,0.0-3.0-0.270,,key,arrowright,16.65160227,640,288.5,271,10,1,27,35,25,35,TRUE
null,null,psychophysics,553,428827,0.0-3.0-1.270,,key,null,16.65515,640,288.5,,,,,,,,
324.5,arrowleft,psychophysics,554,429155,0.0-3.0-0.271,,key,arrowleft,16.65116667,640,288.5,272,10,-1,27,15,25,35,TRUE
null,null,psychophysics,555,430175,0.0-3.0-1.271,,key,null,16.65391667,640,288.5,,,,,,,,
698.6,arrowright,psychophysics,556,430877,0.0-3.0-0.272,,key,arrowright,16.65607143,640,288.5,273,10,1,25,15,25,35,TRUE
null,null,psychophysics,557,431891,0.0-3.0-1.272,,key,null,16.65246667,640,288.5,,,,,,,,
966.1,arrowright,psychophysics,558,432861,0.0-3.0-0.273,,key,arrowright,16.65321053,640,288.5,274,10,-1,20,35,25,35,FALSE
null,null,psychophysics,559,433872,0.0-3.0-1.273,,key,null,16.65172881,640,288.5,,,,,,,,
936.5,arrowleft,psychophysics,560,434814,0.0-3.0-0.274,,key,arrowleft,16.65298214,640,288.5,275,10,-1,25,35,25,35,TRUE
null,null,psychophysics,561,435820,0.0-3.0-1.274,,key,null,16.65555932,640,288.5,,,,,,,,
493.4,arrowright,psychophysics,562,436319,0.0-3.0-0.275,,key,arrowright,16.65662069,640,288.5,276,10,-1,24,35,25,35,FALSE
null,null,psychophysics,563,437321,0.0-3.0-1.275,,key,null,16.65411667,640,288.5,,,,,,,,
522.8,arrowright,psychophysics,564,437847,0.0-3.0-0.276,,key,arrowright,16.65036667,640,288.5,277,10,1,20,35,25,35,TRUE
null,null,psychophysics,565,438852,0.0-3.0-1.276,,key,null,16.65218333,640,288.5,,,,,,,,
500.8,arrowright,psychophysics,566,439357,0.0-3.0-0.277,,key,arrowright,16.64837931,640,288.5,278,10,-1,30,15,25,35,FALSE
null,null,psychophysics,567,440374,0.0-3.0-1.277,,key,null,16.6539,640,288.5,,,,,,,,
718.6,arrowright,psychophysics,568,441095,0.0-3.0-0.278,,key,arrowright,16.64702381,640,288.5,279,10,1,30,35,25,35,TRUE
null,null,psychophysics,569,442099,0.0-3.0-1.278,,key,null,16.65323333,640,288.5,,,,,,,,
556.2,arrowright,psychophysics,570,442658,0.0-3.0-0.279,,key,arrowright,16.6543125,640,288.5,280,11,-1,27,35,25,35,FALSE
null,null,psychophysics,571,443664,0.0-3.0-1.279,,key,null,16.65125,640,288.5,,,,,,,,
