"rt","response","trial_type","trial_index","time_elapsed","internal_node_id","stimulus","response_type","key_press","avg_frame_time","center_x","center_y","trial","block","test_pos","test_inner_radius","test_outer_radius","ref_inner_radius","ref_outer_radius","test_bigger"
"9180.099999904633","{""p_id"":""6160"",""age"":""19"",""handedness"":""right"",""sex"":""female"",""other_sex"":""""}","survey-html-form","0","9182","0.0-0.0","","","","","","","","","","","","","",""
"14246"," ","html-keyboard-response","1","23429","0.0-1.0","<p style=""color: white"">Welcome to the Size Judgment Experiment. <br>There will be 10 blocks in this experiment. <br>There will be 28 trials in each block. <br>You will be given a chance to take a break between blocks. <br>Press any key to start the experiment.</p>","","","","","","","","","","","","",""
"10222.800000190735"," ","psychophysics","2","33668","0.0-2.0","","key"," ","16.686680781758955","640","284.5","","","","","","","",""
"135569.29999995232","arrowright","psychophysics","3","169231","0.0-3.0-0.0","","key","arrowright","16.657517817645612","640","284.5","1","1","1","23","15","25","35","true"
"null","null","psychophysics","4","170242","0.0-3.0-1.0","","key","null","16.66030508474599","640","284.5","","","","","","","",""
"3613.2000000476837","arrowright","psychophysics","5","173862","0.0-3.0-0.1","","key","arrowright","16.65757603686644","640","284.5","2","1","-1","26","15","25","35","false"
"null","null","psychophysics","6","174879","0.0-3.0-1.1","","key","null","16.655576271186504","640","284.5","","","","","","","",""
"1557.1999998092651","arrowright","psychophysics","7","176443","0.0-3.0-0.2","","key","arrowright","16.656763440860193","640","284.5","3","1","1","23","15","25","35","true"
"null","null","psychophysics","8","177446","0.0-3.0-1.2","","key","null","16.66291525423718","640","284.5","","","","","","","",""
"1335.7000000476837","arrowright","psychophysics","9","178789","0.0-3.0-0.3","","key","arrowright","16.648237500000324","640","284.5","4","1","1","27","15","25","35","true"
"null","null","psychophysics","10","179794","0.0-3.0-1.3","","key","null","16.633271186440883","640","284.5","","","","","","","",""
"2304.2999999523163","arrowright","psychophysics","11","182103","0.0-3.0-0.4","","key","arrowright","16.65721739130453","640","284.5","5","1","1","27","35","25","35","true"
"null","null","psychophysics","12","183108","0.0-3.0-1.4","","key","null","16.657830508474174","640","284.5","","","","","","","",""
"350.5","arrowright","psychophysics","13","183465","0.0-3.0-0.5","","key","arrowright","16.657619047618937","640","284.5","6","1","1","24","15","25","35","true"
"null","null","psychophysics","14","184474","0.0-3.0-1.5","","key","null","16.65761016949151","640","284.5","","","","","","","",""
"2429.9000000953674","arrowright","psychophysics","15","186910","0.0-3.0-0.6","","key","arrowright","16.6591986301371","640","284.5","7","1","1","25","35","25","35","true"
"null","null","psychophysics","16","187922","0.0-3.0-1.6","","key","null","16.65861016949116","640","284.5","","","","","","","",""
"1383.7999999523163","arrowright","psychophysics","17","189312","0.0-3.0-0.7","","key","arrowright","16.658301204819224","640","284.5","8","1","1","26","15","25","35","true"
"null","null","psychophysics","18","190321","0.0-3.0-1.7","","key","null","16.65694915254253","640","284.5","","","","","","","",""
"1291.5","arrowright","psychophysics","19","191618","0.0-3.0-0.8","","key","arrowright","16.66000000000009","640","284.5","9","1","1","20","15","25","35","true"
"null","null","psychophysics","20","192620","0.0-3.0-1.8","","key","null","16.658711864406804","640","284.5","","","","","","","",""
"1068.8999998569489","arrowright","psychophysics","21","193694","0.0-3.0-0.9","","key","arrowright","16.65528125000037","640","284.5","10","1","-1","26","35","25","35","false"
"null","null","psychophysics","22","194702","0.0-3.0-1.9","","key","null","16.657813559321813","640","284.5","","","","","","","",""
"872.2999999523163","arrowright","psychophysics","23","195581","0.0-3.0-0.10","","key","arrowright","16.657096153846048","640","284.5","11","1","-1","26","15","25","35","false"
"null","null","psychophysics","24","196586","0.0-3.0-1.10","","key","null","16.659249999999883","640","284.5","","","","","","","",""
"1012.8999998569489","arrowright","psychophysics","25","197602","0.0-3.0-0.11","","key","arrowright","16.653800000000047","640","284.5","12","1","-1","27","15","25","35","false"
"null","null","psychophysics","26","198611","0.0-3.0-1.11","","key","null","16.657576271186294","640","284.5","","","","","","","",""
"622","arrowright","psychophysics","27","199236","0.0-3.0-0.12","","key","arrowright","16.65645945945997","640","284.5","13","1","1","20","35","25","35","true"
"null","null","psychophysics","28","200245","0.0-3.0-1.12","","key","null","16.656508474576217","640","284.5","","","","","","","",""
"453.2999999523163","arrowright","psychophysics","29","200710","0.0-3.0-0.13","","key","arrowright","16.6359259259264","640","284.5","14","1","-1","20","35","25","35","false"
"null","null","psychophysics","30","201714","0.0-3.0-1.13","","key","null","16.652830508474942","640","284.5","","","","","","","",""
"724.9000000953674","arrowright","psychophysics","31","202442","0.0-3.0-0.14","","key","arrowright","16.658325581395115","640","284.5","15","1","-1","25","15","25","35","false"
"null","null","psychophysics","32","203447","0.0-3.0-1.14","","key","null","16.655830508474384","640","284.5","","","","","","","",""
"465.40000009536743","arrowright","psychophysics","33","203918","0.0-3.0-0.15","","key","arrowright","16.65260714285666","640","284.5","16","1","-1","24","15","25","35","false"
"null","null","psychophysics","34","204930","0.0-3.0-1.15","","key","null","16.657372881355993","640","284.5","","","","","","","",""
"402.40000009536743","arrowright","psychophysics","35","205344","0.0-3.0-0.16","","key","arrowright","16.655291666667228","640","284.5","17","1","-1","23","15","25","35","false"
"null","null","psychophysics","36","206346","0.0-3.0-1.16","","key","null","16.65976271186452","640","284.5","","","","","","","",""
"387","arrowright","psychophysics","37","206738","0.0-3.0-0.17","","key","arrowright","16.656434782608613","640","284.5","18","1","1","24","35","25","35","true"
"null","null","psychophysics","38","207745","0.0-3.0-1.17","","key","null","16.656440677965787","640","284.5","","","","","","","",""
"310.69999980926514","arrowright","psychophysics","39","208061","0.0-3.0-0.18","","key","arrowright","16.657499999999548","640","284.5","19","1","-1","23","15","25","35","false"
"null","null","psychophysics","40","209072","0.0-3.0-1.18","","key","null","16.659066666666572","640","284.5","","","","","","","",""
"95.90000009536743","arrowright","psychophysics","41","209171","0.0-3.0-0.19","","key","arrowright","16.622999999998136","640","284.5","20","1","-1","27","15","25","35","false"
"null","null","psychophysics","42","210177","0.0-3.0-1.19","","key","null","16.65854237288122","640","284.5","","","","","","","",""
"977.0999999046326","arrowright","psychophysics","43","211160","0.0-3.0-0.20","","key","arrowright","16.65453448275893","640","284.5","21","1","1","30","15","25","35","true"
"null","null","psychophysics","44","212167","0.0-3.0-1.20","","key","null","16.658866666666775","640","284.5","","","","","","","",""
"366.10000014305115","arrowright","psychophysics","45","212536","0.0-3.0-0.21","","key","arrowright","16.6583333333325","640","284.5","22","1","-1","25","35","25","35","false"
"null","null","psychophysics","46","213542","0.0-3.0-1.21","","key","null","16.657338983050778","640","284.5","","","","","","","",""
"357.7999999523163","arrowright","psychophysics","47","213905","0.0-3.0-0.22","","key","arrowright","16.65604761904771","640","284.5","23","1","-1","25","15","25","35","false"
"null","null","psychophysics","48","214907","0.0-3.0-1.22","","key","null","16.65744067796642","640","284.5","","","","","","","",""
"344.90000009536743","arrowright","psychophysics","49","215263","0.0-3.0-0.23","","key","arrowright","16.668047619048075","640","284.5","24","1","-1","24","35","25","35","false"
"null","null","psychophysics","50","216275","0.0-3.0-1.23","","key","null","16.659183333333445","640","284.5","","","","","","","",""
"343.7000000476837","arrowright","psychophysics","51","216622","0.0-3.0-0.24","","key","arrowright","16.656789473683794","640","284.5","25","1","1","24","35","25","35","true"
"null","null","psychophysics","52","217624","0.0-3.0-1.24","","key","null","16.66048333333359","640","284.5","","","","","","","",""
"338.80000019073486","arrowright","psychophysics","53","217966","0.0-3.0-0.25","","key","arrowright","16.65684210526371","640","284.5","26","1","1","26","35","25","35","true"
"null","null","psychophysics","54","218972","0.0-3.0-1.25","","key","null","16.654508474576424","640","284.5","","","","","","","",""
"261.09999990463257","arrowright","psychophysics","55","219245","0.0-3.0-0.26","","key","arrowright","16.65368750000016","640","284.5","27","1","-1","20","35","25","35","false"
"null","null","psychophysics","56","220254","0.0-3.0-1.26","","key","null","16.658118644067763","640","284.5","","","","","","","",""
"201.89999985694885","arrowright","psychophysics","57","220459","0.0-3.0-0.27","","key","arrowright","16.658083333335526","640","284.5","28","2","-1","24","15","25","35","false"
"null","null","psychophysics","58","221470","0.0-3.0-1.27","","key","null","16.657338983050778","640","284.5","","","","","","","",""
"194.29999995231628","arrowright","html-keyboard-response","59","221666","0.0-3.0-2.27-0.27","<div style=""color: white; text-align: center; vertical-align: top; display: inline-block; width: 800px; margin: auto""><p>You have completed 10% of the trials. You are on block 2 of 10. <br>Good job! Take a break if you need to.</p><p>Press any key to continue the experiment.</p></div>","","","","","","","","","","","","",""
"2785.399999856949","arrowright","psychophysics","60","225474","0.0-3.0-0.28","","key","arrowright","16.67517261904764","640","284.5","29","2","-1","26","35","25","35","false"
"null","null","psychophysics","61","226487","0.0-3.0-1.28","","key","null","16.657338983050778","640","284.5","","","","","","","",""
"234.90000009536743","arrowright","psychophysics","62","226730","0.0-3.0-0.29","","key","arrowright","16.663857142856745","640","284.5","30","2","-1","24","35","25","35","false"
"null","null","psychophysics","63","227738","0.0-3.0-1.29","","key","null","16.658000000000175","640","284.5","","","","","","","",""
"137.20000004768372","arrowright","psychophysics","64","227878","0.0-3.0-0.30","","key","arrowright","16.65828571428678","640","284.5","31","2","-1","30","15","25","35","false"
"null","null","psychophysics","65","228886","0.0-3.0-1.30","","key","null","16.657338983051268","640","284.5","","","","","","","",""
"119.10000014305115","arrowright","psychophysics","66","229011","0.0-3.0-0.31","","key","arrowright","16.657285714285017","640","284.5","32","2","1","23","35","25","35","true"
"null","null","psychophysics","67","230019","0.0-3.0-1.31","","key","null","16.65727118644084","640","284.5","","","","","","","",""
"94.30000019073486","arrowright","psychophysics","68","230119","0.0-3.0-0.32","","key","arrowright","16.66120000000228","640","284.5","33","2","1","20","35","25","35","true"
"null","null","psychophysics","69","231135","0.0-3.0-1.32","","key","null","16.659016666666624","640","284.5","","","","","","","",""
"27.200000047683716","arrowright","psychophysics","70","231168","0.0-3.0-0.33","","key","arrowright","16.661999999982072","640","284.5","34","2","-1","24","15","25","35","false"
"null","null","psychophysics","71","232170","0.0-3.0-1.33","","key","null","16.6613333333337","640","284.5","","","","","","","",""
"45.59999990463257","arrowright","psychophysics","72","232219","0.0-3.0-0.34","","key","arrowright","16.555500000002212","640","284.5","35","2","1","26","35","25","35","true"
"null","null","psychophysics","73","233235","0.0-3.0-1.34","","key","null","16.65761666666658","640","284.5","","","","","","","",""
"105.29999995231628","arrowright","psychophysics","74","233343","0.0-3.0-0.35","","key","arrowright","16.65800000000163","640","284.5","36","2","1","25","35","25","35","true"
"null","null","psychophysics","75","234350","0.0-3.0-1.35","","key","null","16.65735593220363","640","284.5","","","","","","","",""
"4.3999998569488525","arrowright","psychophysics","76","234365","0.0-3.0-0.36","","key","arrowright","NaN","640","284.5","37","2","1","30","15","25","35","true"
"null","null","psychophysics","77","235382","0.0-3.0-1.36","","key","null","16.659033333333596","640","284.5","","","","","","","",""
"70.39999985694885","arrowright","psychophysics","78","235456","0.0-3.0-0.37","","key","arrowright","16.691249999996217","640","284.5","38","2","1","20","35","25","35","true"
"null","null","psychophysics","79","236469","0.0-3.0-1.37","","key","null","16.657283333332938","640","284.5","","","","","","","",""
"161.29999995231628","arrowright","psychophysics","80","236633","0.0-3.0-0.38","","key","arrowright","16.65662499999962","640","284.5","39","2","1","25","15","25","35","true"
"null","null","psychophysics","81","237635","0.0-3.0-1.38","","key","null","16.660416666666666","640","284.5","","","","","","","",""
"216.39999985694885","arrowright","psychophysics","82","237855","0.0-3.0-0.39","","key","arrowright","16.65824999999798","640","284.5","40","2","1","30","35","25","35","true"
"null","null","psychophysics","83","238866","0.0-3.0-1.39","","key","null","16.656898305084955","640","284.5","","","","","","","",""
"212.29999995231628","arrowright","psychophysics","84","239084","0.0-3.0-0.40","","key","arrowright","16.651923076923524","640","284.5","41","2","1","25","35","25","35","true"
"null","null","psychophysics","85","240100","0.0-3.0-1.40","","key","null","16.657333333333373","640","284.5","","","","","","","",""
"141.59999990463257","arrowright","psychophysics","86","240245","0.0-3.0-0.41","","key","arrowright","16.656428571428737","640","284.5","42","2","1","25","35","25","35","true"
"null","null","psychophysics","87","241249","0.0-3.0-1.41","","key","null","16.65744067796642","640","284.5","","","","","","","",""
"210","arrowright","psychophysics","88","241465","0.0-3.0-0.42","","key","arrowright","16.657583333333605","640","284.5","43","2","1","25","15","25","35","true"
"null","null","psychophysics","89","242481","0.0-3.0-1.42","","key","null","16.65965000000045","640","284.5","","","","","","","",""
"161.89999985694885","arrowright","psychophysics","90","242649","0.0-3.0-0.43","","key","arrowright","16.647900000002117","640","284.5","44","2","-1","30","35","25","35","false"
"null","null","psychophysics","91","243664","0.0-3.0-1.43","","key","null","16.657237288135626","640","284.5","","","","","","","",""
"238.40000009536743","arrowright","psychophysics","92","243908","0.0-3.0-0.44","","key","arrowright","16.65735714285776","640","284.5","45","2","1","25","35","25","35","true"
"null","null","psychophysics","93","244913","0.0-3.0-1.44","","key","null","16.657423728813566","640","284.5","","","","","","","",""
"246","arrowright","psychophysics","94","245164","0.0-3.0-0.45","","key","arrowright","16.64293333333335","640","284.5","46","2","-1","23","15","25","35","false"
"null","null","psychophysics","95","246179","0.0-3.0-1.45","","key","null","16.65771186440666","640","284.5","","","","","","","",""
"195.79999995231628","arrowright","psychophysics","96","246381","0.0-3.0-0.46","","key","arrowright","16.6507500000007","640","284.5","47","2","1","30","35","25","35","true"
"null","null","psychophysics","97","247395","0.0-3.0-1.46","","key","null","16.657406779661205","640","284.5","","","","","","","",""
"151.5","arrowright","psychophysics","98","247552","0.0-3.0-0.47","","key","arrowright","16.659555555554107","640","284.5","48","2","1","26","35","25","35","true"
"null","null","psychophysics","99","248561","0.0-3.0-1.47","","key","null","16.65745762711878","640","284.5","","","","","","","",""
"341.7000000476837","arrowright","psychophysics","100","248909","0.0-3.0-0.48","","key","arrowright","16.656600000000616","640","284.5","49","2","1","25","15","25","35","true"
"null","null","psychophysics","101","249910","0.0-3.0-1.48","","key","null","16.65959322033894","640","284.5","","","","","","","",""
"435.09999990463257","arrowright","psychophysics","102","250351","0.0-3.0-0.49","","key","arrowright","16.657423076922825","640","284.5","50","2","-1","26","35","25","35","false"
"null","null","psychophysics","103","251359","0.0-3.0-1.49","","key","null","16.657305084746056","640","284.5","","","","","","","",""
"314.5","arrowright","psychophysics","104","251680","0.0-3.0-0.50","","key","arrowright","16.65700000000039","640","284.5","51","2","1","24","35","25","35","true"
"null","null","psychophysics","105","252692","0.0-3.0-1.50","","key","null","16.65788135593175","640","284.5","","","","","","","",""
"352.5","arrowright","psychophysics","106","253050","0.0-3.0-0.51","","key","arrowright","16.656666666667054","640","284.5","52","2","-1","30","35","25","35","false"
"null","null","psychophysics","107","254059","0.0-3.0-1.51","","key","null","16.65456666666675","640","284.5","","","","","","","",""
"462","arrowright","psychophysics","108","254524","0.0-3.0-0.52","","key","arrowright","16.66580769230831","640","284.5","53","2","1","20","15","25","35","true"
"null","null","psychophysics","109","255542","0.0-3.0-1.52","","key","null","16.65967213114739","640","284.5","","","","","","","",""
"3839.399999856949","arrowright","psychophysics","110","259385","0.0-3.0-0.53","","key","arrowright","16.657545851528422","640","284.5","54","2","1","27","15","25","35","true"
"null","null","psychophysics","111","260389","0.0-3.0-1.53","","key","null","16.657316666666883","640","284.5","","","","","","","",""
"65.30000019073486","arrowright","psychophysics","112","260458","0.0-3.0-0.54","","key","arrowright","16.58833333332829","640","284.5","55","2","-1","25","15","25","35","false"
"null","null","psychophysics","113","261472","0.0-3.0-1.54","","key","null","16.655750000000506","640","284.5","","","","","","","",""
"57.09999990463257","arrowright","psychophysics","114","261532","0.0-3.0-0.55","","key","arrowright","16.677499999990687","640","284.5","56","3","1","23","15","25","35","true"
"null","null","psychophysics","115","262537","0.0-3.0-1.55","","key","null","16.659830508474457","640","284.5","","","","","","","",""
"38995.800000190735"," ","html-keyboard-response","116","301529","0.0-3.0-2.55-0.55","<div style=""color: white; text-align: center; vertical-align: top; display: inline-block; width: 800px; margin: auto""><p>You have completed 20% of the trials. You are on block 3 of 10. <br>Good job! Take a break if you need to.</p><p>Press any key to continue the experiment.</p></div>","","","","","","","","","","","","",""
"2337.0999999046326","arrowright","psychophysics","117","304881","0.0-3.0-0.56","","key","arrowright","16.73909999999991","640","284.5","57","3","-1","27","35","25","35","false"
"null","null","psychophysics","118","305893","0.0-3.0-1.56","","key","null","16.65578333333348","640","284.5","","","","","","","",""
"487.59999990463257","arrowright","psychophysics","119","306383","0.0-3.0-0.57","","key","arrowright","16.663392857143272","640","284.5","58","3","-1","26","35","25","35","false"
"null","null","psychophysics","120","307392","0.0-3.0-1.57","","key","null","16.656916666666316","640","284.5","","","","","","","",""
"3714.600000143051","arrowright","psychophysics","121","311111","0.0-3.0-0.58","","key","arrowright","16.657486486486484","640","284.5","59","3","-1","23","35","25","35","false"
"null","null","psychophysics","122","312123","0.0-3.0-1.58","","key","null","16.657950000000223","640","284.5","","","","","","","",""
"345.40000009536743","arrowright","psychophysics","123","312472","0.0-3.0-0.59","","key","arrowright","16.65747368420891","640","284.5","60","3","-1","25","15","25","35","false"
"null","null","psychophysics","124","313474","0.0-3.0-1.59","","key","null","16.65898333333316","640","284.5","","","","","","","",""
"219.30000019073486","arrowright","psychophysics","125","313696","0.0-3.0-0.60","","key","arrowright","16.658666666665038","640","284.5","61","3","-1","23","35","25","35","false"
"null","null","psychophysics","126","314705","0.0-3.0-1.60","","key","null","16.657133333333572","640","284.5","","","","","","","",""
"465.90000009536743","arrowright","psychophysics","127","315174","0.0-3.0-0.61","","key","arrowright","16.657481481480687","640","284.5","62","3","1","20","15","25","35","true"
"null","null","psychophysics","128","316187","0.0-3.0-1.61","","key","null","16.657576271186787","640","284.5","","","","","","","",""
"365.69999980926514","arrowright","psychophysics","129","316558","0.0-3.0-0.62","","key","arrowright","16.657727272726003","640","284.5","63","3","-1","27","35","25","35","false"
"null","null","psychophysics","130","317569","0.0-3.0-1.62","","key","null","16.657135593219486","640","284.5","","","","","","","",""
"331","arrowright","psychophysics","131","317911","0.0-3.0-0.63","","key","arrowright","16.64979999999923","640","284.5","64","3","-1","30","15","25","35","false"
"null","null","psychophysics","132","318919","0.0-3.0-1.63","","key","null","16.65818333333397","640","284.5","","","","","","","",""
"334.09999990463257","arrowright","psychophysics","133","319257","0.0-3.0-0.64","","key","arrowright","16.65763157894712","640","284.5","65","3","1","23","15","25","35","true"
"null","null","psychophysics","134","320269","0.0-3.0-1.64","","key","null","16.660583333333488","640","284.5","","","","","","","",""
"636.2999999523163","arrowright","psychophysics","135","320914","0.0-3.0-0.65","","key","arrowright","16.657918918918742","640","284.5","66","3","-1","26","15","25","35","false"
"null","null","psychophysics","136","321918","0.0-3.0-1.65","","key","null","16.657500000000194","640","284.5","","","","","","","",""
"238","arrowright","psychophysics","137","322159","0.0-3.0-0.66","","key","arrowright","16.65030769230977","640","284.5","67","3","-1","30","35","25","35","false"
"null","null","psychophysics","138","323167","0.0-3.0-1.66","","key","null","16.65826666666641","640","284.5","","","","","","","",""
"208.29999995231628","arrowright","psychophysics","139","323379","0.0-3.0-0.67","","key","arrowright","16.64818181818224","640","284.5","68","3","-1","20","15","25","35","false"
"null","null","psychophysics","140","324382","0.0-3.0-1.67","","key","null","16.660711864407087","640","284.5","","","","","","","",""
"203.29999995231628","arrowright","psychophysics","141","324590","0.0-3.0-0.68","","key","arrowright","16.656583333334613","640","284.5","69","3","-1","23","15","25","35","false"
"null","null","psychophysics","142","325599","0.0-3.0-1.68","","key","null","16.65928333333383","640","284.5","","","","","","","",""
"301.89999985694885","arrowright","psychophysics","143","325904","0.0-3.0-0.69","","key","arrowright","16.6577058823519","640","284.5","70","3","-1","24","35","25","35","false"
"null","null","psychophysics","144","326915","0.0-3.0-1.69","","key","null","16.65734999999986","640","284.5","","","","","","","",""
"233.19999980926514","arrowright","psychophysics","145","327151","0.0-3.0-0.70","","key","arrowright","16.655000000001074","640","284.5","71","3","-1","20","15","25","35","false"
"null","null","psychophysics","146","328164","0.0-3.0-1.70","","key","null","16.658766666666875","640","284.5","","","","","","","",""
"282.2000000476837","arrowright","psychophysics","147","328450","0.0-3.0-0.71","","key","arrowright","16.65912500000195","640","284.5","72","3","1","27","15","25","35","true"
"null","null","psychophysics","148","329463","0.0-3.0-1.71","","key","null","16.65743333333327","640","284.5","","","","","","","",""
"276.7000000476837","arrowright","psychophysics","149","329743","0.0-3.0-0.72","","key","arrowright","16.65633333333535","640","284.5","73","3","1","25","35","25","35","true"
"null","null","psychophysics","150","330746","0.0-3.0-1.72","","key","null","16.660149999999945","640","284.5","","","","","","","",""
"221","arrowright","psychophysics","151","330971","0.0-3.0-0.73","","key","arrowright","16.65799999999581","640","284.5","74","3","-1","26","35","25","35","false"
"null","null","psychophysics","152","331979","0.0-3.0-1.73","","key","null","16.657583333332635","640","284.5","","","","","","","",""
"105.39999985694885","arrowright","psychophysics","153","332088","0.0-3.0-0.74","","key","arrowright","16.657600000000095","640","284.5","75","3","-1","24","15","25","35","false"
"null","null","psychophysics","154","333095","0.0-3.0-1.74","","key","null","16.657500000000194","640","284.5","","","","","","","",""
"336.19999980926514","arrowright","psychophysics","155","333434","0.0-3.0-0.75","","key","arrowright","16.65647368421043","640","284.5","76","3","-1","24","15","25","35","false"
"null","null","psychophysics","156","334443","0.0-3.0-1.75","","key","null","16.657525423728718","640","284.5","","","","","","","",""
"292.09999990463257","arrowright","psychophysics","157","334741","0.0-3.0-0.76","","key","arrowright","16.658588235293898","640","284.5","77","3","-1","20","15","25","35","false"
"null","null","psychophysics","158","335743","0.0-3.0-1.76","","key","null","16.65734999999986","640","284.5","","","","","","","",""
"304.90000009536743","arrowright","psychophysics","159","336052","0.0-3.0-0.77","","key","arrowright","16.65694117647089","640","284.5","78","3","1","26","35","25","35","true"
"null","null","psychophysics","160","337058","0.0-3.0-1.77","","key","null","16.65735593220314","640","284.5","","","","","","","",""
"242.40000009536743","arrowright","psychophysics","161","337306","0.0-3.0-0.78","","key","arrowright","16.657999999999966","640","284.5","79","3","1","24","35","25","35","true"
"null","null","psychophysics","162","338308","0.0-3.0-1.78","","key","null","16.66022033898369","640","284.5","","","","","","","",""
"291.2999999523163","arrowright","psychophysics","163","338604","0.0-3.0-0.79","","key","arrowright","16.65841176470755","640","284.5","80","3","-1","20","15","25","35","false"
"null","null","psychophysics","164","339607","0.0-3.0-1.79","","key","null","16.657135593220474","640","284.5","","","","","","","",""
"288.59999990463257","arrowright","psychophysics","165","339901","0.0-3.0-0.80","","key","arrowright","16.656470588237212","640","284.5","81","3","1","25","15","25","35","true"
"null","null","psychophysics","166","340907","0.0-3.0-1.80","","key","null","16.657600000000095","640","284.5","","","","","","","",""
"171.90000009536743","arrowright","psychophysics","167","341083","0.0-3.0-0.81","","key","arrowright","16.65022222222372","640","284.5","82","3","1","30","35","25","35","true"
"null","null","psychophysics","168","342090","0.0-3.0-1.81","","key","null","16.655866666666892","640","284.5","","","","","","","",""
"192.39999985694885","arrowright","psychophysics","169","342285","0.0-3.0-0.82","","key","arrowright","16.673300000000744","640","284.5","83","3","-1","20","35","25","35","false"
"null","null","psychophysics","170","343289","0.0-3.0-1.82","","key","null","16.65761666666658","640","284.5","","","","","","","",""
"175.5","arrowright","psychophysics","171","343468","0.0-3.0-0.83","","key","arrowright","16.6501111111138","640","284.5","84","4","-1","26","35","25","35","false"
"null","null","psychophysics","172","344472","0.0-3.0-1.83","","key","null","16.657600000000095","640","284.5","","","","","","","",""
"276.5","arrowright","html-keyboard-response","173","344750","0.0-3.0-2.83-0.83","<div style=""color: white; text-align: center; vertical-align: top; display: inline-block; width: 800px; margin: auto""><p>You have completed 30% of the trials. You are on block 4 of 10. <br>Good job! Take a break if you need to.</p><p>Press any key to continue the experiment.</p></div>","","","","","","","","","","","","",""
"975.8999998569489","arrowright","psychophysics","174","346739","0.0-3.0-0.84","","key","arrowright","16.58977966101631","640","284.5","85","4","-1","20","15","25","35","false"
"null","null","psychophysics","175","347749","0.0-3.0-1.84","","key","null","16.657186440678544","640","284.5","","","","","","","",""
"186.70000004768372","arrowright","psychophysics","176","347941","0.0-3.0-0.85","","key","arrowright","16.657727272726003","640","284.5","86","4","1","24","35","25","35","true"
"null","null","psychophysics","177","348948","0.0-3.0-1.85","","key","null","16.657864406778895","640","284.5","","","","","","","",""
"96.29999995231628","arrowright","psychophysics","178","349049","0.0-3.0-0.86","","key","arrowright","16.65450000000419","640","284.5","87","4","1","27","15","25","35","true"
"null","null","psychophysics","179","350064","0.0-3.0-1.86","","key","null","16.657220338983265","640","284.5","","","","","","","",""
"93.29999995231628","arrowright","psychophysics","180","350163","0.0-3.0-0.87","","key","arrowright","16.659000000008383","640","284.5","88","4","1","26","15","25","35","true"
"null","null","psychophysics","181","351165","0.0-3.0-1.87","","key","null","16.65908333333306","640","284.5","","","","","","","",""
"195.40000009536743","arrowright","psychophysics","182","351363","0.0-3.0-0.88","","key","arrowright","16.65769999999902","640","284.5","89","4","-1","25","35","25","35","false"
"null","null","psychophysics","183","352380","0.0-3.0-1.88","","key","null","16.659200000000418","640","284.5","","","","","","","",""
"117","arrowright","psychophysics","184","352502","0.0-3.0-0.89","","key","arrowright","16.657285714289173","640","284.5","90","4","1","30","15","25","35","true"
"null","null","psychophysics","185","353512","0.0-3.0-1.89","","key","null","16.65738983050786","640","284.5","","","","","","","",""
"646.2000000476837","arrowright","psychophysics","186","354170","0.0-3.0-0.90","","key","arrowright","16.657435897434762","640","284.5","91","4","-1","26","15","25","35","false"
"null","null","psychophysics","187","355179","0.0-3.0-1.90","","key","null","16.656866666666854","640","284.5","","","","","","","",""
"570.3000001907349","arrowright","psychophysics","188","355753","0.0-3.0-0.91","","key","arrowright","16.654303030303158","640","284.5","92","4","-1","24","35","25","35","false"
"null","null","psychophysics","189","356761","0.0-3.0-1.91","","key","null","16.658133333333534","640","284.5","","","","","","","",""
"284.59999990463257","arrowright","psychophysics","190","357049","0.0-3.0-0.92","","key","arrowright","16.647124999999505","640","284.5","93","4","1","23","35","25","35","true"
"null","null","psychophysics","191","358059","0.0-3.0-1.92","","key","null","16.65937288135677","640","284.5","","","","","","","",""
"518.1999998092651","arrowright","psychophysics","192","358584","0.0-3.0-0.93","","key","arrowright","16.662645161288957","640","284.5","94","4","1","25","15","25","35","true"
"null","null","psychophysics","193","359592","0.0-3.0-1.93","","key","null","16.65683050847403","640","284.5","","","","","","","",""
"210.90000009536743","arrowright","psychophysics","194","359809","0.0-3.0-0.94","","key","arrowright","16.656500000002172","640","284.5","95","4","1","20","15","25","35","true"
"null","null","psychophysics","195","360825","0.0-3.0-1.94","","key","null","16.659933333333658","640","284.5","","","","","","","",""
"17.40000009536743","arrowright","psychophysics","196","360848","0.0-3.0-0.95","","key","arrowright","16.64000000001397","640","284.5","96","4","-1","23","15","25","35","false"
"null","null","psychophysics","197","361863","0.0-3.0-1.95","","key","null","16.657525423728718","640","284.5","","","","","","","",""
"13.899999856948853","arrowright","psychophysics","198","361882","0.0-3.0-0.96","","key","arrowright","16.736000000033528","640","284.5","97","4","1","20","15","25","35","true"
"null","null","psychophysics","199","362887","0.0-3.0-1.96","","key","null","16.6575762711858","640","284.5","","","","","","","",""
"829.7999999523163","arrowright","psychophysics","200","363719","0.0-3.0-0.97","","key","arrowright","16.65744897959236","640","284.5","98","4","-1","24","35","25","35","false"
"null","null","psychophysics","201","364728","0.0-3.0-1.97","","key","null","16.657457627119275","640","284.5","","","","","","","",""
"3.5","arrowright","psychophysics","202","364737","0.0-3.0-0.98","","key","arrowright","NaN","640","284.5","99","4","1","27","35","25","35","true"
"null","null","psychophysics","203","365744","0.0-3.0-1.98","","key","null","16.657237288134638","640","284.5","","","","","","","",""
"18.399999856948853","arrowright","psychophysics","204","365768","0.0-3.0-0.99","","key","arrowright","16.597999999998137","640","284.5","100","4","-1","26","35","25","35","false"
"null","null","psychophysics","205","366777","0.0-3.0-1.99","","key","null","16.657423728813566","640","284.5","","","","","","","",""
"482.5","arrowright","psychophysics","206","367265","0.0-3.0-0.100","","key","arrowright","16.656310344827443","640","284.5","101","4","-1","27","15","25","35","false"
"null","null","psychophysics","207","368276","0.0-3.0-1.100","","key","null","16.658966101695174","640","284.5","","","","","","","",""
"149.89999985694885","arrowright","psychophysics","208","368431","0.0-3.0-0.101","","key","arrowright","16.64722222221705","640","284.5","102","4","1","26","15","25","35","true"
"null","null","psychophysics","209","369442","0.0-3.0-1.101","","key","null","16.65774576271237","640","284.5","","","","","","","",""
"113","arrowright","psychophysics","210","369560","0.0-3.0-0.102","","key","arrowright","16.668285714287776","640","284.5","103","4","-1","27","35","25","35","false"
"null","null","psychophysics","211","370575","0.0-3.0-1.102","","key","null","16.657559322034427","640","284.5","","","","","","","",""
"196.60000014305115","arrowright","psychophysics","212","370777","0.0-3.0-0.103","","key","arrowright","16.647666666671284","640","284.5","104","4","1","20","15","25","35","true"
"null","null","psychophysics","213","371791","0.0-3.0-1.103","","key","null","16.65849152542414","640","284.5","","","","","","","",""
"113.39999985694885","arrowright","psychophysics","214","371909","0.0-3.0-0.104","","key","arrowright","16.653428571431764","640","284.5","105","4","1","27","35","25","35","true"
"null","null","psychophysics","215","372923","0.0-3.0-1.104","","key","null","16.65766101694958","640","284.5","","","","","","","",""
"139.5","arrowright","psychophysics","216","373068","0.0-3.0-0.105","","key","arrowright","16.654875000000175","640","284.5","106","4","1","30","35","25","35","true"
"null","null","psychophysics","217","374073","0.0-3.0-1.105","","key","null","16.657186440678544","640","284.5","","","","","","","",""
"11","arrowright","psychophysics","218","374089","0.0-3.0-0.106","","key","arrowright","NaN","640","284.5","107","4","1","23","35","25","35","true"
"null","null","psychophysics","219","375091","0.0-3.0-1.106","","key","null","16.65885000000029","640","284.5","","","","","","","",""
"66.30000019073486","arrowright","psychophysics","220","375160","0.0-3.0-0.107","","key","arrowright","16.65566666664866","640","284.5","108","4","1","20","15","25","35","true"
"null","null","psychophysics","221","376170","0.0-3.0-1.107","","key","null","16.656983050847252","640","284.5","","","","","","","",""
"3115.399999856949","arrowright","psychophysics","222","379292","0.0-3.0-0.108","","key","arrowright","16.658491978609504","640","284.5","109","4","1","24","15","25","35","true"
"null","null","psychophysics","223","380303","0.0-3.0-1.108","","key","null","16.65659322033901","640","284.5","","","","","","","",""
"230.70000004768372","arrowright","psychophysics","224","380539","0.0-3.0-0.109","","key","arrowright","16.656857142861035","640","284.5","110","4","1","23","35","25","35","true"
"null","null","psychophysics","225","381552","0.0-3.0-1.109","","key","null","16.65762711864387","640","284.5","","","","","","","",""
"278.60000014305115","arrowright","psychophysics","226","381836","0.0-3.0-0.110","","key","arrowright","16.645588235296174","640","284.5","111","4","-1","26","15","25","35","false"
"null","null","psychophysics","227","382851","0.0-3.0-1.110","","key","null","16.65915254237213","640","284.5","","","","","","","",""
"208.5","arrowright","psychophysics","228","383071","0.0-3.0-0.111","","key","arrowright","16.658769230770233","640","284.5","112","5","1","26","35","25","35","true"
"null","null","psychophysics","229","384084","0.0-3.0-1.111","","key","null","16.657203389830904","640","284.5","","","","","","","",""
"62.799999952316284","arrowright","html-keyboard-response","230","384148","0.0-3.0-2.111-0.111","<div style=""color: white; text-align: center; vertical-align: top; display: inline-block; width: 800px; margin: auto""><p>You have completed 40% of the trials. You are on block 5 of 10. <br>Good job! Take a break if you need to.</p><p>Press any key to continue the experiment.</p></div>","","","","","","","","","","","","",""
"12487.700000047684","arrowright","psychophysics","231","397651","0.0-3.0-0.112","","key","arrowright","81.1490389610389","640","284.5","113","5","-1","30","35","25","35","false"
"null","null","psychophysics","232","398664","0.0-3.0-1.112","","key","null","16.65753333333317","640","284.5","","","","","","","",""
"316.7000000476837","arrowright","psychophysics","233","398984","0.0-3.0-0.113","","key","arrowright","16.65783333333416","640","284.5","114","5","1","24","15","25","35","true"
"null","null","psychophysics","234","399996","0.0-3.0-1.113","","key","null","16.657266666666448","640","284.5","","","","","","","",""
"34.80000019073486","arrowright","psychophysics","235","400034","0.0-3.0-0.114","","key","arrowright","16.652999999991152","640","284.5","115","5","-1","23","15","25","35","false"
"null","null","psychophysics","236","401045","0.0-3.0-1.114","","key","null","16.65762711864387","640","284.5","","","","","","","",""
"341","arrowright","psychophysics","237","401391","0.0-3.0-0.115","","key","arrowright","16.657749999998487","640","284.5","116","5","-1","30","15","25","35","false"
"null","null","psychophysics","238","402395","0.0-3.0-1.115","","key","null","16.65696666666675","640","284.5","","","","","","","",""
"180","arrowright","psychophysics","239","402578","0.0-3.0-0.116","","key","arrowright","16.64100000000326","640","284.5","117","5","1","25","35","25","35","true"
"null","null","psychophysics","240","403594","0.0-3.0-1.116","","key","null","16.657299999999427","640","284.5","","","","","","","",""
"314","arrowright","psychophysics","241","403912","0.0-3.0-0.117","","key","arrowright","16.65866666666827","640","284.5","118","5","1","26","35","25","35","true"
"null","null","psychophysics","242","404926","0.0-3.0-1.117","","key","null","16.65767796610194","640","284.5","","","","","","","",""
"208.20000004768372","arrowright","psychophysics","243","405139","0.0-3.0-0.118","","key","arrowright","16.660166666668374","640","284.5","119","5","1","27","35","25","35","true"
"null","null","psychophysics","244","406143","0.0-3.0-1.118","","key","null","16.657783333332432","640","284.5","","","","","","","",""
"94.40000009536743","arrowright","psychophysics","245","406241","0.0-3.0-0.119","","key","arrowright","16.690999999991618","640","284.5","120","5","1","23","15","25","35","true"
"null","null","psychophysics","246","407243","0.0-3.0-1.119","","key","null","16.659699999999916","640","284.5","","","","","","","",""
"98.29999995231628","arrowright","psychophysics","247","407344","0.0-3.0-0.120","","key","arrowright","16.661999999999534","640","284.5","121","5","1","26","15","25","35","true"
"null","null","psychophysics","248","408358","0.0-3.0-1.120","","key","null","16.657500000000194","640","284.5","","","","","","","",""
"141.89999985694885","arrowright","psychophysics","249","408503","0.0-3.0-0.121","","key","arrowright","16.65014285714798","640","284.5","122","5","-1","23","35","25","35","false"
"null","null","psychophysics","250","409507","0.0-3.0-1.121","","key","null","16.65745762711829","640","284.5","","","","","","","",""
"262.69999980926514","arrowright","psychophysics","251","409775","0.0-3.0-0.122","","key","arrowright","16.645562500001688","640","284.5","123","5","-1","26","15","25","35","false"
"null","null","psychophysics","252","410790","0.0-3.0-1.122","","key","null","16.65763333333404","640","284.5","","","","","","","",""
"248.5","arrowright","psychophysics","253","411048","0.0-3.0-0.123","","key","arrowright","16.654999999998836","640","284.5","124","5","-1","20","15","25","35","false"
"null","null","psychophysics","254","412056","0.0-3.0-1.123","","key","null","16.657766666666916","640","284.5","","","","","","","",""
"313","arrowright","psychophysics","255","412373","0.0-3.0-0.124","","key","arrowright","16.64449999999811","640","284.5","125","5","-1","30","15","25","35","false"
"null","null","psychophysics","256","413389","0.0-3.0-1.124","","key","null","16.65736666666635","640","284.5","","","","","","","",""
"214.09999990463257","arrowright","psychophysics","257","413607","0.0-3.0-0.125","","key","arrowright","16.65358333333279","640","284.5","126","5","-1","30","15","25","35","false"
"null","null","psychophysics","258","414622","0.0-3.0-1.125","","key","null","16.65744999999976","640","284.5","","","","","","","",""
"268.7999999523163","arrowright","psychophysics","259","414894","0.0-3.0-0.126","","key","arrowright","16.657933333329858","640","284.5","127","5","1","30","15","25","35","true"
"null","null","psychophysics","260","415904","0.0-3.0-1.126","","key","null","16.65761666666658","640","284.5","","","","","","","",""
"144.10000014305115","arrowright","psychophysics","261","416052","0.0-3.0-0.127","","key","arrowright","16.657571428571828","640","284.5","128","5","-1","23","15","25","35","false"
"null","null","psychophysics","262","417055","0.0-3.0-1.127","","key","null","16.659999999999613","640","284.5","","","","","","","",""
"199.40000009536743","arrowright","psychophysics","263","417258","0.0-3.0-0.128","","key","arrowright","16.657454545456197","640","284.5","129","5","1","23","35","25","35","true"
"null","null","psychophysics","264","418269","0.0-3.0-1.128","","key","null","16.656610169492353","640","284.5","","","","","","","",""
"435.10000014305115","arrowright","psychophysics","265","418709","0.0-3.0-0.129","","key","arrowright","16.657384615384778","640","284.5","130","5","-1","27","35","25","35","false"
"null","null","psychophysics","266","419718","0.0-3.0-1.129","","key","null","16.657542372882066","640","284.5","","","","","","","",""
"282","arrowright","psychophysics","267","420005","0.0-3.0-0.130","","key","arrowright","16.6577058823519","640","284.5","131","5","1","25","15","25","35","true"
"null","null","psychophysics","268","421017","0.0-3.0-1.130","","key","null","16.658694915253456","640","284.5","","","","","","","",""
"231.90000009536743","arrowright","psychophysics","269","421254","0.0-3.0-0.131","","key","arrowright","16.65764285714249","640","284.5","132","5","-1","23","35","25","35","false"
"null","null","psychophysics","270","422268","0.0-3.0-1.131","","key","null","16.658466666667177","640","284.5","","","","","","","",""
"448","arrowright","psychophysics","271","422725","0.0-3.0-0.132","","key","arrowright","16.656807692307318","640","284.5","133","5","1","26","35","25","35","true"
"null","null","psychophysics","272","423734","0.0-3.0-1.132","","key","null","16.657966666666713","640","284.5","","","","","","","",""
"303","arrowright","psychophysics","273","424042","0.0-3.0-0.133","","key","arrowright","16.658058823528016","640","284.5","134","5","1","27","35","25","35","true"
"null","null","psychophysics","274","425050","0.0-3.0-1.133","","key","null","16.657300000000397","640","284.5","","","","","","","",""
"193","arrowright","psychophysics","275","425246","0.0-3.0-0.134","","key","arrowright","16.65800000000163","640","284.5","135","5","-1","27","35","25","35","false"
"null","null","psychophysics","276","426248","0.0-3.0-1.134","","key","null","16.655559322034144","640","284.5","","","","","","","",""
"265","arrowright","psychophysics","277","426520","0.0-3.0-0.135","","key","arrowright","16.652937499999098","640","284.5","136","5","-1","20","15","25","35","false"
"null","null","psychophysics","278","427532","0.0-3.0-1.135","","key","null","16.657766666665946","640","284.5","","","","","","","",""
"270.2000000476837","arrowright","psychophysics","279","427806","0.0-3.0-0.136","","key","arrowright","16.657199999996617","640","284.5","137","5","-1","26","35","25","35","false"
"null","null","psychophysics","280","428815","0.0-3.0-1.136","","key","null","16.65834999999982","640","284.5","","","","","","","",""
"202.79999995231628","arrowright","psychophysics","281","429021","0.0-3.0-0.137","","key","arrowright","16.65372727272651","640","284.5","138","5","1","23","35","25","35","true"
"null","null","psychophysics","282","430029","0.0-3.0-1.137","","key","null","16.657508474576357","640","284.5","","","","","","","",""
"293.60000014305115","arrowright","psychophysics","283","430328","0.0-3.0-0.138","","key","arrowright","16.65794117647045","640","284.5","139","5","-1","27","15","25","35","false"
"null","null","psychophysics","284","431330","0.0-3.0-1.138","","key","null","16.66078333333329","640","284.5","","","","","","","",""
"225","arrowright","psychophysics","285","431558","0.0-3.0-0.139","","key","arrowright","16.655083333336126","640","284.5","140","6","1","30","15","25","35","true"
"null","null","psychophysics","286","432563","0.0-3.0-1.139","","key","null","16.65734999999986","640","284.5","","","","","","","",""
"145","arrowright","html-keyboard-response","287","432709","0.0-3.0-2.139-0.139","<div style=""color: white; text-align: center; vertical-align: top; display: inline-block; width: 800px; margin: auto""><p>You have completed 50% of the trials. You are on block 6 of 10. <br>Good job! Take a break if you need to.</p><p>Press any key to continue the experiment.</p></div>","","","","","","","","","","","","",""
"296.40000009536743","arrowright","psychophysics","288","434020","0.0-3.0-0.140","","key","arrowright","16.44027777777713","640","284.5","141","6","1","27","35","25","35","true"
"null","null","psychophysics","289","435023","0.0-3.0-1.140","","key","null","16.657525423728718","640","284.5","","","","","","","",""
"158.79999995231628","arrowright","psychophysics","290","435193","0.0-3.0-0.141","","key","arrowright","16.658400000003166","640","284.5","142","6","-1","20","35","25","35","false"
"null","null","psychophysics","291","436206","0.0-3.0-1.141","","key","null","16.657847457626534","640","284.5","","","","","","","",""
"151","arrowright","psychophysics","292","436362","0.0-3.0-0.142","","key","arrowright","16.665888888890752","640","284.5","143","6","-1","27","35","25","35","false"
"null","null","psychophysics","293","437372","0.0-3.0-1.142","","key","null","16.657135593220474","640","284.5","","","","","","","",""
"93.5","arrowright","psychophysics","294","437471","0.0-3.0-0.143","","key","arrowright","16.65679999999702","640","284.5","144","6","1","25","35","25","35","true"
"null","null","psychophysics","295","438473","0.0-3.0-1.143","","key","null","16.658583333333567","640","284.5","","","","","","","",""
"272.10000014305115","arrowright","psychophysics","296","438748","0.0-3.0-0.144","","key","arrowright","16.657333333332403","640","284.5","145","6","1","20","35","25","35","true"
"null","null","psychophysics","297","439754","0.0-3.0-1.144","","key","null","16.6550508474574","640","284.5","","","","","","","",""
"209.39999985694885","arrowright","psychophysics","298","439969","0.0-3.0-0.145","","key","arrowright","16.658416666667716","640","284.5","146","6","1","25","15","25","35","true"
"null","null","psychophysics","299","440970","0.0-3.0-1.145","","key","null","16.659796610169735","640","284.5","","","","","","","",""
"288.60000014305115","arrowright","psychophysics","300","441265","0.0-3.0-0.146","","key","arrowright","16.6572352941148","640","284.5","147","6","-1","20","35","25","35","false"
"null","null","psychophysics","301","442269","0.0-3.0-1.146","","key","null","16.657271186440347","640","284.5","","","","","","","",""
"197.59999990463257","arrowright","psychophysics","302","442472","0.0-3.0-0.147","","key","arrowright","16.657666666666046","640","284.5","148","6","-1","30","15","25","35","false"
"null","null","psychophysics","303","443485","0.0-3.0-1.147","","key","null","16.65654237288094","640","284.5","","","","","","","",""
"221","arrowright","psychophysics","304","443712","0.0-3.0-0.148","","key","arrowright","16.662692307691593","640","284.5","149","6","1","30","35","25","35","true"
"null","null","psychophysics","305","444718","0.0-3.0-1.148","","key","null","16.657542372882066","640","284.5","","","","","","","",""
"277.2999999523163","arrowright","psychophysics","306","445001","0.0-3.0-0.149","","key","arrowright","16.658187500001077","640","284.5","150","6","-1","30","15","25","35","false"
"null","null","psychophysics","307","446003","0.0-3.0-1.149","","key","null","16.66010000000048","640","284.5","","","","","","","",""
"237.70000004768372","arrowright","psychophysics","308","446243","0.0-3.0-0.150","","key","arrowright","16.656692307693167","640","284.5","151","6","1","26","35","25","35","true"
"null","null","psychophysics","309","447250","0.0-3.0-1.150","","key","null","16.655067796610744","640","284.5","","","","","","","",""
"290.59999990463257","arrowright","psychophysics","310","447546","0.0-3.0-0.151","","key","arrowright","16.657588235294337","640","284.5","152","6","-1","24","15","25","35","false"
"null","null","psychophysics","311","448549","0.0-3.0-1.151","","key","null","16.655576271186504","640","284.5","","","","","","","",""
"294.2999999523163","arrowright","psychophysics","312","448849","0.0-3.0-0.152","","key","arrowright","16.660941176469137","640","284.5","153","6","1","26","15","25","35","true"
"null","null","psychophysics","313","449865","0.0-3.0-1.152","","key","null","16.65936666666627","640","284.5","","","","","","","",""
"166.70000004768372","arrowright","psychophysics","314","450037","0.0-3.0-0.153","","key","arrowright","16.658500000002096","640","284.5","154","6","-1","24","15","25","35","false"
"null","null","psychophysics","315","451048","0.0-3.0-1.153","","key","null","16.658661016949722","640","284.5","","","","","","","",""
"208.59999990463257","arrowright","psychophysics","316","451267","0.0-3.0-0.154","","key","arrowright","16.65715384615424","640","284.5","155","6","-1","27","35","25","35","false"
"null","null","psychophysics","317","452280","0.0-3.0-1.154","","key","null","16.657542372882066","640","284.5","","","","","","","",""
"309","arrowright","psychophysics","318","452595","0.0-3.0-0.155","","key","arrowright","16.66000000000026","640","284.5","156","6","-1","27","15","25","35","false"
"null","null","psychophysics","319","453597","0.0-3.0-1.155","","key","null","16.659050847457966","640","284.5","","","","","","","",""
"179","arrowright","psychophysics","320","453781","0.0-3.0-0.156","","key","arrowright","16.644272727272686","640","284.5","157","6","1","27","15","25","35","true"
"null","null","psychophysics","321","454796","0.0-3.0-1.156","","key","null","16.65747457627065","640","284.5","","","","","","","",""
"166.10000014305115","arrowright","psychophysics","322","454967","0.0-3.0-0.157","","key","arrowright","16.657400000002234","640","284.5","158","6","-1","25","15","25","35","false"
"null","null","psychophysics","323","455978","0.0-3.0-1.157","","key","null","16.657355932204123","640","284.5","","","","","","","",""
"59.59999990463257","arrowright","psychophysics","324","456049","0.0-3.0-0.158","","key","arrowright","16.655750000005355","640","284.5","159","6","1","23","15","25","35","true"
"null","null","psychophysics","325","457061","0.0-3.0-1.158","","key","null","16.657525423728718","640","284.5","","","","","","","",""
"62.59999990463257","arrowright","psychophysics","326","457130","0.0-3.0-0.159","","key","arrowright","16.627000000007683","640","284.5","160","6","1","20","15","25","35","true"
"null","null","psychophysics","327","458144","0.0-3.0-1.159","","key","null","16.657423728813566","640","284.5","","","","","","","",""
"159.09999990463257","arrowright","psychophysics","328","458308","0.0-3.0-0.160","","key","arrowright","16.657555555556126","640","284.5","161","6","1","24","15","25","35","true"
"null","null","psychophysics","329","459310","0.0-3.0-1.160","","key","null","16.65842372881371","640","284.5","","","","","","","",""
"129.80000019073486","arrowright","psychophysics","330","459446","0.0-3.0-0.161","","key","arrowright","16.64112500000192","640","284.5","162","6","-1","24","35","25","35","false"
"null","null","psychophysics","331","460459","0.0-3.0-1.161","","key","null","16.661406779660787","640","284.5","","","","","","","",""
"192.80000019073486","arrowright","psychophysics","332","460657","0.0-3.0-0.162","","key","arrowright","16.67018181818474","640","284.5","163","6","-1","25","35","25","35","false"
"null","null","psychophysics","333","461659","0.0-3.0-1.162","","key","null","16.656525423728578","640","284.5","","","","","","","",""
"128.90000009536743","arrowright","psychophysics","334","461793","0.0-3.0-0.163","","key","arrowright","16.630125000003318","640","284.5","164","6","-1","23","35","25","35","false"
"null","null","psychophysics","335","462808","0.0-3.0-1.163","","key","null","16.66011864406854","640","284.5","","","","","","","",""
"146.70000004768372","arrowright","psychophysics","336","462960","0.0-3.0-0.164","","key","arrowright","16.64788888888951","640","284.5","165","6","-1","25","15","25","35","false"
"null","null","psychophysics","337","463974","0.0-3.0-1.164","","key","null","16.65771186440666","640","284.5","","","","","","","",""
"207.29999995231628","arrowright","psychophysics","338","464188","0.0-3.0-0.165","","key","arrowright","16.661083333334926","640","284.5","166","6","-1","20","35","25","35","false"
"null","null","psychophysics","339","465190","0.0-3.0-1.165","","key","null","16.66030508474648","640","284.5","","","","","","","",""
"99","arrowright","psychophysics","340","465294","0.0-3.0-0.166","","key","arrowright","16.652499999996508","640","284.5","167","6","1","25","35","25","35","true"
"null","null","psychophysics","341","466306","0.0-3.0-1.166","","key","null","16.657542372882066","640","284.5","","","","","","","",""
"102.59999990463257","arrowright","psychophysics","342","466414","0.0-3.0-0.167","","key","arrowright","16.658333333335275","640","284.5","168","7","1","24","35","25","35","true"
"null","null","psychophysics","343","467422","0.0-3.0-1.167","","key","null","16.657915254236965","640","284.5","","","","","","","",""
"160.10000014305115","arrowright","html-keyboard-response","344","467590","0.0-3.0-2.167-0.167","<div style=""color: white; text-align: center; vertical-align: top; display: inline-block; width: 800px; margin: auto""><p>You have completed 60% of the trials. You are on block 7 of 10. <br>Good job! Take a break if you need to.</p><p>Press any key to continue the experiment.</p></div>","","","","","","","","","","","","",""
"279.2999999523163","arrowright","psychophysics","345","468882","0.0-3.0-0.168","","key","arrowright","16.571176470589467","640","284.5","169","7","1","20","35","25","35","true"
"null","null","psychophysics","346","469886","0.0-3.0-1.168","","key","null","16.657118644068113","640","284.5","","","","","","","",""
"82.89999985694885","arrowright","psychophysics","347","469974","0.0-3.0-0.169","","key","arrowright","16.653599999996366","640","284.5","170","7","-1","27","15","25","35","false"
"null","null","psychophysics","348","470986","0.0-3.0-1.169","","key","null","16.657288135593692","640","284.5","","","","","","","",""
"48","arrowright","psychophysics","349","471039","0.0-3.0-0.170","","key","arrowright","16.65799999999581","640","284.5","171","7","1","20","35","25","35","true"
"null","null","psychophysics","350","472051","0.0-3.0-1.170","","key","null","16.657067796610043","640","284.5","","","","","","","",""
"23","arrowright","psychophysics","351","472079","0.0-3.0-0.171","","key","arrowright","16.635000000009313","640","284.5","172","7","1","26","15","25","35","true"
"null","null","psychophysics","352","473084","0.0-3.0-1.171","","key","null","16.65767796610194","640","284.5","","","","","","","",""
"453.5","arrowright","psychophysics","353","473544","0.0-3.0-0.172","","key","arrowright","16.65774074074148","640","284.5","173","7","1","24","15","25","35","true"
"null","null","psychophysics","354","474550","0.0-3.0-1.172","","key","null","16.656728813559866","640","284.5","","","","","","","",""
"53.40000009536743","arrowright","psychophysics","355","474609","0.0-3.0-0.173","","key","arrowright","16.65500000000854","640","284.5","174","7","1","27","35","25","35","true"
"null","null","psychophysics","356","475612","0.0-3.0-1.173","","key","null","16.657186440677556","640","284.5","","","","","","","",""
"420.19999980926514","arrowright","psychophysics","357","476035","0.0-3.0-0.174","","key","arrowright","16.65780000000028","640","284.5","175","7","1","27","15","25","35","true"
"null","null","psychophysics","358","477049","0.0-3.0-1.174","","key","null","16.656999999999613","640","284.5","","","","","","","",""
"233.29999995231628","arrowright","psychophysics","359","477288","0.0-3.0-0.175","","key","arrowright","16.655071428573656","640","284.5","176","7","1","30","15","25","35","true"
"null","null","psychophysics","360","478298","0.0-3.0-1.175","","key","null","16.658203389831044","640","284.5","","","","","","","",""
"179.40000009536743","arrowright","psychophysics","361","478484","0.0-3.0-0.176","","key","arrowright","16.645636363637593","640","284.5","177","7","1","30","15","25","35","true"
"null","null","psychophysics","362","479496","0.0-3.0-1.176","","key","null","16.657525423728718","640","284.5","","","","","","","",""
"140.5","arrowright","psychophysics","363","479643","0.0-3.0-0.177","","key","arrowright","16.66649999999936","640","284.5","178","7","-1","26","35","25","35","false"
"null","null","psychophysics","364","480647","0.0-3.0-1.177","","key","null","16.65738983050786","640","284.5","","","","","","","",""
"180.29999995231628","arrowright","psychophysics","365","480838","0.0-3.0-0.178","","key","arrowright","16.65736363636097","640","284.5","179","7","-1","27","15","25","35","false"
"null","null","psychophysics","366","481846","0.0-3.0-1.178","","key","null","16.65911864406741","640","284.5","","","","","","","",""
"215.39999985694885","arrowright","psychophysics","367","482067","0.0-3.0-0.179","","key","arrowright","16.658076923076386","640","284.5","180","7","-1","20","35","25","35","false"
"null","null","psychophysics","368","483079","0.0-3.0-1.179","","key","null","16.65761016949151","640","284.5","","","","","","","",""
"157.5","arrowright","psychophysics","369","483243","0.0-3.0-0.180","","key","arrowright","16.65788888888589","640","284.5","181","7","1","27","35","25","35","true"
"null","null","psychophysics","370","484245","0.0-3.0-1.180","","key","null","16.659440677966213","640","284.5","","","","","","","",""
"117.20000004768372","arrowright","psychophysics","371","484368","0.0-3.0-0.181","","key","arrowright","16.657714285713155","640","284.5","182","7","-1","24","15","25","35","false"
"null","null","psychophysics","372","485378","0.0-3.0-1.181","","key","null","16.65761016949151","640","284.5","","","","","","","",""
"132.79999995231628","arrowright","psychophysics","373","485516","0.0-3.0-0.182","","key","arrowright","16.658000000003085","640","284.5","183","7","1","26","35","25","35","true"
"null","null","psychophysics","374","486527","0.0-3.0-1.182","","key","null","16.657762711863743","640","284.5","","","","","","","",""
"100.09999990463257","arrowright","psychophysics","375","486632","0.0-3.0-0.183","","key","arrowright","16.657666666666046","640","284.5","184","7","-1","25","15","25","35","false"
"null","null","psychophysics","376","487643","0.0-3.0-1.183","","key","null","16.65747457627065","640","284.5","","","","","","","",""
"146.09999990463257","arrowright","psychophysics","377","487795","0.0-3.0-0.184","","key","arrowright","16.650777777779794","640","284.5","185","7","-1","20","15","25","35","false"
"null","null","psychophysics","378","488809","0.0-3.0-1.184","","key","null","16.65771186440666","640","284.5","","","","","","","",""
"167.29999995231628","arrowright","psychophysics","379","488982","0.0-3.0-0.185","","key","arrowright","16.658900000003634","640","284.5","186","7","1","20","35","25","35","true"
"null","null","psychophysics","380","489992","0.0-3.0-1.185","","key","null","16.65767796610095","640","284.5","","","","","","","",""
"139.29999995231628","arrowright","psychophysics","381","490137","0.0-3.0-0.186","","key","arrowright","16.656000000002678","640","284.5","187","7","1","27","35","25","35","true"
"null","null","psychophysics","382","491141","0.0-3.0-1.186","","key","null","16.65740677966022","640","284.5","","","","","","","",""
"100.39999985694885","arrowright","psychophysics","383","491247","0.0-3.0-0.187","","key","arrowright","16.661166666667366","640","284.5","188","7","-1","30","35","25","35","false"
"null","null","psychophysics","384","492257","0.0-3.0-1.187","","key","null","16.657169491525195","640","284.5","","","","","","","",""
"93.90000009536743","arrowright","psychophysics","385","492356","0.0-3.0-0.188","","key","arrowright","16.65419999998994","640","284.5","189","7","-1","23","35","25","35","false"
"null","null","psychophysics","386","493358","0.0-3.0-1.188","","key","null","16.661149999999907","640","284.5","","","","","","","",""
"275.7000000476837","arrowright","psychophysics","387","493638","0.0-3.0-0.189","","key","arrowright","16.656999999998757","640","284.5","190","7","1","20","15","25","35","true"
"null","null","psychophysics","388","494641","0.0-3.0-1.189","","key","null","16.659899999999713","640","284.5","","","","","","","",""
"30.699999809265137","arrowright","psychophysics","389","494675","0.0-3.0-0.190","","key","arrowright","16.612000000022817","640","284.5","191","7","1","24","15","25","35","true"
"null","null","psychophysics","390","495689","0.0-3.0-1.190","","key","null","16.65844067796607","640","284.5","","","","","","","",""
"46.40000009536743","arrowright","psychophysics","391","495740","0.0-3.0-0.191","","key","arrowright","16.62799999998727","640","284.5","192","7","-1","26","35","25","35","false"
"null","null","psychophysics","392","496755","0.0-3.0-1.191","","key","null","16.659423728812865","640","284.5","","","","","","","",""
"164.40000009536743","arrowright","psychophysics","393","496924","0.0-3.0-0.192","","key","arrowright","16.6579000000027","640","284.5","193","7","-1","25","35","25","35","false"
"null","null","psychophysics","394","497937","0.0-3.0-1.192","","key","null","16.6576949152543","640","284.5","","","","","","","",""
"110","arrowright","psychophysics","395","498053","0.0-3.0-0.193","","key","arrowright","16.640666666673496","640","284.5","194","7","1","20","35","25","35","true"
"null","null","psychophysics","396","499055","0.0-3.0-1.193","","key","null","16.661816666666223","640","284.5","","","","","","","",""
"185.89999985694885","arrowright","psychophysics","397","499244","0.0-3.0-0.194","","key","arrowright","16.6570000000007","640","284.5","195","7","-1","30","35","25","35","false"
"null","null","psychophysics","398","500253","0.0-3.0-1.194","","key","null","16.657440677965926","640","284.5","","","","","","","",""
"248.59999990463257","arrowright","psychophysics","399","500507","0.0-3.0-0.195","","key","arrowright","16.65","640","284.5","196","8","-1","27","35","25","35","false"
"null","null","psychophysics","400","501519","0.0-3.0-1.195","","key","null","16.6581864406777","640","284.5","","","","","","","",""
"2298.9000000953674","arrowright","html-keyboard-response","401","503825","0.0-3.0-2.195-0.195","<div style=""color: white; text-align: center; vertical-align: top; display: inline-block; width: 800px; margin: auto""><p>You have completed 70% of the trials. You are on block 8 of 10. <br>Good job! Take a break if you need to.</p><p>Press any key to continue the experiment.</p></div>","","","","","","","","","","","","",""
"204.09999990463257","arrowright","psychophysics","402","505045","0.0-3.0-0.196","","key","arrowright","16.33115384615331","640","284.5","197","8","-1","23","35","25","35","false"
"null","null","psychophysics","403","506057","0.0-3.0-1.196","","key","null","16.658288135592848","640","284.5","","","","","","","",""
"16.600000143051147","arrowright","psychophysics","404","506080","0.0-3.0-0.197","","key","arrowright","16.580000000016298","640","284.5","198","8","1","24","35","25","35","true"
"null","null","psychophysics","405","507090","0.0-3.0-1.197","","key","null","16.659474576271922","640","284.5","","","","","","","",""
"422.5","arrowright","psychophysics","406","507518","0.0-3.0-0.198","","key","arrowright","16.657560000000522","640","284.5","199","8","1","30","35","25","35","true"
"null","null","psychophysics","407","508539","0.0-3.0-1.198","","key","null","16.655733333333046","640","284.5","","","","","","","",""
"76.19999980926514","arrowright","psychophysics","408","508621","0.0-3.0-0.199","","key","arrowright","16.68499999999767","640","284.5","200","8","-1","25","15","25","35","false"
"null","null","psychophysics","409","509622","0.0-3.0-1.199","","key","null","16.66159322033873","640","284.5","","","","","","","",""
"59.299999952316284","arrowright","psychophysics","410","509687","0.0-3.0-0.200","","key","arrowright","16.651333333342336","640","284.5","201","8","1","25","15","25","35","true"
"null","null","psychophysics","411","510690","0.0-3.0-1.200","","key","null","16.660416666666666","640","284.5","","","","","","","",""
"453.5","arrowright","psychophysics","412","511146","0.0-3.0-0.201","","key","arrowright","16.657346153846728","640","284.5","202","8","-1","24","35","25","35","false"
"null","null","psychophysics","413","512154","0.0-3.0-1.201","","key","null","16.657372881356483","640","284.5","","","","","","","",""
"103.70000004768372","arrowright","psychophysics","414","512263","0.0-3.0-0.202","","key","arrowright","16.652166666666744","640","284.5","203","8","1","26","15","25","35","true"
"null","null","psychophysics","415","513270","0.0-3.0-1.202","","key","null","16.657322033898417","640","284.5","","","","","","","",""
"42.5","arrowright","psychophysics","416","513318","0.0-3.0-0.203","","key","arrowright","16.655999999988126","640","284.5","204","8","-1","30","15","25","35","false"
"null","null","psychophysics","417","514321","0.0-3.0-1.203","","key","null","16.659866666666737","640","284.5","","","","","","","",""
"10.5","arrowright","psychophysics","418","514334","0.0-3.0-0.204","","key","arrowright","NaN","640","284.5","205","8","1","23","15","25","35","true"
"null","null","psychophysics","419","515336","0.0-3.0-1.204","","key","null","16.660508474576783","640","284.5","","","","","","","",""
"369.2999999523163","arrowright","psychophysics","420","515710","0.0-3.0-0.205","","key","arrowright","16.657272727271035","640","284.5","206","8","1","30","35","25","35","true"
"null","null","psychophysics","421","516718","0.0-3.0-1.205","","key","null","16.660593220339575","640","284.5","","","","","","","",""
"128.69999980926514","arrowright","psychophysics","422","516853","0.0-3.0-0.206","","key","arrowright","16.636624999999185","640","284.5","207","8","-1","20","35","25","35","false"
"null","null","psychophysics","423","517868","0.0-3.0-1.206","","key","null","16.657898305084604","640","284.5","","","","","","","",""
"230.40000009536743","arrowright","psychophysics","424","518103","0.0-3.0-0.207","","key","arrowright","16.658214285716117","640","284.5","208","8","1","27","15","25","35","true"
"null","null","psychophysics","425","519117","0.0-3.0-1.207","","key","null","16.65844067796607","640","284.5","","","","","","","",""
"235.39999985694885","arrowright","psychophysics","426","519363","0.0-3.0-0.208","","key","arrowright","16.659357142859204","640","284.5","209","8","1","27","15","25","35","true"
"null","null","psychophysics","427","520366","0.0-3.0-1.208","","key","null","16.657271186440347","640","284.5","","","","","","","",""
"94.29999995231628","arrowright","psychophysics","428","520466","0.0-3.0-0.209","","key","arrowright","16.657400000002234","640","284.5","210","8","-1","25","35","25","35","false"
"null","null","psychophysics","429","521468","0.0-3.0-1.209","","key","null","16.658533333334102","640","284.5","","","","","","","",""
"56.799999952316284","arrowright","psychophysics","430","521528","0.0-3.0-0.210","","key","arrowright","16.668499999999767","640","284.5","211","8","-1","25","35","25","35","false"
"null","null","psychophysics","431","522532","0.0-3.0-1.210","","key","null","16.658118644068253","640","284.5","","","","","","","",""
"293.5","arrowright","psychophysics","432","522831","0.0-3.0-0.211","","key","arrowright","16.656588235294777","640","284.5","212","8","1","24","15","25","35","true"
"null","null","psychophysics","433","523832","0.0-3.0-1.211","","key","null","16.65928333333286","640","284.5","","","","","","","",""
"268.5","arrowright","psychophysics","434","524104","0.0-3.0-0.212","","key","arrowright","16.656666666665114","640","284.5","213","8","-1","23","15","25","35","false"
"null","null","psychophysics","435","525115","0.0-3.0-1.212","","key","null","16.657566666667115","640","284.5","","","","","","","",""
"156.70000004768372","arrowright","psychophysics","436","525275","0.0-3.0-0.213","","key","arrowright","16.65724999998929","640","284.5","214","8","-1","23","35","25","35","false"
"null","null","psychophysics","437","526280","0.0-3.0-1.213","","key","null","16.65622033898411","640","284.5","","","","","","","",""
"16.600000143051147","arrowright","psychophysics","438","526302","0.0-3.0-0.214","","key","arrowright","16.655999999959022","640","284.5","215","8","-1","24","35","25","35","false"
"null","null","psychophysics","439","527312","0.0-3.0-1.214","","key","null","16.657576271186787","640","284.5","","","","","","","",""
"27.90000009536743","arrowright","psychophysics","440","527346","0.0-3.0-0.215","","key","arrowright","16.571499999961816","640","284.5","216","8","1","30","35","25","35","true"
"null","null","psychophysics","441","528362","0.0-3.0-1.215","","key","null","16.66089830508503","640","284.5","","","","","","","",""
"47.40000009536743","arrowright","psychophysics","442","528414","0.0-3.0-0.216","","key","arrowright","16.65366666667008","640","284.5","217","8","-1","30","35","25","35","false"
"null","null","psychophysics","443","529429","0.0-3.0-1.216","","key","null","16.657400000000294","640","284.5","","","","","","","",""
"90.59999990463257","arrowright","psychophysics","444","529523","0.0-3.0-0.217","","key","arrowright","16.65450000000419","640","284.5","218","8","-1","25","35","25","35","false"
"null","null","psychophysics","445","530527","0.0-3.0-1.217","","key","null","16.657440677965926","640","284.5","","","","","","","",""
"184","arrowright","psychophysics","446","530716","0.0-3.0-0.218","","key","arrowright","16.652545454541475","640","284.5","219","8","-1","26","15","25","35","false"
"null","null","psychophysics","447","531727","0.0-3.0-1.218","","key","null","16.65761016949151","640","284.5","","","","","","","",""
"167.20000004768372","arrowright","psychophysics","448","531901","0.0-3.0-0.219","","key","arrowright","16.64650000000838","640","284.5","220","8","1","23","35","25","35","true"
"null","null","psychophysics","449","532910","0.0-3.0-1.219","","key","null","16.657677966102927","640","284.5","","","","","","","",""
"138.59999990463257","arrowright","psychophysics","450","533054","0.0-3.0-0.220","","key","arrowright","16.652375000005122","640","284.5","221","8","1","30","15","25","35","true"
"null","null","psychophysics","451","534059","0.0-3.0-1.220","","key","null","16.65755932203344","640","284.5","","","","","","","",""
"262.60000014305115","arrowright","psychophysics","452","534327","0.0-3.0-0.221","","key","arrowright","16.656562499993015","640","284.5","222","8","-1","30","15","25","35","false"
"null","null","psychophysics","453","535341","0.0-3.0-1.221","","key","null","16.656983050847252","640","284.5","","","","","","","",""
"216.40000009536743","arrowright","psychophysics","454","535563","0.0-3.0-0.222","","key","arrowright","16.655615384618823","640","284.5","223","8","1","30","35","25","35","true"
"null","null","psychophysics","455","536574","0.0-3.0-1.222","","key","null","16.65759322033816","640","284.5","","","","","","","",""
"240.59999990463257","arrowright","psychophysics","456","536820","0.0-3.0-0.223","","key","arrowright","16.65900000000173","640","284.5","224","9","1","25","35","25","35","true"
"null","null","psychophysics","457","537823","0.0-3.0-1.223","","key","null","16.657440677965926","640","284.5","","","","","","","",""
"1230.1999998092651","arrowright","html-keyboard-response","458","539055","0.0-3.0-2.223-0.223","<div style=""color: white; text-align: center; vertical-align: top; display: inline-block; width: 800px; margin: auto""><p>You have completed 80% of the trials. You are on block 9 of 10. <br>Good job! Take a break if you need to.</p><p>Press any key to continue the experiment.</p></div>","","","","","","","","","","","","",""
"390.90000009536743","arrowright","psychophysics","459","540462","0.0-3.0-0.224","","key","arrowright","17.207043478260342","640","284.5","225","9","-1","24","35","25","35","false"
"null","null","psychophysics","460","541471","0.0-3.0-1.224","","key","null","16.657135593219486","640","284.5","","","","","","","",""
"412.60000014305115","arrowright","psychophysics","461","541894","0.0-3.0-0.225","","key","arrowright","16.656439999998547","640","284.5","226","9","1","24","35","25","35","true"
"null","null","psychophysics","462","542904","0.0-3.0-1.225","","key","null","16.65761666666561","640","284.5","","","","","","","",""
"22.299999952316284","arrowright","psychophysics","463","542930","0.0-3.0-0.226","","key","arrowright","NaN","640","284.5","227","9","-1","26","15","25","35","false"
"null","null","psychophysics","464","543937","0.0-3.0-1.226","","key","null","16.657333333332403","640","284.5","","","","","","","",""
"66.39999985694885","arrowright","psychophysics","465","544006","0.0-3.0-0.227","","key","arrowright","16.706666666665114","640","284.5","228","9","1","24","35","25","35","true"
"null","null","psychophysics","466","545019","0.0-3.0-1.227","","key","null","16.65763333333307","640","284.5","","","","","","","",""
"61.09999990463257","arrowright","psychophysics","467","545084","0.0-3.0-0.228","","key","arrowright","16.659500000008848","640","284.5","229","9","-1","20","15","25","35","false"
"null","null","psychophysics","468","546085","0.0-3.0-1.228","","key","null","16.658799999998884","640","284.5","","","","","","","",""
"53.40000009536743","arrowright","psychophysics","469","546142","0.0-3.0-0.229","","key","arrowright","16.664999999979045","640","284.5","230","9","-1","25","15","25","35","false"
"null","null","psychophysics","470","547151","0.0-3.0-1.229","","key","null","16.657491525423996","640","284.5","","","","","","","",""
"182.40000009536743","arrowright","psychophysics","471","547338","0.0-3.0-0.230","","key","arrowright","16.657636363630775","640","284.5","231","9","-1","26","15","25","35","false"
"null","null","psychophysics","472","548351","0.0-3.0-1.230","","key","null","16.657666666666046","640","284.5","","","","","","","",""
"142","arrowright","psychophysics","473","548496","0.0-3.0-0.231","","key","arrowright","16.656142857158557","640","284.5","232","9","1","20","15","25","35","true"
"null","null","psychophysics","474","549501","0.0-3.0-1.231","","key","null","16.658416666666746","640","284.5","","","","","","","",""
"450.39999985694885","arrowright","psychophysics","475","549955","0.0-3.0-0.232","","key","arrowright","16.65703846154233","640","284.5","233","9","1","30","15","25","35","true"
"null","null","psychophysics","476","550966","0.0-3.0-1.232","","key","null","16.656766666667924","640","284.5","","","","","","","",""
"156.40000009536743","arrowright","psychophysics","477","551126","0.0-3.0-0.233","","key","arrowright","16.656749999994645","640","284.5","234","9","1","24","15","25","35","true"
"null","null","psychophysics","478","552131","0.0-3.0-1.233","","key","null","16.657101694914765","640","284.5","","","","","","","",""
"288.90000009536743","arrowright","psychophysics","479","552425","0.0-3.0-0.234","","key","arrowright","16.652882352937013","640","284.5","235","9","-1","25","15","25","35","false"
"null","null","psychophysics","480","553432","0.0-3.0-1.234","","key","null","16.658316666665876","640","284.5","","","","","","","",""
"232.60000014305115","arrowright","psychophysics","481","553668","0.0-3.0-0.235","","key","arrowright","16.658769230770233","640","284.5","236","9","1","27","15","25","35","true"
"null","null","psychophysics","482","554681","0.0-3.0-1.235","","key","null","16.65746666666625","640","284.5","","","","","","","",""
"132.09999990463257","arrowright","psychophysics","483","554816","0.0-3.0-0.236","","key","arrowright","16.656142857141926","640","284.5","237","9","-1","23","35","25","35","false"
"null","null","psychophysics","484","555830","0.0-3.0-1.236","","key","null","16.657383333334778","640","284.5","","","","","","","",""
"215.39999985694885","arrowright","psychophysics","485","556049","0.0-3.0-0.237","","key","arrowright","16.659666666664027","640","284.5","238","9","1","26","15","25","35","true"
"null","null","psychophysics","486","557062","0.0-3.0-1.237","","key","null","16.657033898305322","640","284.5","","","","","","","",""
"99.90000009536743","arrowright","psychophysics","487","557167","0.0-3.0-0.238","","key","arrowright","16.654833333333954","640","284.5","239","9","1","23","15","25","35","true"
"null","null","psychophysics","488","558179","0.0-3.0-1.238","","key","null","16.657766666666916","640","284.5","","","","","","","",""
"218.39999985694885","arrowright","psychophysics","489","558400","0.0-3.0-0.239","","key","arrowright","16.658666666665038","640","284.5","240","9","-1","24","15","25","35","false"
"null","null","psychophysics","490","559412","0.0-3.0-1.239","","key","null","16.657983333334172","640","284.5","","","","","","","",""
"102.29999995231628","arrowright","psychophysics","491","559517","0.0-3.0-0.240","","key","arrowright","16.659399999980813","640","284.5","241","9","1","26","15","25","35","true"
"null","null","psychophysics","492","560527","0.0-3.0-1.240","","key","null","16.657525423728718","640","284.5","","","","","","","",""
"163.59999990463257","arrowright","psychophysics","493","560701","0.0-3.0-0.241","","key","arrowright","16.656199999991806","640","284.5","242","9","-1","23","15","25","35","false"
"null","null","psychophysics","494","561709","0.0-3.0-1.241","","key","null","16.657220338982277","640","284.5","","","","","","","",""
"172.09999990463257","arrowright","psychophysics","495","561887","0.0-3.0-0.242","","key","arrowright","16.657799999997952","640","284.5","243","9","-1","23","15","25","35","false"
"null","null","psychophysics","496","562893","0.0-3.0-1.242","","key","null","16.65819999999949","640","284.5","","","","","","","",""
"180.40000009536743","arrowright","psychophysics","497","563077","0.0-3.0-0.243","","key","arrowright","16.649599999992642","640","284.5","244","9","-1","27","15","25","35","false"
"null","null","psychophysics","498","564092","0.0-3.0-1.243","","key","null","16.657583333332635","640","284.5","","","","","","","",""
"185.79999995231628","arrowright","psychophysics","499","564282","0.0-3.0-0.244","","key","arrowright","16.644799999997485","640","284.5","245","9","1","23","15","25","35","true"
"null","null","psychophysics","500","565292","0.0-3.0-1.244","","key","null","16.657266666666448","640","284.5","","","","","","","",""
"190.20000004768372","arrowright","psychophysics","501","565485","0.0-3.0-0.245","","key","arrowright","16.659499999997205","640","284.5","246","9","1","25","15","25","35","true"
"null","null","psychophysics","502","566491","0.0-3.0-1.245","","key","null","16.657399999998354","640","284.5","","","","","","","",""
"230.20000004768372","arrowright","psychophysics","503","566725","0.0-3.0-0.246","","key","arrowright","16.651153846151338","640","284.5","247","9","-1","24","15","25","35","false"
"null","null","psychophysics","504","567739","0.0-3.0-1.246","","key","null","16.657016949151974","640","284.5","","","","","","","",""
"204.5","arrowright","psychophysics","505","567949","0.0-3.0-0.247","","key","arrowright","16.655083333336126","640","284.5","248","9","1","26","15","25","35","true"
"null","null","psychophysics","506","568956","0.0-3.0-1.247","","key","null","16.65761666666561","640","284.5","","","","","","","",""
"270.2000000476837","arrowright","psychophysics","507","569230","0.0-3.0-0.248","","key","arrowright","16.657333333332403","640","284.5","249","9","-1","25","35","25","35","false"
"null","null","psychophysics","508","570239","0.0-3.0-1.248","","key","null","16.657500000001164","640","284.5","","","","","","","",""
"509.10000014305115","arrowright","psychophysics","509","570752","0.0-3.0-0.249","","key","arrowright","16.65765517241129","640","284.5","250","9","-1","30","35","25","35","false"
"null","null","psychophysics","510","571754","0.0-3.0-1.249","","key","null","16.65922033898256","640","284.5","","","","","","","",""
"0.09999990463256836","arrowright","psychophysics","511","571759","0.0-3.0-0.250","","key","arrowright","NaN","640","284.5","251","9","-1","20","35","25","35","false"
"null","null","psychophysics","512","572770","0.0-3.0-1.250","","key","null","16.65755932203344","640","284.5","","","","","","","",""
"63.799999952316284","arrowright","psychophysics","513","572836","0.0-3.0-0.251","","key","arrowright","16.655999999997828","640","284.5","252","10","1","23","15","25","35","true"
"null","null","psychophysics","514","573838","0.0-3.0-1.251","","key","null","16.660116666666","640","284.5","","","","","","","",""
"1944.4000000953674","arrowright","html-keyboard-response","515","575783","0.0-3.0-2.251-0.251","<div style=""color: white; text-align: center; vertical-align: top; display: inline-block; width: 800px; margin: auto""><p>You have completed 90% of the trials. You are on block 10 of 10. <br>Good job! Take a break if you need to.</p><p>Press any key to continue the experiment.</p></div>","","","","","","","","","","","","",""
"387.89999985694885","arrowright","psychophysics","516","577186","0.0-3.0-0.252","","key","arrowright","16.40158333333481","640","284.5","253","10","-1","25","35","25","35","false"
"null","null","psychophysics","517","578197","0.0-3.0-1.252","","key","null","16.65755932203344","640","284.5","","","","","","","",""
"106.5","arrowright","psychophysics","518","578315","0.0-3.0-0.253","","key","arrowright","16.644142857137403","640","284.5","254","10","-1","30","15","25","35","false"
"null","null","psychophysics","519","579330","0.0-3.0-1.253","","key","null","16.657423728814553","640","284.5","","","","","","","",""
"97","arrowright","psychophysics","520","579432","0.0-3.0-0.254","","key","arrowright","16.650833333318587","640","284.5","255","10","-1","27","35","25","35","false"
"null","null","psychophysics","521","580446","0.0-3.0-1.254","","key","null","16.65737288135451","640","284.5","","","","","","","",""
"98.39999985694885","arrowright","psychophysics","522","580550","0.0-3.0-0.255","","key","arrowright","16.66433333333892","640","284.5","256","10","1","24","35","25","35","true"
"null","null","psychophysics","523","581562","0.0-3.0-1.255","","key","null","16.656711864405533","640","284.5","","","","","","","",""
"220.5","arrowright","psychophysics","524","581788","0.0-3.0-0.256","","key","arrowright","16.65661538461259","640","284.5","257","10","1","24","15","25","35","true"
"null","null","psychophysics","525","582795","0.0-3.0-1.256","","key","null","16.65764406779623","640","284.5","","","","","","","",""
"232.90000009536743","arrowright","psychophysics","526","583033","0.0-3.0-0.257","","key","arrowright","16.657285714289173","640","284.5","258","10","1","23","35","25","35","true"
"null","null","psychophysics","527","584044","0.0-3.0-1.257","","key","null","16.656389830507717","640","284.5","","","","","","","",""
"209.40000009536743","arrowright","psychophysics","528","584259","0.0-3.0-0.258","","key","arrowright","16.657249999998992","640","284.5","259","10","1","27","35","25","35","true"
"null","null","psychophysics","529","585261","0.0-3.0-1.258","","key","null","16.659300000001288","640","284.5","","","","","","","",""
"269.2999999523163","arrowright","psychophysics","530","585533","0.0-3.0-0.259","","key","arrowright","16.657333333340162","640","284.5","260","10","-1","27","15","25","35","false"
"null","null","psychophysics","531","586542","0.0-3.0-1.259","","key","null","16.65764406779623","640","284.5","","","","","","","",""
"276.80000019073486","arrowright","psychophysics","532","586825","0.0-3.0-0.260","","key","arrowright","16.65612500000134","640","284.5","261","10","-1","24","35","25","35","false"
"null","null","psychophysics","533","587827","0.0-3.0-1.260","","key","null","16.65940000000022","640","284.5","","","","","","","",""
"164.5","arrowright","psychophysics","534","587994","0.0-3.0-0.261","","key","arrowright","16.65911111110149","640","284.5","262","10","1","30","15","25","35","true"
"null","null","psychophysics","535","589008","0.0-3.0-1.261","","key","null","16.65733898304979","640","284.5","","","","","","","",""
"104.90000009536743","arrowright","psychophysics","536","589118","0.0-3.0-0.262","","key","arrowright","16.65633333332759","640","284.5","263","10","1","20","35","25","35","true"
"null","null","psychophysics","537","590124","0.0-3.0-1.262","","key","null","16.66010169491519","640","284.5","","","","","","","",""
"159.5","arrowright","psychophysics","538","590289","0.0-3.0-0.263","","key","arrowright","16.65733333334275","640","284.5","264","10","1","23","35","25","35","true"
"null","null","psychophysics","539","591291","0.0-3.0-1.263","","key","null","16.65948333333363","640","284.5","","","","","","","",""
"92.59999990463257","arrowright","psychophysics","540","591387","0.0-3.0-0.264","","key","arrowright","16.65824999997858","640","284.5","265","10","-1","30","35","25","35","false"
"null","null","psychophysics","541","592389","0.0-3.0-1.264","","key","null","16.659305084745352","640","284.5","","","","","","","",""
"205.90000009536743","arrowright","psychophysics","542","592601","0.0-3.0-0.265","","key","arrowright","16.655833333332946","640","284.5","266","10","1","20","35","25","35","true"
"null","null","psychophysics","543","593605","0.0-3.0-1.265","","key","null","16.657491525423996","640","284.5","","","","","","","",""
"8.899999856948853","arrowright","psychophysics","544","593620","0.0-3.0-0.266","","key","arrowright","NaN","640","284.5","267","10","-1","27","15","25","35","false"
"null","null","psychophysics","545","594623","0.0-3.0-1.266","","key","null","16.65826666666544","640","284.5","","","","","","","",""
"84.89999985694885","arrowright","psychophysics","546","594711","0.0-3.0-0.267","","key","arrowright","16.666750000003958","640","284.5","268","10","-1","20","15","25","35","false"
"null","null","psychophysics","547","595721","0.0-3.0-1.267","","key","null","16.65776271186572","640","284.5","","","","","","","",""
"16.700000047683716","arrowright","psychophysics","548","595748","0.0-3.0-0.268","","key","arrowright","16.652999999932945","640","284.5","269","10","-1","20","35","25","35","false"
"null","null","psychophysics","549","596753","0.0-3.0-1.268","","key","null","16.65708474576339","640","284.5","","","","","","","",""
"123.59999990463257","arrowright","psychophysics","550","596882","0.0-3.0-0.269","","key","arrowright","16.659857142866322","640","284.5","270","10","1","30","35","25","35","true"
"null","null","psychophysics","551","597886","0.0-3.0-1.269","","key","null","16.65742372881258","640","284.5","","","","","","","",""
"147.10000014305115","arrowright","psychophysics","552","598038","0.0-3.0-0.270","","key","arrowright","16.65855555555835","640","284.5","271","10","-1","23","35","25","35","false"
"null","null","psychophysics","553","599052","0.0-3.0-1.270","","key","null","16.65735593220314","640","284.5","","","","","","","",""
"64.39999985694885","arrowright","psychophysics","554","599122","0.0-3.0-0.271","","key","arrowright","16.660000000003492","640","284.5","272","10","-1","27","35","25","35","false"
"null","null","psychophysics","555","600135","0.0-3.0-1.271","","key","null","16.657745762710395","640","284.5","","","","","","","",""
"121.89999985694885","arrowright","psychophysics","556","600268","0.0-3.0-0.272","","key","arrowright","16.629142857140064","640","284.5","273","10","1","24","15","25","35","true"
"null","null","psychophysics","557","601284","0.0-3.0-1.272","","key","null","16.65889999999975","640","284.5","","","","","","","",""
"30.299999952316284","arrowright","psychophysics","558","601320","0.0-3.0-0.273","","key","arrowright","16.660000000032596","640","284.5","274","10","1","23","35","25","35","true"
"null","null","psychophysics","559","602334","0.0-3.0-1.273","","key","null","16.657101694914765","640","284.5","","","","","","","",""
"95.79999995231628","arrowright","psychophysics","560","602436","0.0-3.0-0.274","","key","arrowright","16.669166666668996","640","284.5","275","10","-1","26","15","25","35","false"
"null","null","psychophysics","561","603450","0.0-3.0-1.274","","key","null","16.657050847456695","640","284.5","","","","","","","",""
"119.59999990463257","arrowright","psychophysics","562","603581","0.0-3.0-0.275","","key","arrowright","16.660142857148976","640","284.5","276","10","1","26","35","25","35","true"
"null","null","psychophysics","563","604583","0.0-3.0-1.275","","key","null","16.659745762712653","640","284.5","","","","","","","",""
"124.90000009536743","arrowright","psychophysics","564","604714","0.0-3.0-0.276","","key","arrowright","16.658571428569434","640","284.5","277","10","1","25","15","25","35","true"
"null","null","psychophysics","565","605716","0.0-3.0-1.276","","key","null","16.658728813559165","640","284.5","","","","","","","",""
"49","arrowright","psychophysics","566","605770","0.0-3.0-0.277","","key","arrowright","16.65966666668343","640","284.5","278","10","-1","25","35","25","35","false"
"null","null","psychophysics","567","606782","0.0-3.0-1.277","","key","null","16.657220338982277","640","284.5","","","","","","","",""
"5","arrowright","psychophysics","568","606792","0.0-3.0-0.278","","key","arrowright","NaN","640","284.5","279","10","1","27","15","25","35","true"
"null","null","psychophysics","569","607798","0.0-3.0-1.278","","key","null","16.656796610168325","640","284.5","","","","","","","",""
"162.30000019073486","arrowright","psychophysics","570","607966","0.0-3.0-0.279","","key","arrowright","16.644499999994878","640","284.5","280","11","-1","30","35","25","35","false"
"null","null","psychophysics","571","608980","0.0-3.0-1.279","","key","null","16.657491525423996","640","284.5","","","","","","","",""
