"rt","response","trial_type","trial_index","time_elapsed","internal_node_id","stimulus","response_type","key_press","avg_frame_time","center_x","center_y","trial","block","test_pos","test_inner_radius","test_outer_radius","ref_inner_radius","ref_outer_radius","test_bigger"
"89686.70000004768","{""p_id"":""9292"",""age"":""19"",""handedness"":""right"",""sex"":""female"",""other_sex"":""""}","survey-html-form","0","89685","0.0-0.0","","","","","","","","","","","","","",""
"5230.899999976158"," ","html-keyboard-response","1","94919","0.0-1.0","<p style=""color: white"">Welcome to the Size Judgment Experiment. <br>There will be 10 blocks in this experiment. <br>There will be 28 trials in each block. <br>You will be given a chance to take a break between blocks. <br>Press any key to start the experiment.</p>","","","","","","","","","","","","",""
"14983.399999976158","f","psychophysics","2","109926","0.0-2.0","","key","f","16.68632666666667","720","394.5","","","","","","","",""
"1216.8999999761581","arrowright","psychophysics","3","111147","0.0-3.0-0.0","","key","arrowright","16.666999999999867","720","394.5","1","1","-1","30","15","25","35","false"
"null","null","psychophysics","4","112153","0.0-3.0-1.0","","key","null","16.667000000000048","720","394.5","","","","","","","",""
"1338.3999999761581","arrowleft","psychophysics","5","113498","0.0-3.0-0.1","","key","arrowleft","16.66700000000001","720","394.5","2","1","1","20","35","25","35","false"
"null","null","psychophysics","6","114503","0.0-3.0-1.1","","key","null","16.667000000000048","720","394.5","","","","","","","",""
"879.8999999761581","arrowright","psychophysics","7","115389","0.0-3.0-0.2","","key","arrowright","16.679264150943194","720","394.5","3","1","1","30","35","25","35","true"
"null","null","psychophysics","8","116395","0.0-3.0-1.2","","key","null","16.667000000000048","720","394.5","","","","","","","",""
"762.3999999761581","arrowleft","psychophysics","9","117161","0.0-3.0-0.3","","key","arrowleft","16.666999999999987","720","394.5","4","1","1","20","15","25","35","false"
"null","null","psychophysics","10","118167","0.0-3.0-1.3","","key","null","16.667000000000048","720","394.5","","","","","","","",""
"22990","arrowleft","psychophysics","11","141159","0.0-3.0-0.4","","key","arrowleft","16.66723640319072","720","394.5","5","1","-1","24","15","25","35","true"
"null","null","psychophysics","12","142163","0.0-3.0-1.4","","key","null","16.667000000000048","720","394.5","","","","","","","",""
"5580.300000071526","arrowright","psychophysics","13","147748","0.0-3.0-0.5","","key","arrowright","16.668949101796418","720","394.5","6","1","-1","23","15","25","35","false"
"null","null","psychophysics","14","148753","0.0-3.0-1.5","","key","null","16.667000000000048","720","394.5","","","","","","","",""
"6270.699999928474","arrowleft","psychophysics","15","155031","0.0-3.0-0.6","","key","arrowleft","16.66700000000004","720","394.5","7","1","1","27","35","25","35","false"
"null","null","psychophysics","16","156037","0.0-3.0-1.6","","key","null","16.667000000000048","720","394.5","","","","","","","",""
"10711.800000071526","arrowright","psychophysics","17","166754","0.0-3.0-0.7","","key","arrowright","16.66801401869162","720","394.5","8","1","1","27","35","25","35","true"
"null","null","psychophysics","18","167756","0.0-3.0-1.7","","key","null","16.66700000000031","720","394.5","","","","","","","",""
"2574.1999999284744","arrowleft","psychophysics","19","170333","0.0-3.0-0.8","","key","arrowleft","16.667000000000044","720","394.5","9","1","1","26","15","25","35","false"
"null","null","psychophysics","20","171337","0.0-3.0-1.8","","key","null","16.667000000000048","720","394.5","","","","","","","",""
"9522","arrowleft","psychophysics","21","180864","0.0-3.0-0.9","","key","arrowleft","16.66699999999998","720","394.5","10","1","1","27","15","25","35","false"
"null","null","psychophysics","22","181871","0.0-3.0-1.9","","key","null","16.667000000000048","720","394.5","","","","","","","",""
"985.5","arrowleft","psychophysics","23","182862","0.0-3.0-0.10","","key","arrowleft","16.667000000000048","720","394.5","11","1","-1","30","15","25","35","true"
"null","null","psychophysics","24","183867","0.0-3.0-1.10","","key","null","16.667000000000048","720","394.5","","","","","","","",""
"774.2000000476837","arrowright","psychophysics","25","184645","0.0-3.0-0.11","","key","arrowright","16.667000000000016","720","394.5","12","1","1","30","35","25","35","true"
"null","null","psychophysics","26","185650","0.0-3.0-1.11","","key","null","16.67801694915249","720","394.5","","","","","","","",""
"2250.600000023842","arrowleft","psychophysics","27","187905","0.0-3.0-0.12","","key","arrowleft","16.667000000000193","720","394.5","13","1","-1","24","35","25","35","true"
"null","null","psychophysics","28","188906","0.0-3.0-1.12","","key","null","16.666999999999824","720","394.5","","","","","","","",""
"2806.2999999523163","arrowright","psychophysics","29","191716","0.0-3.0-0.13","","key","arrowright","16.666999999999973","720","394.5","14","1","1","24","35","25","35","true"
"null","null","psychophysics","30","192721","0.0-3.0-1.13","","key","null","16.667000000000048","720","394.5","","","","","","","",""
"959.2000000476837","arrowleft","psychophysics","31","193686","0.0-3.0-0.14","","key","arrowleft","16.667000000000005","720","394.5","15","1","-1","27","35","25","35","true"
"null","null","psychophysics","32","194688","0.0-3.0-1.14","","key","null","16.667000000000048","720","394.5","","","","","","","",""
"11674.899999976158","arrowleft","psychophysics","33","206367","0.0-3.0-0.15","","key","arrowleft","16.667929999999966","720","394.5","16","1","1","25","35","25","35","false"
"null","null","psychophysics","34","207371","0.0-3.0-1.15","","key","null","16.667000000000048","720","394.5","","","","","","","",""
"2834.100000023842","arrowleft","psychophysics","35","210210","0.0-3.0-0.16","","key","arrowleft","16.667000000000083","720","394.5","17","1","1","27","15","25","35","false"
"null","null","psychophysics","36","211212","0.0-3.0-1.16","","key","null","16.667000000000048","720","394.5","","","","","","","",""
"1472.8999999761581","arrowright","psychophysics","37","212688","0.0-3.0-0.17","","key","arrowright","16.666999999999774","720","394.5","18","1","1","26","35","25","35","true"
"null","null","psychophysics","38","213692","0.0-3.0-1.17","","key","null","16.666999999999824","720","394.5","","","","","","","",""
"1782.2000000476837","arrowright","psychophysics","39","215477","0.0-3.0-0.18","","key","arrowright","16.667000000000183","720","394.5","19","1","1","30","35","25","35","true"
"null","null","psychophysics","40","216482","0.0-3.0-1.18","","key","null","16.667000000000048","720","394.5","","","","","","","",""
"3513.7000000476837","arrowright","psychophysics","41","219999","0.0-3.0-0.19","","key","arrowright","16.666999999999895","720","394.5","20","1","-1","20","15","25","35","false"
"null","null","psychophysics","42","221005","0.0-3.0-1.19","","key","null","16.667000000000048","720","394.5","","","","","","","",""
"1065.7000000476837","arrowleft","psychophysics","43","222076","0.0-3.0-0.20","","key","arrowleft","16.666999999999916","720","394.5","21","1","1","20","15","25","35","false"
"null","null","psychophysics","44","223082","0.0-3.0-1.20","","key","null","16.667000000000048","720","394.5","","","","","","","",""
"4764.300000071526","arrowleft","psychophysics","45","227850","0.0-3.0-0.21","","key","arrowleft","16.66928070175437","720","394.5","22","1","1","23","15","25","35","false"
"null","null","psychophysics","46","228855","0.0-3.0-1.21","","key","null","16.667000000000048","720","394.5","","","","","","","",""
"2955","arrowright","psychophysics","47","231813","0.0-3.0-0.22","","key","arrowright","16.667000000000048","720","394.5","23","1","1","30","35","25","35","true"
"null","null","psychophysics","48","232820","0.0-3.0-1.22","","key","null","16.667000000000048","720","394.5","","","","","","","",""
"1045","arrowleft","psychophysics","49","233868","0.0-3.0-0.23","","key","arrowleft","16.666999999999874","720","394.5","24","1","-1","24","15","25","35","true"
"null","null","psychophysics","50","234872","0.0-3.0-1.23","","key","null","16.667000000000048","720","394.5","","","","","","","",""
"10290.699999928474","arrowleft","psychophysics","51","245166","0.0-3.0-0.24","","key","arrowleft","16.668055105348465","720","394.5","25","1","-1","26","35","25","35","true"
"null","null","psychophysics","52","246172","0.0-3.0-1.24","","key","null","16.667000000000048","720","394.5","","","","","","","",""
"824.7999999523163","arrowleft","psychophysics","53","247000","0.0-3.0-0.25","","key","arrowleft","16.666999999999796","720","394.5","26","1","-1","30","15","25","35","true"
"null","null","psychophysics","54","248006","0.0-3.0-1.25","","key","null","16.667000000000048","720","394.5","","","","","","","",""
"9032.899999976158","arrowright","psychophysics","55","257045","0.0-3.0-0.26","","key","arrowright","16.66699999999999","720","394.5","27","1","-1","25","35","25","35","false"
"null","null","psychophysics","56","258048","0.0-3.0-1.26","","key","null","16.667000000000048","720","394.5","","","","","","","",""
"2749.600000023842","arrowleft","psychophysics","57","260801","0.0-3.0-0.27","","key","arrowleft","16.66699999999986","720","394.5","28","2","1","25","35","25","35","false"
"null","null","psychophysics","58","261807","0.0-3.0-1.27","","key","null","16.666999999999824","720","394.5","","","","","","","",""
"8323.799999952316","j","html-keyboard-response","59","270132","0.0-3.0-2.27-0.27","<div style=""color: white; text-align: center; vertical-align: top; display: inline-block; width: 800px; margin: auto""><p>You have completed 10% of the trials. You are on block 2 of 10. <br>Good job! Take a break if you need to.</p><p>Press any key to continue the experiment.</p></div>","","","","","","","","","","","","",""
"5737.700000047684","arrowright","psychophysics","60","276879","0.0-3.0-0.28","","key","arrowright","16.666999999999973","720","394.5","29","2","-1","24","35","25","35","false"
"null","null","psychophysics","61","277885","0.0-3.0-1.28","","key","null","16.667000000000048","720","394.5","","","","","","","",""
"794.8999999761581","arrowleft","psychophysics","62","278684","0.0-3.0-0.29","","key","arrowleft","16.66700000000097","720","394.5","30","2","1","27","15","25","35","false"
"null","null","psychophysics","63","279689","0.0-3.0-1.29","","key","null","16.667000000000048","720","394.5","","","","","","","",""
"952.6000000238419","arrowright","psychophysics","64","280648","0.0-3.0-0.30","","key","arrowright","16.667000000000513","720","394.5","31","2","1","30","35","25","35","true"
"null","null","psychophysics","65","281652","0.0-3.0-1.30","","key","null","16.667000000000048","720","394.5","","","","","","","",""
"1042.8000000715256","arrowleft","psychophysics","66","282699","0.0-3.0-0.31","","key","arrowleft","16.666999999999874","720","394.5","32","2","-1","25","15","25","35","true"
"null","null","psychophysics","67","283702","0.0-3.0-1.31","","key","null","16.667000000000048","720","394.5","","","","","","","",""
"1423.2999999523163","arrowright","psychophysics","68","285128","0.0-3.0-0.32","","key","arrowright","16.666999999999398","720","394.5","33","2","-1","20","35","25","35","false"
"null","null","psychophysics","69","286130","0.0-3.0-1.32","","key","null","16.667000000000048","720","394.5","","","","","","","",""
"1307.1000000238419","arrowleft","psychophysics","70","287441","0.0-3.0-0.33","","key","arrowleft","16.66700000000016","720","394.5","34","2","1","25","15","25","35","false"
"null","null","psychophysics","71","288448","0.0-3.0-1.33","","key","null","16.667000000000048","720","394.5","","","","","","","",""
"973.5","arrowright","psychophysics","72","289424","0.0-3.0-0.34","","key","arrowright","16.666999999999774","720","394.5","35","2","1","30","15","25","35","true"
"null","null","psychophysics","73","290426","0.0-3.0-1.34","","key","null","16.678016949152","720","394.5","","","","","","","",""
"1318.6000000238419","arrowleft","psychophysics","74","291747","0.0-3.0-0.35","","key","arrowleft","16.66700000000016","720","394.5","36","2","1","26","15","25","35","false"
"null","null","psychophysics","75","292753","0.0-3.0-1.35","","key","null","16.667000000000048","720","394.5","","","","","","","",""
"976.7000000476837","arrowright","psychophysics","76","293733","0.0-3.0-0.36","","key","arrowright","16.66700000000078","720","394.5","37","2","1","27","35","25","35","true"
"null","null","psychophysics","77","294739","0.0-3.0-1.36","","key","null","16.667000000000048","720","394.5","","","","","","","",""
"4148.200000047684","arrowright","psychophysics","78","298893","0.0-3.0-0.37","","key","arrowright","16.666999999999938","720","394.5","38","2","-1","23","35","25","35","false"
"null","null","psychophysics","79","299897","0.0-3.0-1.37","","key","null","16.667000000000048","720","394.5","","","","","","","",""
"920.4000000953674","arrowleft","psychophysics","80","300821","0.0-3.0-0.38","","key","arrowleft","16.666999999999664","720","394.5","39","2","-1","27","15","25","35","true"
"null","null","psychophysics","81","301823","0.0-3.0-1.38","","key","null","16.667000000000048","720","394.5","","","","","","","",""
"10743.600000023842","arrowleft","psychophysics","82","312572","0.0-3.0-0.39","","key","arrowleft","16.668009316770238","720","394.5","40","2","1","25","35","25","35","false"
"null","null","psychophysics","83","313574","0.0-3.0-1.39","","key","null","16.667000000000048","720","394.5","","","","","","","",""
"2093.7000000476837","arrowright","psychophysics","84","315673","0.0-3.0-0.40","","key","arrowright","16.667","720","394.5","41","2","-1","20","35","25","35","false"
"null","null","psychophysics","85","316675","0.0-3.0-1.40","","key","null","16.66700000000031","720","394.5","","","","","","","",""
"1165.1999999284744","arrowleft","psychophysics","86","317845","0.0-3.0-0.41","","key","arrowleft","16.667000000000648","720","394.5","42","2","1","26","15","25","35","false"
"null","null","psychophysics","87","318848","0.0-3.0-1.41","","key","null","16.667000000000048","720","394.5","","","","","","","",""
"903.6999999284744","arrowleft","psychophysics","88","319755","0.0-3.0-0.42","","key","arrowleft","16.667000000000456","720","394.5","43","2","-1","27","15","25","35","true"
"null","null","psychophysics","89","320757","0.0-3.0-1.42","","key","null","16.667000000000048","720","394.5","","","","","","","",""
"1142.8000000715256","arrowleft","psychophysics","90","321906","0.0-3.0-0.43","","key","arrowleft","16.667000000000424","720","394.5","44","2","1","25","15","25","35","false"
"null","null","psychophysics","91","322909","0.0-3.0-1.43","","key","null","16.66700000000031","720","394.5","","","","","","","",""
"1113.6000000238419","arrowright","psychophysics","92","324026","0.0-3.0-0.44","","key","arrowright","16.66699999999996","720","394.5","45","2","1","30","35","25","35","true"
"null","null","psychophysics","93","325031","0.0-3.0-1.44","","key","null","16.667000000000048","720","394.5","","","","","","","",""
"849.2000000476837","arrowleft","psychophysics","94","325884","0.0-3.0-0.45","","key","arrowleft","16.667000000000698","720","394.5","46","2","-1","30","35","25","35","true"
"null","null","psychophysics","95","326890","0.0-3.0-1.45","","key","null","16.667000000000048","720","394.5","","","","","","","",""
"3407.0999999046326","arrowleft","psychophysics","96","330304","0.0-3.0-0.46","","key","arrowleft","16.67018627450977","720","394.5","47","2","1","25","35","25","35","false"
"null","null","psychophysics","97","331307","0.0-3.0-1.46","","key","null","16.667000000000048","720","394.5","","","","","","","",""
"878.1000000238419","arrowleft","psychophysics","98","332187","0.0-3.0-0.47","","key","arrowleft","16.66700000000016","720","394.5","48","2","-1","30","35","25","35","true"
"null","null","psychophysics","99","333191","0.0-3.0-1.47","","key","null","16.667000000000048","720","394.5","","","","","","","",""
"648.3999999761581","arrowright","psychophysics","100","333845","0.0-3.0-0.48","","key","arrowright","16.666999999999415","720","394.5","49","2","-1","25","35","25","35","false"
"null","null","psychophysics","101","334848","0.0-3.0-1.48","","key","null","16.667000000000048","720","394.5","","","","","","","",""
"5281.100000023842","arrowright","psychophysics","102","340132","0.0-3.0-0.49","","key","arrowright","16.66699999999999","720","394.5","50","2","1","24","15","25","35","true"
"null","null","psychophysics","103","341139","0.0-3.0-1.49","","key","null","16.667000000000048","720","394.5","","","","","","","",""
"1050.7999999523163","arrowright","psychophysics","104","342196","0.0-3.0-0.50","","key","arrowright","16.667000000000126","720","394.5","51","2","-1","20","15","25","35","false"
"null","null","psychophysics","105","343198","0.0-3.0-1.50","","key","null","16.667000000000048","720","394.5","","","","","","","",""
"878.3999999761581","arrowleft","psychophysics","106","344080","0.0-3.0-0.51","","key","arrowleft","16.66700000000016","720","394.5","52","2","-1","26","15","25","35","true"
"null","null","psychophysics","107","345086","0.0-3.0-1.51","","key","null","16.667000000000048","720","394.5","","","","","","","",""
"2763.899999976158","arrowright","psychophysics","108","347853","0.0-3.0-0.52","","key","arrowright","16.66699999999996","720","394.5","53","2","-1","23","35","25","35","false"
"null","null","psychophysics","109","348857","0.0-3.0-1.52","","key","null","16.667000000000048","720","394.5","","","","","","","",""
"892.3000000715256","arrowleft","psychophysics","110","349756","0.0-3.0-0.53","","key","arrowleft","16.667000000000456","720","394.5","54","2","1","23","35","25","35","false"
"null","null","psychophysics","111","350759","0.0-3.0-1.53","","key","null","16.678016949152983","720","394.5","","","","","","","",""
"1515.6000000238419","arrowright","psychophysics","112","352281","0.0-3.0-0.54","","key","arrowright","16.66699999999984","720","394.5","55","2","-1","24","35","25","35","false"
"null","null","psychophysics","113","353287","0.0-3.0-1.54","","key","null","16.667000000000048","720","394.5","","","","","","","",""
"989","arrowleft","psychophysics","114","354279","0.0-3.0-0.55","","key","arrowleft","16.667000000000048","720","394.5","56","3","-1","30","35","25","35","true"
"null","null","psychophysics","115","355282","0.0-3.0-1.55","","key","null","16.667000000000048","720","394.5","","","","","","","",""
"15862.399999976158","h","html-keyboard-response","116","371146","0.0-3.0-2.55-0.55","<div style=""color: white; text-align: center; vertical-align: top; display: inline-block; width: 800px; margin: auto""><p>You have completed 20% of the trials. You are on block 3 of 10. <br>Good job! Take a break if you need to.</p><p>Press any key to continue the experiment.</p></div>","","","","","","","","","","","","",""
"2033.5","arrowright","psychophysics","117","374189","0.0-3.0-0.56","","key","arrowright","16.667000000000087","720","394.5","57","3","-1","20","15","25","35","false"
"null","null","psychophysics","118","375192","0.0-3.0-1.56","","key","null","16.667000000000048","720","394.5","","","","","","","",""
"1992.1000000238419","arrowleft","psychophysics","119","377189","0.0-3.0-0.57","","key","arrowleft","16.66700000000018","720","394.5","58","3","1","25","15","25","35","false"
"null","null","psychophysics","120","378192","0.0-3.0-1.57","","key","null","16.667000000000048","720","394.5","","","","","","","",""
"1060.2999999523163","arrowright","psychophysics","121","379259","0.0-3.0-0.58","","key","arrowright","16.667000000000126","720","394.5","59","3","-1","20","15","25","35","false"
"null","null","psychophysics","122","380262","0.0-3.0-1.58","","key","null","16.66700000000031","720","394.5","","","","","","","",""
"976.6000000238419","arrowleft","psychophysics","123","381241","0.0-3.0-0.59","","key","arrowleft","16.667000000000513","720","394.5","60","3","-1","25","15","25","35","true"
"null","null","psychophysics","124","382242","0.0-3.0-1.59","","key","null","16.66699999999934","720","394.5","","","","","","","",""
"1583.7999999523163","arrowleft","psychophysics","125","383830","0.0-3.0-0.60","","key","arrowleft","16.66699999999973","720","394.5","61","3","1","26","15","25","35","false"
"null","null","psychophysics","126","384832","0.0-3.0-1.60","","key","null","16.667000000000048","720","394.5","","","","","","","",""
"3528.899999976158","arrowright","psychophysics","127","388364","0.0-3.0-0.61","","key","arrowright","16.667000000000108","720","394.5","62","3","-1","20","15","25","35","false"
"null","null","psychophysics","128","389368","0.0-3.0-1.61","","key","null","16.667000000000048","720","394.5","","","","","","","",""
"1769.7999999523163","arrowleft","psychophysics","129","391141","0.0-3.0-0.62","","key","arrowleft","16.666999999999756","720","394.5","63","3","1","26","35","25","35","false"
"null","null","psychophysics","130","392143","0.0-3.0-1.62","","key","null","16.67785000000052","720","394.5","","","","","","","",""
"658.4000000953674","arrowleft","psychophysics","131","392804","0.0-3.0-0.63","","key","arrowleft","16.667000000000513","720","394.5","64","3","1","25","15","25","35","false"
"null","null","psychophysics","132","393808","0.0-3.0-1.63","","key","null","16.667000000000048","720","394.5","","","","","","","",""
"10711.299999952316","arrowright","psychophysics","133","404524","0.0-3.0-0.64","","key","arrowright","16.667000000000055","720","394.5","65","3","-1","26","35","25","35","false"
"null","null","psychophysics","134","405525","0.0-3.0-1.64","","key","null","16.66700000000031","720","394.5","","","","","","","",""
"904","arrowleft","psychophysics","135","406432","0.0-3.0-0.65","","key","arrowleft","16.66699999999936","720","394.5","66","3","1","23","15","25","35","false"
"null","null","psychophysics","136","407438","0.0-3.0-1.65","","key","null","16.667000000000048","720","394.5","","","","","","","",""
"8916.199999928474","arrowleft","psychophysics","137","416358","0.0-3.0-0.66","","key","arrowleft","16.668217228464382","720","394.5","67","3","1","24","15","25","35","false"
"null","null","psychophysics","138","417360","0.0-3.0-1.66","","key","null","16.66700000000031","720","394.5","","","","","","","",""
"4863.200000047684","arrowright","psychophysics","139","422227","0.0-3.0-0.67","","key","arrowright","16.66700000000003","720","394.5","68","3","1","25","35","25","35","true"
"null","null","psychophysics","140","423229","0.0-3.0-1.67","","key","null","16.667000000000048","720","394.5","","","","","","","",""
"768.7999999523163","arrowleft","psychophysics","141","424000","0.0-3.0-0.68","","key","arrowleft","16.666999999999017","720","394.5","69","3","-1","30","35","25","35","true"
"null","null","psychophysics","142","425007","0.0-3.0-1.68","","key","null","16.667000000000048","720","394.5","","","","","","","",""
"2556.1999999284744","arrowleft","psychophysics","143","427566","0.0-3.0-0.69","","key","arrowleft","16.666999999999852","720","394.5","70","3","-1","27","35","25","35","true"
"null","null","psychophysics","144","428573","0.0-3.0-1.69","","key","null","16.667000000000048","720","394.5","","","","","","","",""
"1052.8000000715256","arrowleft","psychophysics","145","429629","0.0-3.0-0.70","","key","arrowleft","16.666999999999202","720","394.5","71","3","1","20","35","25","35","false"
"null","null","psychophysics","146","430633","0.0-3.0-1.70","","key","null","16.667000000000048","720","394.5","","","","","","","",""
"718","arrowright","psychophysics","147","431354","0.0-3.0-0.71","","key","arrowright","16.682476190475946","720","394.5","72","3","-1","20","35","25","35","false"
"null","null","psychophysics","148","432359","0.0-3.0-1.71","","key","null","16.667000000000048","720","394.5","","","","","","","",""
"6639.200000047684","arrowleft","psychophysics","149","439003","0.0-3.0-0.72","","key","arrowleft","16.667000000000037","720","394.5","73","3","-1","24","15","25","35","true"
"null","null","psychophysics","150","440009","0.0-3.0-1.72","","key","null","16.667000000000048","720","394.5","","","","","","","",""
"4103","arrowleft","psychophysics","151","444117","0.0-3.0-0.73","","key","arrowleft","16.66699999999998","720","394.5","74","3","1","24","15","25","35","false"
"null","null","psychophysics","152","445124","0.0-3.0-1.73","","key","null","16.667000000000048","720","394.5","","","","","","","",""
"989.8000000715256","arrowleft","psychophysics","153","446116","0.0-3.0-0.74","","key","arrowleft","16.667000000000048","720","394.5","75","3","-1","27","15","25","35","true"
"null","null","psychophysics","154","447122","0.0-3.0-1.74","","key","null","16.667000000000048","720","394.5","","","","","","","",""
"3395.0999999046326","arrowright","psychophysics","155","450521","0.0-3.0-0.75","","key","arrowright","16.667000000000062","720","394.5","76","3","1","26","15","25","35","true"
"null","null","psychophysics","156","451526","0.0-3.0-1.75","","key","null","16.678033898305344","720","394.5","","","","","","","",""
"7378.399999976158","arrowright","psychophysics","157","458909","0.0-3.0-0.76","","key","arrowright","16.66700000000003","720","394.5","77","3","-1","23","15","25","35","false"
"null","null","psychophysics","158","459910","0.0-3.0-1.76","","key","null","16.66700000000031","720","394.5","","","","","","","",""
"9884.700000047684","arrowright","psychophysics","159","469797","0.0-3.0-0.77","","key","arrowright","16.667","720","394.5","78","3","-1","26","35","25","35","false"
"null","null","psychophysics","160","470803","0.0-3.0-1.77","","key","null","16.667000000000048","720","394.5","","","","","","","",""
"1625.1000000238419","arrowright","psychophysics","161","472432","0.0-3.0-0.78","","key","arrowright","16.673701030927706","720","394.5","79","3","-1","20","15","25","35","false"
"null","null","psychophysics","162","473438","0.0-3.0-1.78","","key","null","16.667000000000048","720","394.5","","","","","","","",""
"651","arrowleft","psychophysics","163","474093","0.0-3.0-0.79","","key","arrowleft","16.667000000000513","720","394.5","80","3","1","20","15","25","35","false"
"null","null","psychophysics","164","475094","0.0-3.0-1.79","","key","null","16.66699999999934","720","394.5","","","","","","","",""
"8241.800000071526","arrowright","psychophysics","165","483339","0.0-3.0-0.80","","key","arrowright","16.667000000000012","720","394.5","81","3","1","24","35","25","35","true"
"null","null","psychophysics","166","484342","0.0-3.0-1.80","","key","null","16.667000000000048","720","394.5","","","","","","","",""
"694.1000000238419","arrowleft","psychophysics","167","485040","0.0-3.0-0.81","","key","arrowleft","16.667000000000215","720","394.5","82","3","1","24","15","25","35","false"
"null","null","psychophysics","168","486043","0.0-3.0-1.81","","key","null","16.667000000000048","720","394.5","","","","","","","",""
"778.5","arrowleft","psychophysics","169","486825","0.0-3.0-0.82","","key","arrowleft","16.666999999999383","720","394.5","83","3","-1","27","35","25","35","true"
"null","null","psychophysics","170","487827","0.0-3.0-1.82","","key","null","16.667000000000048","720","394.5","","","","","","","",""
"688.5","arrowleft","psychophysics","171","488521","0.0-3.0-0.83","","key","arrowleft","16.666999999998797","720","394.5","84","4","1","20","15","25","35","false"
"null","null","psychophysics","172","489526","0.0-3.0-1.83","","key","null","16.667000000000048","720","394.5","","","","","","","",""
"10326.899999976158","k","html-keyboard-response","173","499855","0.0-3.0-2.83-0.83","<div style=""color: white; text-align: center; vertical-align: top; display: inline-block; width: 800px; margin: auto""><p>You have completed 30% of the trials. You are on block 4 of 10. <br>Good job! Take a break if you need to.</p><p>Press any key to continue the experiment.</p></div>","","","","","","","","","","","","",""
"1816","arrowleft","psychophysics","174","502682","0.0-3.0-0.84","","key","arrowleft","16.667000000000346","720","394.5","85","4","1","23","15","25","35","false"
"null","null","psychophysics","175","503684","0.0-3.0-1.84","","key","null","16.667000000000048","720","394.5","","","","","","","",""
"830","arrowright","psychophysics","176","504518","0.0-3.0-0.85","","key","arrowright","16.66700000000039","720","394.5","86","4","1","24","35","25","35","true"
"null","null","psychophysics","177","505523","0.0-3.0-1.85","","key","null","16.667000000000048","720","394.5","","","","","","","",""
"593.5","arrowright","psychophysics","178","506120","0.0-3.0-0.86","","key","arrowright","16.666999999999202","720","394.5","87","4","-1","20","35","25","35","false"
"null","null","psychophysics","179","507126","0.0-3.0-1.86","","key","null","16.667000000000048","720","394.5","","","","","","","",""
"802.8999999761581","arrowleft","psychophysics","180","507932","0.0-3.0-0.87","","key","arrowleft","16.66700000000007","720","394.5","88","4","-1","25","15","25","35","true"
"null","null","psychophysics","181","508934","0.0-3.0-1.87","","key","null","16.667000000000048","720","394.5","","","","","","","",""
"728.7000000476837","arrowleft","psychophysics","182","509666","0.0-3.0-0.88","","key","arrowleft","16.667000000000943","720","394.5","89","4","-1","30","35","25","35","true"
"null","null","psychophysics","183","510670","0.0-3.0-1.88","","key","null","16.667000000000048","720","394.5","","","","","","","",""
"1079.3000000715256","arrowright","psychophysics","184","511753","0.0-3.0-0.89","","key","arrowright","16.66700000000037","720","394.5","90","4","1","23","35","25","35","true"
"null","null","psychophysics","185","512759","0.0-3.0-1.89","","key","null","16.667000000000048","720","394.5","","","","","","","",""
"1738.3999999761581","arrowleft","psychophysics","186","514503","0.0-3.0-0.90","","key","arrowleft","16.66700000000016","720","394.5","91","4","-1","27","15","25","35","true"
"null","null","psychophysics","187","515505","0.0-3.0-1.90","","key","null","16.667000000000048","720","394.5","","","","","","","",""
"740.6000000238419","arrowright","psychophysics","188","516249","0.0-3.0-0.91","","key","arrowright","16.66699999999996","720","394.5","92","4","-1","23","15","25","35","false"
"null","null","psychophysics","189","517251","0.0-3.0-1.91","","key","null","16.667000000000048","720","394.5","","","","","","","",""
"760.6000000238419","arrowleft","psychophysics","190","518016","0.0-3.0-0.92","","key","arrowleft","16.666999999999017","720","394.5","93","4","-1","30","15","25","35","true"
"null","null","psychophysics","191","519018","0.0-3.0-1.92","","key","null","16.667000000000048","720","394.5","","","","","","","",""
"1727.7999999523163","arrowright","psychophysics","192","520749","0.0-3.0-0.93","","key","arrowright","16.67331067961132","720","394.5","94","4","-1","24","35","25","35","false"
"null","null","psychophysics","193","521754","0.0-3.0-1.93","","key","null","16.667000000000048","720","394.5","","","","","","","",""
"608.6000000238419","arrowleft","psychophysics","194","522366","0.0-3.0-0.94","","key","arrowleft","16.666999999999664","720","394.5","95","4","1","20","15","25","35","false"
"null","null","psychophysics","195","523371","0.0-3.0-1.94","","key","null","16.667000000000048","720","394.5","","","","","","","",""
"901.6000000238419","arrowleft","psychophysics","196","524276","0.0-3.0-0.95","","key","arrowleft","16.667000000000456","720","394.5","96","4","-1","27","35","25","35","true"
"null","null","psychophysics","197","525278","0.0-3.0-1.95","","key","null","16.667000000000048","720","394.5","","","","","","","",""
"834","arrowright","psychophysics","198","526116","0.0-3.0-0.96","","key","arrowright","16.666999999999533","720","394.5","97","4","-1","24","35","25","35","false"
"null","null","psychophysics","199","527118","0.0-3.0-1.96","","key","null","16.667000000000048","720","394.5","","","","","","","",""
"1078.1000000238419","arrowleft","psychophysics","200","528200","0.0-3.0-0.97","","key","arrowleft","16.66699999999946","720","394.5","98","4","-1","30","35","25","35","true"
"null","null","psychophysics","201","529204","0.0-3.0-1.97","","key","null","16.667000000000048","720","394.5","","","","","","","",""
"3381.6999999284744","arrowleft","psychophysics","202","532589","0.0-3.0-0.98","","key","arrowleft","16.666999999999696","720","394.5","99","4","-1","26","15","25","35","true"
"null","null","psychophysics","203","533594","0.0-3.0-1.98","","key","null","16.667000000000048","720","394.5","","","","","","","",""
"699.7999999523163","arrowright","psychophysics","204","534299","0.0-3.0-0.99","","key","arrowright","16.666999999999202","720","394.5","100","4","-1","20","15","25","35","false"
"null","null","psychophysics","205","535304","0.0-3.0-1.99","","key","null","16.667000000000048","720","394.5","","","","","","","",""
"1596.3000000715256","arrowright","psychophysics","206","536904","0.0-3.0-0.100","","key","arrowright","16.666999999999902","720","394.5","101","4","-1","20","35","25","35","false"
"null","null","psychophysics","207","537910","0.0-3.0-1.100","","key","null","16.667000000000048","720","394.5","","","","","","","",""
"1348.6000000238419","arrowright","psychophysics","208","539266","0.0-3.0-0.101","","key","arrowright","16.667000000000023","720","394.5","102","4","1","27","35","25","35","true"
"null","null","psychophysics","209","540271","0.0-3.0-1.101","","key","null","16.67803389830633","720","394.5","","","","","","","",""
"623.8000000715256","arrowleft","psychophysics","210","540899","0.0-3.0-0.102","","key","arrowleft","16.6670000000001","720","394.5","103","4","1","26","15","25","35","false"
"null","null","psychophysics","211","541902","0.0-3.0-1.102","","key","null","16.667000000000048","720","394.5","","","","","","","",""
"1568.8000000715256","arrowleft","psychophysics","212","543473","0.0-3.0-0.103","","key","arrowleft","16.66700000000081","720","394.5","104","4","-1","27","35","25","35","true"
"null","null","psychophysics","213","544478","0.0-3.0-1.103","","key","null","16.667000000000048","720","394.5","","","","","","","",""
"1483.3999999761581","arrowright","psychophysics","214","545966","0.0-3.0-0.104","","key","arrowright","16.667000000000137","720","394.5","105","4","-1","25","15","25","35","false"
"null","null","psychophysics","215","546969","0.0-3.0-1.104","","key","null","16.667000000000048","720","394.5","","","","","","","",""
"8229.600000023842","arrowleft","psychophysics","216","555201","0.0-3.0-0.105","","key","arrowleft","16.667000000000012","720","394.5","106","4","-1","26","15","25","35","true"
"null","null","psychophysics","217","556203","0.0-3.0-1.105","","key","null","16.667000000000048","720","394.5","","","","","","","",""
"13311.199999928474","arrowright","psychophysics","218","569516","0.0-3.0-0.106","","key","arrowright","16.667814536340813","720","394.5","107","4","-1","26","35","25","35","false"
"null","null","psychophysics","219","570519","0.0-3.0-1.106","","key","null","16.667000000000048","720","394.5","","","","","","","",""
"19688.399999976158","arrowleft","psychophysics","220","590210","0.0-3.0-0.107","","key","arrowleft","16.667551694915264","720","394.5","108","4","-1","30","15","25","35","true"
"null","null","psychophysics","221","591213","0.0-3.0-1.107","","key","null","16.66700000000031","720","394.5","","","","","","","",""
"770.1000000238419","arrowright","psychophysics","222","591987","0.0-3.0-0.108","","key","arrowright","16.66700000000031","720","394.5","109","4","1","27","35","25","35","true"
"null","null","psychophysics","223","592992","0.0-3.0-1.108","","key","null","16.667000000000048","720","394.5","","","","","","","",""
"888.8999999761581","arrowleft","psychophysics","224","593884","0.0-3.0-0.109","","key","arrowleft","16.66699999999826","720","394.5","110","4","1","20","35","25","35","false"
"null","null","psychophysics","225","594886","0.0-3.0-1.109","","key","null","16.667000000000048","720","394.5","","","","","","","",""
"869.8999999761581","arrowleft","psychophysics","226","595759","0.0-3.0-0.110","","key","arrowleft","16.666999999999852","720","394.5","111","4","-1","30","35","25","35","true"
"null","null","psychophysics","227","596762","0.0-3.0-1.110","","key","null","16.667000000000048","720","394.5","","","","","","","",""
"1035.2999999523163","arrowright","psychophysics","228","597801","0.0-3.0-0.111","","key","arrowright","16.666999999998932","720","394.5","112","5","-1","24","15","25","35","false"
"null","null","psychophysics","229","598804","0.0-3.0-1.111","","key","null","16.667000000000048","720","394.5","","","","","","","",""
"16032.299999952316","j","html-keyboard-response","230","614838","0.0-3.0-2.111-0.111","<div style=""color: white; text-align: center; vertical-align: top; display: inline-block; width: 800px; margin: auto""><p>You have completed 40% of the trials. You are on block 5 of 10. <br>Good job! Take a break if you need to.</p><p>Press any key to continue the experiment.</p></div>","","","","","","","","","","","","",""
"2187.5999999046326","arrowright","psychophysics","231","618034","0.0-3.0-0.112","","key","arrowright","16.66699999999996","720","394.5","113","5","1","24","15","25","35","true"
"null","null","psychophysics","232","619037","0.0-3.0-1.112","","key","null","16.667000000000048","720","394.5","","","","","","","",""
"751.2000000476837","arrowleft","psychophysics","233","619791","0.0-3.0-0.113","","key","arrowleft","16.66699999999996","720","394.5","114","5","1","20","35","25","35","false"
"null","null","psychophysics","234","620797","0.0-3.0-1.113","","key","null","16.667000000000048","720","394.5","","","","","","","",""
"674.3000000715256","arrowright","psychophysics","235","621477","0.0-3.0-0.114","","key","arrowright","16.66699999999837","720","394.5","115","5","1","25","35","25","35","true"
"null","null","psychophysics","236","622479","0.0-3.0-1.114","","key","null","16.667000000000048","720","394.5","","","","","","","",""
"3117.5","arrowleft","psychophysics","237","625602","0.0-3.0-0.115","","key","arrowleft","16.667000000000268","720","394.5","116","5","-1","24","15","25","35","true"
"null","null","psychophysics","238","626603","0.0-3.0-1.115","","key","null","16.667000000000048","720","394.5","","","","","","","",""
"1354.2999999523163","arrowleft","psychophysics","239","627962","0.0-3.0-0.116","","key","arrowleft","16.666999999999824","720","394.5","117","5","1","23","15","25","35","false"
"null","null","psychophysics","240","628964","0.0-3.0-1.116","","key","null","16.66700000000031","720","394.5","","","","","","","",""
"1351.1000000238419","arrowleft","psychophysics","241","630319","0.0-3.0-0.117","","key","arrowleft","16.666999999999824","720","394.5","118","5","-1","25","35","25","35","true"
"null","null","psychophysics","242","631326","0.0-3.0-1.117","","key","null","16.667000000000048","720","394.5","","","","","","","",""
"839.7999999523163","arrowright","psychophysics","243","632169","0.0-3.0-0.118","","key","arrowright","16.666999999999533","720","394.5","119","5","-1","25","15","25","35","false"
"null","null","psychophysics","244","633176","0.0-3.0-1.118","","key","null","16.667000000000048","720","394.5","","","","","","","",""
"1215.8999999761581","arrowleft","psychophysics","245","634396","0.0-3.0-0.119","","key","arrowleft","16.666999999999664","720","394.5","120","5","-1","27","35","25","35","true"
"null","null","psychophysics","246","635398","0.0-3.0-1.119","","key","null","16.677833333332092","720","394.5","","","","","","","",""
"9783.5","arrowleft","psychophysics","247","645185","0.0-3.0-0.120","","key","arrowleft","16.667000000000137","720","394.5","121","5","1","27","15","25","35","false"
"null","null","psychophysics","248","646190","0.0-3.0-1.120","","key","null","16.667000000000048","720","394.5","","","","","","","",""
"1391.7000000476837","arrowleft","psychophysics","249","647585","0.0-3.0-0.121","","key","arrowleft","16.667000000000403","720","394.5","122","5","-1","27","15","25","35","true"
"null","null","psychophysics","250","648587","0.0-3.0-1.121","","key","null","16.667000000000048","720","394.5","","","","","","","",""
"2182","arrowleft","psychophysics","251","650771","0.0-3.0-0.122","","key","arrowleft","16.666999999999714","720","394.5","123","5","-1","26","15","25","35","true"
"null","null","psychophysics","252","651775","0.0-3.0-1.122","","key","null","16.667000000000048","720","394.5","","","","","","","",""
"3456.5","arrowleft","psychophysics","253","655235","0.0-3.0-0.123","","key","arrowleft","16.670144927536096","720","394.5","124","5","-1","26","15","25","35","true"
"null","null","psychophysics","254","656237","0.0-3.0-1.123","","key","null","16.667000000000048","720","394.5","","","","","","","",""
"4301.399999976158","arrowright","psychophysics","255","660542","0.0-3.0-0.124","","key","arrowright","16.666999999999977","720","394.5","125","5","1","24","35","25","35","true"
"null","null","psychophysics","256","661546","0.0-3.0-1.124","","key","null","16.667000000000048","720","394.5","","","","","","","",""
"2171.899999976158","arrowleft","psychophysics","257","663724","0.0-3.0-0.125","","key","arrowleft","16.66700000000061","720","394.5","126","5","-1","26","35","25","35","true"
"null","null","psychophysics","258","664730","0.0-3.0-1.125","","key","null","16.667000000000048","720","394.5","","","","","","","",""
"951.6000000238419","arrowleft","psychophysics","259","665686","0.0-3.0-0.126","","key","arrowleft","16.667000000001536","720","394.5","127","5","-1","30","15","25","35","true"
"null","null","psychophysics","260","666692","0.0-3.0-1.126","","key","null","16.667000000000048","720","394.5","","","","","","","",""
"1217","arrowright","psychophysics","261","667912","0.0-3.0-0.127","","key","arrowright","16.66700000000128","720","394.5","128","5","-1","23","35","25","35","false"
"null","null","psychophysics","262","668914","0.0-3.0-1.127","","key","null","16.667000000000048","720","394.5","","","","","","","",""
"1650.9000000953674","arrowright","psychophysics","263","670570","0.0-3.0-0.128","","key","arrowright","16.667000000000545","720","394.5","129","5","-1","26","35","25","35","false"
"null","null","psychophysics","264","671577","0.0-3.0-1.128","","key","null","16.667000000000048","720","394.5","","","","","","","",""
"729.3000000715256","arrowright","psychophysics","265","672310","0.0-3.0-0.129","","key","arrowright","16.66699999999959","720","394.5","130","5","-1","26","35","25","35","false"
"null","null","psychophysics","266","673314","0.0-3.0-1.129","","key","null","16.667000000000048","720","394.5","","","","","","","",""
"3000","arrowleft","psychophysics","267","676319","0.0-3.0-0.130","","key","arrowleft","16.67061111111155","720","394.5","131","5","1","27","35","25","35","false"
"null","null","psychophysics","268","677323","0.0-3.0-1.130","","key","null","16.667000000000048","720","394.5","","","","","","","",""
"5241.700000047684","arrowright","psychophysics","269","682568","0.0-3.0-0.131","","key","arrowright","16.66700000000021","720","394.5","132","5","-1","23","35","25","35","false"
"null","null","psychophysics","270","683572","0.0-3.0-1.131","","key","null","16.66700000000031","720","394.5","","","","","","","",""
"1088.2000000476837","arrowright","psychophysics","271","684664","0.0-3.0-0.132","","key","arrowright","16.66700000000128","720","394.5","133","5","1","30","15","25","35","true"
"null","null","psychophysics","272","685665","0.0-3.0-1.132","","key","null","16.66699999999837","720","394.5","","","","","","","",""
"774.5","arrowleft","psychophysics","273","686443","0.0-3.0-0.133","","key","arrowleft","16.66700000000031","720","394.5","134","5","1","20","35","25","35","false"
"null","null","psychophysics","274","687448","0.0-3.0-1.133","","key","null","16.667000000000048","720","394.5","","","","","","","",""
"6325.299999952316","arrowleft","psychophysics","275","693778","0.0-3.0-0.134","","key","arrowleft","16.66699999999986","720","394.5","135","5","-1","25","35","25","35","true"
"null","null","psychophysics","276","694782","0.0-3.0-1.134","","key","null","16.66700000000031","720","394.5","","","","","","","",""
"1093.5","arrowleft","psychophysics","277","695880","0.0-3.0-0.135","","key","arrowleft","16.677156249999825","720","394.5","136","5","1","20","15","25","35","false"
"null","null","psychophysics","278","696882","0.0-3.0-1.135","","key","null","16.66700000000031","720","394.5","","","","","","","",""
"817.2999999523163","arrowright","psychophysics","279","697702","0.0-3.0-0.136","","key","arrowright","16.666999999998854","720","394.5","137","5","1","30","15","25","35","true"
"null","null","psychophysics","280","698705","0.0-3.0-1.136","","key","null","16.667000000000048","720","394.5","","","","","","","",""
"1468.8999999761581","arrowleft","psychophysics","281","700178","0.0-3.0-0.137","","key","arrowleft","16.666999999999774","720","394.5","138","5","-1","24","35","25","35","true"
"null","null","psychophysics","282","701180","0.0-3.0-1.137","","key","null","16.667000000000048","720","394.5","","","","","","","",""
"731.7999999523163","arrowleft","psychophysics","283","701918","0.0-3.0-0.138","","key","arrowleft","16.66699999999996","720","394.5","139","5","1","23","15","25","35","false"
"null","null","psychophysics","284","702922","0.0-3.0-1.138","","key","null","16.667000000000048","720","394.5","","","","","","","",""
"3404.7000000476837","arrowright","psychophysics","285","706330","0.0-3.0-0.139","","key","arrowright","16.66700000000035","720","394.5","140","6","1","27","15","25","35","true"
"null","null","psychophysics","286","707332","0.0-3.0-1.139","","key","null","16.66699999999837","720","394.5","","","","","","","",""
"4198.799999952316","k","html-keyboard-response","287","711533","0.0-3.0-2.139-0.139","<div style=""color: white; text-align: center; vertical-align: top; display: inline-block; width: 800px; margin: auto""><p>You have completed 50% of the trials. You are on block 6 of 10. <br>Good job! Take a break if you need to.</p><p>Press any key to continue the experiment.</p></div>","","","","","","","","","","","","",""
"4445.699999928474","arrowright","psychophysics","288","716988","0.0-3.0-0.140","","key","arrowright","16.669434456928627","720","394.5","141","6","1","25","15","25","35","true"
"null","null","psychophysics","289","717994","0.0-3.0-1.140","","key","null","16.667000000000048","720","394.5","","","","","","","",""
"2866","arrowright","psychophysics","290","720864","0.0-3.0-0.141","","key","arrowright","16.667000000000176","720","394.5","142","6","-1","23","35","25","35","false"
"null","null","psychophysics","291","721866","0.0-3.0-1.141","","key","null","16.66700000000031","720","394.5","","","","","","","",""
"1741.8999999761581","arrowright","psychophysics","292","723611","0.0-3.0-0.142","","key","arrowright","16.66700000000001","720","394.5","143","6","1","27","35","25","35","true"
"null","null","psychophysics","293","724614","0.0-3.0-1.142","","key","null","16.667000000000048","720","394.5","","","","","","","",""
"1708.7999999523163","arrowleft","psychophysics","294","726328","0.0-3.0-0.143","","key","arrowleft","16.670186274510343","720","394.5","144","6","1","26","35","25","35","false"
"null","null","psychophysics","295","727332","0.0-3.0-1.143","","key","null","16.667000000000048","720","394.5","","","","","","","",""
"1792.1000000238419","arrowleft","psychophysics","296","729129","0.0-3.0-0.144","","key","arrowleft","16.667000000000602","720","394.5","145","6","1","24","15","25","35","false"
"null","null","psychophysics","297","730131","0.0-3.0-1.144","","key","null","16.667000000000048","720","394.5","","","","","","","",""
"5209.399999976158","arrowright","psychophysics","298","735346","0.0-3.0-0.145","","key","arrowright","16.66699999999979","720","394.5","146","6","-1","25","15","25","35","false"
"null","null","psychophysics","299","736348","0.0-3.0-1.145","","key","null","16.667000000000048","720","394.5","","","","","","","",""
"1832.8999999761581","arrowleft","psychophysics","300","738186","0.0-3.0-0.146","","key","arrowleft","16.66699999999996","720","394.5","147","6","-1","27","35","25","35","true"
"null","null","psychophysics","301","739189","0.0-3.0-1.146","","key","null","16.667000000000048","720","394.5","","","","","","","",""
"927.2000000476837","arrowright","psychophysics","302","740120","0.0-3.0-0.147","","key","arrowright","16.6669999999989","720","394.5","148","6","-1","20","15","25","35","false"
"null","null","psychophysics","303","741122","0.0-3.0-1.147","","key","null","16.667000000000048","720","394.5","","","","","","","",""
"770.5","arrowleft","psychophysics","304","741896","0.0-3.0-0.148","","key","arrowleft","16.66700000000031","720","394.5","149","6","-1","30","15","25","35","true"
"null","null","psychophysics","305","742898","0.0-3.0-1.148","","key","null","16.667000000000048","720","394.5","","","","","","","",""
"646.3999999761581","arrowright","psychophysics","306","743550","0.0-3.0-0.149","","key","arrowright","16.667000000000908","720","394.5","150","6","1","30","35","25","35","true"
"null","null","psychophysics","307","744552","0.0-3.0-1.149","","key","null","16.667000000000048","720","394.5","","","","","","","",""
"743.1000000238419","arrowleft","psychophysics","308","745298","0.0-3.0-0.150","","key","arrowleft","16.6821162790699","720","394.5","151","6","1","23","35","25","35","false"
"null","null","psychophysics","309","746300","0.0-3.0-1.150","","key","null","16.66699999999837","720","394.5","","","","","","","",""
"2000.3000000715256","arrowright","psychophysics","310","748303","0.0-3.0-0.151","","key","arrowright","16.66700000000018","720","394.5","152","6","-1","26","35","25","35","false"
"null","null","psychophysics","311","749306","0.0-3.0-1.151","","key","null","16.667000000000048","720","394.5","","","","","","","",""
"911.6000000238419","arrowleft","psychophysics","312","750220","0.0-3.0-0.152","","key","arrowleft","16.666999999998584","720","394.5","153","6","1","20","15","25","35","false"
"null","null","psychophysics","313","751222","0.0-3.0-1.152","","key","null","16.667000000000048","720","394.5","","","","","","","",""
"1316.7000000476837","arrowleft","psychophysics","314","752542","0.0-3.0-0.153","","key","arrowleft","16.667000000000908","720","394.5","154","6","-1","30","35","25","35","true"
"null","null","psychophysics","315","753548","0.0-3.0-1.153","","key","null","16.667000000000048","720","394.5","","","","","","","",""
"892.7000000476837","arrowleft","psychophysics","316","754446","0.0-3.0-0.154","","key","arrowleft","16.667000000000456","720","394.5","155","6","-1","30","15","25","35","true"
"null","null","psychophysics","317","755448","0.0-3.0-1.154","","key","null","16.667000000000048","720","394.5","","","","","","","",""
"2476.600000023842","arrowleft","psychophysics","318","757930","0.0-3.0-0.155","","key","arrowleft","16.6670000000001","720","394.5","156","6","-1","30","15","25","35","true"
"null","null","psychophysics","319","758932","0.0-3.0-1.155","","key","null","16.66699999999837","720","394.5","","","","","","","",""
"610.5","arrowright","psychophysics","320","759546","0.0-3.0-0.156","","key","arrowright","16.666999999999202","720","394.5","157","6","1","26","35","25","35","true"
"null","null","psychophysics","321","760548","0.0-3.0-1.156","","key","null","16.667000000000048","720","394.5","","","","","","","",""
"761.6000000238419","arrowleft","psychophysics","322","761314","0.0-3.0-0.157","","key","arrowleft","16.66700000000031","720","394.5","158","6","1","26","35","25","35","false"
"null","null","psychophysics","323","762316","0.0-3.0-1.157","","key","null","16.66700000000031","720","394.5","","","","","","","",""
"924","arrowleft","psychophysics","324","763244","0.0-3.0-0.158","","key","arrowleft","16.666999999998584","720","394.5","159","6","1","25","15","25","35","false"
"null","null","psychophysics","325","764248","0.0-3.0-1.158","","key","null","16.667000000000048","720","394.5","","","","","","","",""
"2730.899999976158","arrowright","psychophysics","326","766987","0.0-3.0-0.159","","key","arrowright","16.67096951219506","720","394.5","160","6","-1","24","35","25","35","false"
"null","null","psychophysics","327","767990","0.0-3.0-1.159","","key","null","16.667000000000048","720","394.5","","","","","","","",""
"977.7999999523163","arrowleft","psychophysics","328","768970","0.0-3.0-0.160","","key","arrowleft","16.666999999999774","720","394.5","161","6","1","24","35","25","35","false"
"null","null","psychophysics","329","769976","0.0-3.0-1.160","","key","null","16.667000000000048","720","394.5","","","","","","","",""
"1052.3999999761581","arrowleft","psychophysics","330","771032","0.0-3.0-0.161","","key","arrowleft","16.666999999998932","720","394.5","162","6","-1","25","35","25","35","true"
"null","null","psychophysics","331","772034","0.0-3.0-1.161","","key","null","16.66700000000031","720","394.5","","","","","","","",""
"1727.2999999523163","arrowleft","psychophysics","332","773764","0.0-3.0-0.162","","key","arrowleft","16.666999999999852","720","394.5","163","6","-1","25","15","25","35","true"
"null","null","psychophysics","333","774767","0.0-3.0-1.162","","key","null","16.66700000000031","720","394.5","","","","","","","",""
"2479.600000023842","arrowleft","psychophysics","334","777250","0.0-3.0-0.163","","key","arrowleft","16.6670000000001","720","394.5","164","6","-1","23","15","25","35","true"
"null","null","psychophysics","335","778253","0.0-3.0-1.163","","key","null","16.667000000000048","720","394.5","","","","","","","",""
"2165.600000023842","arrowright","psychophysics","336","780421","0.0-3.0-0.164","","key","arrowright","16.66699999999959","720","394.5","165","6","1","30","15","25","35","true"
"null","null","psychophysics","337","781427","0.0-3.0-1.164","","key","null","16.667000000000048","720","394.5","","","","","","","",""
"2074.3000000715256","arrowright","psychophysics","338","783504","0.0-3.0-0.165","","key","arrowright","16.666999999999874","720","394.5","166","6","1","30","15","25","35","true"
"null","null","psychophysics","339","784506","0.0-3.0-1.165","","key","null","16.667000000000048","720","394.5","","","","","","","",""
"1488.6000000238419","arrowright","psychophysics","340","785998","0.0-3.0-0.166","","key","arrowright","16.674386363636586","720","394.5","167","6","1","30","15","25","35","true"
"null","null","psychophysics","341","787000","0.0-3.0-1.166","","key","null","16.66700000000031","720","394.5","","","","","","","",""
"3854.8000000715256","arrowleft","psychophysics","342","790859","0.0-3.0-0.167","","key","arrowleft","16.66700000000014","720","394.5","168","7","1","24","15","25","35","false"
"null","null","psychophysics","343","791865","0.0-3.0-1.167","","key","null","16.667000000000048","720","394.5","","","","","","","",""
"42442.800000071526","j","html-keyboard-response","344","834309","0.0-3.0-2.167-0.167","<div style=""color: white; text-align: center; vertical-align: top; display: inline-block; width: 800px; margin: auto""><p>You have completed 60% of the trials. You are on block 7 of 10. <br>Good job! Take a break if you need to.</p><p>Press any key to continue the experiment.</p></div>","","","","","","","","","","","","",""
"1209.6000000238419","arrowright","psychophysics","345","836531","0.0-3.0-0.168","","key","arrowright","16.66700000000128","720","394.5","169","7","-1","24","15","25","35","false"
"null","null","psychophysics","346","837534","0.0-3.0-1.168","","key","null","16.667000000000048","720","394.5","","","","","","","",""
"1116.5","arrowright","psychophysics","347","838655","0.0-3.0-0.169","","key","arrowright","16.667000000000193","720","394.5","170","7","1","26","35","25","35","true"
"null","null","psychophysics","348","839659","0.0-3.0-1.169","","key","null","16.667000000000048","720","394.5","","","","","","","",""
"644.3999999761581","arrowleft","psychophysics","349","840306","0.0-3.0-0.170","","key","arrowleft","16.667000000000513","720","394.5","171","7","-1","30","35","25","35","true"
"null","null","psychophysics","350","841309","0.0-3.0-1.170","","key","null","16.667000000000048","720","394.5","","","","","","","",""
"1095","arrowleft","psychophysics","351","842408","0.0-3.0-0.171","","key","arrowleft","16.667000000001504","720","394.5","172","7","-1","27","15","25","35","true"
"null","null","psychophysics","352","843411","0.0-3.0-1.171","","key","null","16.667000000000048","720","394.5","","","","","","","",""
"2214","arrowleft","psychophysics","353","845629","0.0-3.0-0.172","","key","arrowleft","16.66699999999996","720","394.5","173","7","-1","26","15","25","35","true"
"null","null","psychophysics","354","846633","0.0-3.0-1.172","","key","null","16.667000000000048","720","394.5","","","","","","","",""
"2241","arrowright","psychophysics","355","848879","0.0-3.0-0.173","","key","arrowright","16.667000000000193","720","394.5","174","7","1","30","15","25","35","true"
"null","null","psychophysics","356","849883","0.0-3.0-1.173","","key","null","16.667000000000048","720","394.5","","","","","","","",""
"981.7999999523163","arrowright","psychophysics","357","850866","0.0-3.0-0.174","","key","arrowright","16.666999999999774","720","394.5","175","7","1","30","15","25","35","true"
"null","null","psychophysics","358","851867","0.0-3.0-1.174","","key","null","16.66699999999837","720","394.5","","","","","","","",""
"1143.7000000476837","arrowright","psychophysics","359","853012","0.0-3.0-0.175","","key","arrowright","16.667000000000193","720","394.5","176","7","1","24","35","25","35","true"
"null","null","psychophysics","360","854016","0.0-3.0-1.175","","key","null","16.667000000000048","720","394.5","","","","","","","",""
"9289.200000047684","arrowleft","psychophysics","361","863310","0.0-3.0-0.176","","key","arrowleft","16.66816876122069","720","394.5","177","7","1","24","35","25","35","false"
"null","null","psychophysics","362","864316","0.0-3.0-1.176","","key","null","16.667000000000048","720","394.5","","","","","","","",""
"16212.200000047684","arrowright","psychophysics","363","880533","0.0-3.0-0.177","","key","arrowright","16.66766872427988","720","394.5","178","7","1","23","15","25","35","true"
"null","null","psychophysics","364","881535","0.0-3.0-1.177","","key","null","16.66699999999837","720","394.5","","","","","","","",""
"931.6000000238419","arrowleft","psychophysics","365","882469","0.0-3.0-0.178","","key","arrowleft","16.667000000001018","720","394.5","179","7","1","23","15","25","35","false"
"null","null","psychophysics","366","883471","0.0-3.0-1.178","","key","null","16.667000000000048","720","394.5","","","","","","","",""
"948.5999999046326","arrowleft","psychophysics","367","884422","0.0-3.0-0.179","","key","arrowleft","16.666999999999202","720","394.5","180","7","-1","27","15","25","35","true"
"null","null","psychophysics","368","885425","0.0-3.0-1.179","","key","null","16.667000000000048","720","394.5","","","","","","","",""
"1232.3000000715256","arrowright","psychophysics","369","886661","0.0-3.0-0.180","","key","arrowright","16.666999999999884","720","394.5","181","7","1","25","35","25","35","true"
"null","null","psychophysics","370","887667","0.0-3.0-1.180","","key","null","16.667000000000048","720","394.5","","","","","","","",""
"1440.8000000715256","arrowright","psychophysics","371","889113","0.0-3.0-0.181","","key","arrowright","16.667000000000943","720","394.5","182","7","1","27","15","25","35","true"
"null","null","psychophysics","372","890117","0.0-3.0-1.181","","key","null","16.667000000000048","720","394.5","","","","","","","",""
"759","arrowleft","psychophysics","373","890881","0.0-3.0-0.182","","key","arrowleft","16.66700000000031","720","394.5","183","7","1","25","15","25","35","false"
"null","null","psychophysics","374","891884","0.0-3.0-1.182","","key","null","16.667000000000048","720","394.5","","","","","","","",""
"604.8999999761581","arrowright","psychophysics","375","892494","0.0-3.0-0.183","","key","arrowright","16.666999999999664","720","394.5","184","7","-1","23","35","25","35","false"
"null","null","psychophysics","376","893501","0.0-3.0-1.183","","key","null","16.667000000000048","720","394.5","","","","","","","",""
"666.8999999761581","arrowleft","psychophysics","377","894173","0.0-3.0-0.184","","key","arrowleft","16.66699999999837","720","394.5","185","7","1","25","15","25","35","false"
"null","null","psychophysics","378","895175","0.0-3.0-1.184","","key","null","16.67803389830633","720","394.5","","","","","","","",""
"838","arrowleft","psychophysics","379","896016","0.0-3.0-0.185","","key","arrowleft","16.66700000000158","720","394.5","186","7","-1","30","15","25","35","true"
"null","null","psychophysics","380","897018","0.0-3.0-1.185","","key","null","16.667000000000048","720","394.5","","","","","","","",""
"1676.2000000476837","arrowleft","psychophysics","381","898699","0.0-3.0-0.186","","key","arrowleft","16.666999999999533","720","394.5","187","7","-1","26","15","25","35","true"
"null","null","psychophysics","382","899702","0.0-3.0-1.186","","key","null","16.66700000000031","720","394.5","","","","","","","",""
"1486","arrowleft","psychophysics","383","901191","0.0-3.0-0.187","","key","arrowleft","16.66699999999996","720","394.5","188","7","1","23","35","25","35","false"
"null","null","psychophysics","384","902198","0.0-3.0-1.187","","key","null","16.667000000000048","720","394.5","","","","","","","",""
"5038.899999976158","arrowleft","psychophysics","385","907240","0.0-3.0-0.188","","key","arrowleft","16.667000000000026","720","394.5","189","7","-1","24","15","25","35","true"
"null","null","psychophysics","386","908244","0.0-3.0-1.188","","key","null","16.667000000000048","720","394.5","","","","","","","",""
"1826.6000000238419","arrowright","psychophysics","387","910073","0.0-3.0-0.189","","key","arrowright","16.666999999999813","720","394.5","190","7","-1","25","35","25","35","false"
"null","null","psychophysics","388","911075","0.0-3.0-1.189","","key","null","16.667000000000048","720","394.5","","","","","","","",""
"1813.2999999523163","arrowleft","psychophysics","389","912892","0.0-3.0-0.190","","key","arrowleft","16.666999999999664","720","394.5","191","7","-1","30","35","25","35","true"
"null","null","psychophysics","390","913895","0.0-3.0-1.190","","key","null","16.667000000000048","720","394.5","","","","","","","",""
"4595.299999952316","arrowright","psychophysics","391","918492","0.0-3.0-0.191","","key","arrowright","16.669363636363467","720","394.5","192","7","1","26","15","25","35","true"
"null","null","psychophysics","392","919495","0.0-3.0-1.191","","key","null","16.667000000000048","720","394.5","","","","","","","",""
"1241.6000000238419","arrowright","psychophysics","393","920740","0.0-3.0-0.192","","key","arrowright","16.6670000000001","720","394.5","193","7","1","30","35","25","35","true"
"null","null","psychophysics","394","921744","0.0-3.0-1.192","","key","null","16.667000000000048","720","394.5","","","","","","","",""
"2428.2999999523163","arrowright","psychophysics","395","924175","0.0-3.0-0.193","","key","arrowright","16.666999999999774","720","394.5","194","7","1","23","15","25","35","true"
"null","null","psychophysics","396","925179","0.0-3.0-1.193","","key","null","16.667000000000048","720","394.5","","","","","","","",""
"925.3999999761581","arrowleft","psychophysics","397","926107","0.0-3.0-0.194","","key","arrowleft","16.667000000001018","720","394.5","195","7","-1","27","35","25","35","true"
"null","null","psychophysics","398","927109","0.0-3.0-1.194","","key","null","16.667000000000048","720","394.5","","","","","","","",""
"1180.8000000715256","arrowleft","psychophysics","399","928293","0.0-3.0-0.195","","key","arrowleft","16.666999999999202","720","394.5","196","8","1","20","35","25","35","false"
"null","null","psychophysics","400","929299","0.0-3.0-1.195","","key","null","16.667000000000048","720","394.5","","","","","","","",""
"29179.599999904633","j","html-keyboard-response","401","958480","0.0-3.0-2.195-0.195","<div style=""color: white; text-align: center; vertical-align: top; display: inline-block; width: 800px; margin: auto""><p>You have completed 70% of the trials. You are on block 8 of 10. <br>Good job! Take a break if you need to.</p><p>Press any key to continue the experiment.</p></div>","","","","","","","","","","","","",""
"5675.100000023842","arrowright","psychophysics","402","965166","0.0-3.0-0.196","","key","arrowright","16.66699999999974","720","394.5","197","8","1","24","35","25","35","true"
"null","null","psychophysics","403","966169","0.0-3.0-1.196","","key","null","16.667000000000048","720","394.5","","","","","","","",""
"1175.6000000238419","arrowright","psychophysics","404","967350","0.0-3.0-0.197","","key","arrowright","16.666999999999202","720","394.5","198","8","1","27","15","25","35","true"
"null","null","psychophysics","405","968352","0.0-3.0-1.197","","key","null","16.667000000000048","720","394.5","","","","","","","",""
"856","arrowright","psychophysics","406","969213","0.0-3.0-0.198","","key","arrowright","16.666999999999852","720","394.5","199","8","1","26","15","25","35","true"
"null","null","psychophysics","407","970219","0.0-3.0-1.198","","key","null","16.667000000000048","720","394.5","","","","","","","",""
"1484.9000000953674","arrowleft","psychophysics","408","971709","0.0-3.0-0.199","","key","arrowleft","16.667000000000137","720","394.5","200","8","1","20","15","25","35","false"
"null","null","psychophysics","409","972715","0.0-3.0-1.199","","key","null","16.667000000000048","720","394.5","","","","","","","",""
"796","arrowright","psychophysics","410","973513","0.0-3.0-0.200","","key","arrowright","16.666999999998495","720","394.5","201","8","-1","23","15","25","35","false"
"null","null","psychophysics","411","974519","0.0-3.0-1.200","","key","null","16.667000000000048","720","394.5","","","","","","","",""
"1951.5","arrowleft","psychophysics","412","976475","0.0-3.0-0.201","","key","arrowleft","16.666999999999913","720","394.5","202","8","-1","23","15","25","35","true"
"null","null","psychophysics","413","977477","0.0-3.0-1.201","","key","null","16.667000000000048","720","394.5","","","","","","","",""
"2054.6999999284744","arrowleft","psychophysics","414","979535","0.0-3.0-0.202","","key","arrowleft","16.67232786885226","720","394.5","203","8","-1","27","15","25","35","true"
"null","null","psychophysics","415","980537","0.0-3.0-1.202","","key","null","16.667000000000048","720","394.5","","","","","","","",""
"1304","arrowright","psychophysics","416","981849","0.0-3.0-0.203","","key","arrowright","16.666999999999415","720","394.5","204","8","1","30","15","25","35","true"
"null","null","psychophysics","417","982852","0.0-3.0-1.203","","key","null","16.667000000000048","720","394.5","","","","","","","",""
"3391.6999999284744","arrowright","psychophysics","418","986250","0.0-3.0-0.204","","key","arrowright","16.666999999999774","720","394.5","205","8","1","27","35","25","35","true"
"null","null","psychophysics","419","987252","0.0-3.0-1.204","","key","null","16.667000000000048","720","394.5","","","","","","","",""
"1150.6999999284744","arrowright","psychophysics","420","988408","0.0-3.0-0.205","","key","arrowright","16.66699999999896","720","394.5","206","8","-1","20","35","25","35","false"
"null","null","psychophysics","421","989410","0.0-3.0-1.205","","key","null","16.667000000000048","720","394.5","","","","","","","",""
"3349.5999999046326","arrowleft","psychophysics","422","992763","0.0-3.0-0.206","","key","arrowleft","16.667000000000115","720","394.5","207","8","-1","23","15","25","35","true"
"null","null","psychophysics","423","993769","0.0-3.0-1.206","","key","null","16.667000000000048","720","394.5","","","","","","","",""
"2016.3000000715256","arrowleft","psychophysics","424","995791","0.0-3.0-0.207","","key","arrowleft","16.666999999999476","720","394.5","208","8","1","20","35","25","35","false"
"null","null","psychophysics","425","996796","0.0-3.0-1.207","","key","null","16.667000000000048","720","394.5","","","","","","","",""
"1458.6000000238419","arrowright","psychophysics","426","998258","0.0-3.0-0.208","","key","arrowright","16.666999999999774","720","394.5","209","8","-1","24","35","25","35","false"
"null","null","psychophysics","427","999260","0.0-3.0-1.208","","key","null","16.67803389830436","720","394.5","","","","","","","",""
"895.5","arrowright","psychophysics","428","1000159","0.0-3.0-0.209","","key","arrowright","16.667000000000456","720","394.5","210","8","-1","20","35","25","35","false"
"null","null","psychophysics","429","1001160","0.0-3.0-1.209","","key","null","16.667000000000048","720","394.5","","","","","","","",""
"705","arrowright","psychophysics","430","1001869","0.0-3.0-0.210","","key","arrowright","16.666999999998797","720","394.5","211","8","1","27","35","25","35","true"
"null","null","psychophysics","431","1002871","0.0-3.0-1.210","","key","null","16.66700000000031","720","394.5","","","","","","","",""
"1125.5","arrowleft","psychophysics","432","1004000","0.0-3.0-0.211","","key","arrowleft","16.66699999999996","720","394.5","212","8","1","24","35","25","35","false"
"null","null","psychophysics","433","1005003","0.0-3.0-1.211","","key","null","16.667000000000048","720","394.5","","","","","","","",""
"3667","arrowright","psychophysics","434","1008675","0.0-3.0-0.212","","key","arrowright","16.66699999999996","720","394.5","213","8","-1","24","35","25","35","false"
"null","null","psychophysics","435","1009677","0.0-3.0-1.212","","key","null","16.667000000000048","720","394.5","","","","","","","",""
"10408.5","arrowleft","psychophysics","436","1020089","0.0-3.0-0.213","","key","arrowleft","16.668041666666678","720","394.5","214","8","-1","25","15","25","35","true"
"null","null","psychophysics","437","1021092","0.0-3.0-1.213","","key","null","16.667000000000048","720","394.5","","","","","","","",""
"1382.1000000238419","arrowleft","psychophysics","438","1022476","0.0-3.0-0.214","","key","arrowleft","16.667000000000215","720","394.5","215","8","1","20","15","25","35","false"
"null","null","psychophysics","439","1023477","0.0-3.0-1.214","","key","null","16.667000000000048","720","394.5","","","","","","","",""
"1470.2000000476837","arrowright","psychophysics","440","1024952","0.0-3.0-0.215","","key","arrowright","16.666999999999774","720","394.5","216","8","1","25","35","25","35","true"
"null","null","psychophysics","441","1025954","0.0-3.0-1.215","","key","null","16.667000000000048","720","394.5","","","","","","","",""
"858.5","arrowleft","psychophysics","442","1026817","0.0-3.0-0.216","","key","arrowleft","16.666999999999852","720","394.5","217","8","-1","24","15","25","35","true"
"null","null","psychophysics","443","1027820","0.0-3.0-1.216","","key","null","16.667000000000048","720","394.5","","","","","","","",""
"1513.2000000476837","arrowleft","psychophysics","444","1029338","0.0-3.0-0.217","","key","arrowleft","16.66700000000048","720","394.5","218","8","-1","27","15","25","35","true"
"null","null","psychophysics","445","1030340","0.0-3.0-1.217","","key","null","16.667000000000048","720","394.5","","","","","","","",""
"3632.7000000476837","arrowleft","psychophysics","446","1033976","0.0-3.0-0.218","","key","arrowleft","16.667000000000275","720","394.5","219","8","1","23","35","25","35","false"
"null","null","psychophysics","447","1034981","0.0-3.0-1.218","","key","null","16.667000000000048","720","394.5","","","","","","","",""
"6234.600000023842","arrowleft","psychophysics","448","1041219","0.0-3.0-0.219","","key","arrowleft","16.668742627346134","720","394.5","220","8","-1","26","35","25","35","true"
"null","null","psychophysics","449","1042221","0.0-3.0-1.219","","key","null","16.66700000000031","720","394.5","","","","","","","",""
"1167.7999999523163","arrowright","psychophysics","450","1043392","0.0-3.0-0.220","","key","arrowright","16.667000000000648","720","394.5","221","8","-1","20","35","25","35","false"
"null","null","psychophysics","451","1044397","0.0-3.0-1.220","","key","null","16.667000000000048","720","394.5","","","","","","","",""
"749.7000000476837","arrowleft","psychophysics","452","1045150","0.0-3.0-0.221","","key","arrowleft","16.66699999999996","720","394.5","222","8","1","23","15","25","35","false"
"null","null","psychophysics","453","1046153","0.0-3.0-1.221","","key","null","16.667000000000048","720","394.5","","","","","","","",""
"1571.1000000238419","arrowright","psychophysics","454","1047730","0.0-3.0-0.222","","key","arrowright","16.66700000000097","720","394.5","223","8","1","30","35","25","35","true"
"null","null","psychophysics","455","1048737","0.0-3.0-1.222","","key","null","16.66700000000202","720","394.5","","","","","","","",""
"1099.8999999761581","arrowleft","psychophysics","456","1049842","0.0-3.0-0.223","","key","arrowleft","16.66700000000172","720","394.5","224","9","-1","27","15","25","35","true"
"null","null","psychophysics","457","1050845","0.0-3.0-1.223","","key","null","16.666999999998072","720","394.5","","","","","","","",""
"15029.899999976158","l","html-keyboard-response","458","1065880","0.0-3.0-2.223-0.223","<div style=""color: white; text-align: center; vertical-align: top; display: inline-block; width: 800px; margin: auto""><p>You have completed 80% of the trials. You are on block 9 of 10. <br>Good job! Take a break if you need to.</p><p>Press any key to continue the experiment.</p></div>","","","","","","","","","","","","",""
"1010","arrowleft","psychophysics","459","1067902","0.0-3.0-0.224","","key","arrowleft","16.66700000000031","720","394.5","225","9","1","20","35","25","35","false"
"null","null","psychophysics","460","1068905","0.0-3.0-1.224","","key","null","16.666999999998072","720","394.5","","","","","","","",""
"1239","arrowright","psychophysics","461","1070149","0.0-3.0-0.225","","key","arrowright","16.6670000000001","720","394.5","226","9","1","26","35","25","35","true"
"null","null","psychophysics","462","1071154","0.0-3.0-1.225","","key","null","16.66700000000202","720","394.5","","","","","","","",""
"633.8999999761581","arrowleft","psychophysics","463","1071792","0.0-3.0-0.226","","key","arrowleft","16.66700000000358","720","394.5","227","9","-1","23","35","25","35","true"
"null","null","psychophysics","464","1072795","0.0-3.0-1.226","","key","null","16.66700000000202","720","394.5","","","","","","","",""
"1824.1000000238419","arrowright","psychophysics","465","1074623","0.0-3.0-0.227","","key","arrowright","16.666999999999813","720","394.5","228","9","-1","20","35","25","35","false"
"null","null","psychophysics","466","1075625","0.0-3.0-1.227","","key","null","16.66700000000202","720","394.5","","","","","","","",""
"1137.7000000476837","arrowleft","psychophysics","467","1076765","0.0-3.0-0.228","","key","arrowleft","16.667000000000193","720","394.5","229","9","1","23","35","25","35","false"
"null","null","psychophysics","468","1077771","0.0-3.0-1.228","","key","null","16.666999999998072","720","394.5","","","","","","","",""
"2136","arrowleft","psychophysics","469","1079912","0.0-3.0-0.229","","key","arrowleft","16.66699999999946","720","394.5","230","9","-1","24","15","25","35","true"
"null","null","psychophysics","470","1080918","0.0-3.0-1.229","","key","null","16.66700000000202","720","394.5","","","","","","","",""
"2207.7999999523163","arrowleft","psychophysics","471","1083130","0.0-3.0-0.230","","key","arrowleft","16.66699999999996","720","394.5","231","9","-1","25","35","25","35","true"
"null","null","psychophysics","472","1084137","0.0-3.0-1.230","","key","null","16.666999999998072","720","394.5","","","","","","","",""
"2844.7000000476837","arrowright","psychophysics","473","1086987","0.0-3.0-0.231","","key","arrowright","16.67082941176452","720","394.5","232","9","-1","20","15","25","35","false"
"null","null","psychophysics","474","1087989","0.0-3.0-1.231","","key","null","16.66700000000202","720","394.5","","","","","","","",""
"2504.899999976158","arrowleft","psychophysics","475","1090501","0.0-3.0-0.232","","key","arrowleft","16.66700000000031","720","394.5","233","9","1","24","15","25","35","false"
"null","null","psychophysics","476","1091504","0.0-3.0-1.232","","key","null","16.66700000000202","720","394.5","","","","","","","",""
"979.2999999523163","arrowright","psychophysics","477","1092488","0.0-3.0-0.233","","key","arrowright","16.666999999999774","720","394.5","234","9","-1","20","15","25","35","false"
"null","null","psychophysics","478","1093490","0.0-3.0-1.233","","key","null","16.66700000000031","720","394.5","","","","","","","",""
"655.2999999523163","arrowleft","psychophysics","479","1094149","0.0-3.0-0.234","","key","arrowleft","16.66700000000358","720","394.5","235","9","1","26","15","25","35","false"
"null","null","psychophysics","480","1095154","0.0-3.0-1.234","","key","null","16.66700000000202","720","394.5","","","","","","","",""
"1578.2999999523163","arrowleft","psychophysics","481","1096738","0.0-3.0-0.235","","key","arrowleft","16.66700000000097","720","394.5","236","9","1","25","35","25","35","false"
"null","null","psychophysics","482","1097740","0.0-3.0-1.235","","key","null","16.66700000000031","720","394.5","","","","","","","",""
"2350.3000000715256","arrowleft","psychophysics","483","1100094","0.0-3.0-0.236","","key","arrowleft","16.667000000000865","720","394.5","237","9","1","26","35","25","35","false"
"null","null","psychophysics","484","1101096","0.0-3.0-1.236","","key","null","16.66700000000202","720","394.5","","","","","","","",""
"9046.699999928474","arrowleft","psychophysics","485","1110145","0.0-3.0-0.237","","key","arrowleft","16.668199261992815","720","394.5","238","9","1","23","35","25","35","false"
"null","null","psychophysics","486","1111147","0.0-3.0-1.237","","key","null","16.66700000000202","720","394.5","","","","","","","",""
"2800.5","arrowright","psychophysics","487","1113951","0.0-3.0-0.238","","key","arrowright","16.6669999999998","720","394.5","239","9","-1","23","35","25","35","false"
"null","null","psychophysics","488","1114955","0.0-3.0-1.238","","key","null","16.666999999998072","720","394.5","","","","","","","",""
"10223.5","arrowright","psychophysics","489","1125184","0.0-3.0-0.239","","key","arrowright","16.66699999999969","720","394.5","240","9","1","23","15","25","35","true"
"null","null","psychophysics","490","1126188","0.0-3.0-1.239","","key","null","16.678016949152983","720","394.5","","","","","","","",""
"7851","arrowright","psychophysics","491","1134044","0.0-3.0-0.240","","key","arrowright","16.66700000000026","720","394.5","241","9","1","27","15","25","35","true"
"null","null","psychophysics","492","1135046","0.0-3.0-1.240","","key","null","16.66700000000202","720","394.5","","","","","","","",""
"4377.799999952316","arrowright","psychophysics","493","1139427","0.0-3.0-0.241","","key","arrowright","16.666999999999838","720","394.5","242","9","1","26","15","25","35","true"
"null","null","psychophysics","494","1140430","0.0-3.0-1.241","","key","null","16.666999999998072","720","394.5","","","","","","","",""
"1049.6000000238419","arrowleft","psychophysics","495","1141483","0.0-3.0-0.242","","key","arrowleft","16.666999999997056","720","394.5","243","9","1","20","35","25","35","false"
"null","null","psychophysics","496","1142488","0.0-3.0-1.242","","key","null","16.666999999998072","720","394.5","","","","","","","",""
"835.6000000238419","arrowright","psychophysics","497","1143327","0.0-3.0-0.243","","key","arrowright","16.666999999997206","720","394.5","244","9","-1","24","35","25","35","false"
"null","null","psychophysics","498","1144330","0.0-3.0-1.243","","key","null","16.666999999998072","720","394.5","","","","","","","",""
"1328.5","arrowright","psychophysics","499","1145661","0.0-3.0-0.244","","key","arrowright","16.66699999999962","720","394.5","245","9","1","30","15","25","35","true"
"null","null","psychophysics","500","1146663","0.0-3.0-1.244","","key","null","16.67803389830436","720","394.5","","","","","","","",""
"1027.1000000238419","arrowleft","psychophysics","501","1147694","0.0-3.0-0.245","","key","arrowleft","16.666999999998655","720","394.5","246","9","1","24","15","25","35","false"
"null","null","psychophysics","502","1148697","0.0-3.0-1.245","","key","null","16.666999999998072","720","394.5","","","","","","","",""
"1352.5","arrowright","psychophysics","503","1150053","0.0-3.0-0.246","","key","arrowright","16.66700000000128","720","394.5","247","9","-1","23","35","25","35","false"
"null","null","psychophysics","504","1151056","0.0-3.0-1.246","","key","null","16.66700000000202","720","394.5","","","","","","","",""
"1082.7000000476837","arrowleft","psychophysics","505","1152144","0.0-3.0-0.247","","key","arrowleft","16.666999999999714","720","394.5","248","9","-1","26","35","25","35","true"
"null","null","psychophysics","506","1153148","0.0-3.0-1.247","","key","null","16.666999999998072","720","394.5","","","","","","","",""
"2409","arrowright","psychophysics","507","1155561","0.0-3.0-0.248","","key","arrowright","16.666999999999664","720","394.5","249","9","-1","23","15","25","35","false"
"null","null","psychophysics","508","1156563","0.0-3.0-1.248","","key","null","16.66700000000202","720","394.5","","","","","","","",""
"1628.6000000238419","arrowleft","psychophysics","509","1158195","0.0-3.0-0.249","","key","arrowleft","16.66700000000023","720","394.5","250","9","1","20","15","25","35","false"
"null","null","psychophysics","510","1159197","0.0-3.0-1.249","","key","null","16.666999999998072","720","394.5","","","","","","","",""
"7233.299999952316","arrowright","psychophysics","511","1166433","0.0-3.0-0.250","","key","arrowright","16.668501154734166","720","394.5","251","9","1","24","15","25","35","true"
"null","null","psychophysics","512","1167439","0.0-3.0-1.250","","key","null","16.666999999998072","720","394.5","","","","","","","",""
"2517.100000023842","arrowright","psychophysics","513","1169961","0.0-3.0-0.251","","key","arrowright","16.667000000001185","720","394.5","252","10","1","26","35","25","35","true"
"null","null","psychophysics","514","1170964","0.0-3.0-1.251","","key","null","16.66700000000202","720","394.5","","","","","","","",""
"2525.399999976158","l","html-keyboard-response","515","1173491","0.0-3.0-2.251-0.251","<div style=""color: white; text-align: center; vertical-align: top; display: inline-block; width: 800px; margin: auto""><p>You have completed 90% of the trials. You are on block 10 of 10. <br>Good job! Take a break if you need to.</p><p>Press any key to continue the experiment.</p></div>","","","","","","","","","","","","",""
"1814.2999999523163","arrowleft","psychophysics","516","1176314","0.0-3.0-0.252","","key","arrowleft","16.666999999999813","720","394.5","253","10","1","23","35","25","35","false"
"null","null","psychophysics","517","1177320","0.0-3.0-1.252","","key","null","16.666999999998072","720","394.5","","","","","","","",""
"1524.1000000238419","arrowright","psychophysics","518","1178848","0.0-3.0-0.253","","key","arrowright","16.666999999999202","720","394.5","254","10","1","26","35","25","35","true"
"null","null","psychophysics","519","1179855","0.0-3.0-1.253","","key","null","16.66700000000202","720","394.5","","","","","","","",""
"2776.899999976158","arrowright","psychophysics","520","1182635","0.0-3.0-0.254","","key","arrowright","16.667000000000403","720","394.5","255","10","1","25","15","25","35","true"
"null","null","psychophysics","521","1183640","0.0-3.0-1.254","","key","null","16.66700000000202","720","394.5","","","","","","","",""
"11623.600000023842","arrowleft","psychophysics","522","1195268","0.0-3.0-0.255","","key","arrowleft","16.667932568149375","720","394.5","256","10","-1","25","15","25","35","true"
"null","null","psychophysics","523","1196273","0.0-3.0-1.255","","key","null","16.66700000000202","720","394.5","","","","","","","",""
"2176.2999999523163","arrowleft","psychophysics","524","1198455","0.0-3.0-0.256","","key","arrowleft","16.666999999999714","720","394.5","257","10","-1","27","35","25","35","true"
"null","null","psychophysics","525","1199457","0.0-3.0-1.256","","key","null","16.666999999998072","720","394.5","","","","","","","",""
"3672.399999976158","arrowleft","psychophysics","526","1203134","0.0-3.0-0.257","","key","arrowleft","16.66699999999996","720","394.5","258","10","1","20","35","25","35","false"
"null","null","psychophysics","527","1204140","0.0-3.0-1.257","","key","null","16.66700000000202","720","394.5","","","","","","","",""
"2152.3000000715256","arrowleft","psychophysics","528","1206297","0.0-3.0-0.258","","key","arrowleft","16.67203875968969","720","394.5","259","10","1","23","35","25","35","false"
"null","null","psychophysics","529","1207301","0.0-3.0-1.258","","key","null","16.666999999998072","720","394.5","","","","","","","",""
"1253.5","arrowright","psychophysics","530","1208558","0.0-3.0-0.259","","key","arrowright","16.6670000000001","720","394.5","260","10","-1","23","15","25","35","false"
"null","null","psychophysics","531","1209561","0.0-3.0-1.259","","key","null","16.66700000000031","720","394.5","","","","","","","",""
"1781.5999999046326","arrowright","psychophysics","532","1211346","0.0-3.0-0.260","","key","arrowright","16.667000000000456","720","394.5","261","10","-1","23","15","25","35","false"
"null","null","psychophysics","533","1212348","0.0-3.0-1.260","","key","null","16.666999999998072","720","394.5","","","","","","","",""
"3577","arrowright","psychophysics","534","1215927","0.0-3.0-0.261","","key","arrowright","16.66699999999951","720","394.5","262","10","-1","25","15","25","35","false"
"null","null","psychophysics","535","1216931","0.0-3.0-1.261","","key","null","16.66700000000202","720","394.5","","","","","","","",""
"970","arrowright","psychophysics","536","1217905","0.0-3.0-0.262","","key","arrowright","16.667000000001536","720","394.5","263","10","-1","20","35","25","35","false"
"null","null","psychophysics","537","1218907","0.0-3.0-1.262","","key","null","16.66700000000202","720","394.5","","","","","","","",""
"6117.5","arrowleft","psychophysics","538","1225029","0.0-3.0-0.263","","key","arrowleft","16.66700000000029","720","394.5","264","10","-1","24","15","25","35","true"
"null","null","psychophysics","539","1226034","0.0-3.0-1.263","","key","null","16.67803389830436","720","394.5","","","","","","","",""
"4174.100000023842","arrowleft","psychophysics","540","1230212","0.0-3.0-0.264","","key","arrowleft","16.667","720","394.5","265","10","-1","26","15","25","35","true"
"null","null","psychophysics","541","1231215","0.0-3.0-1.264","","key","null","16.66700000000202","720","394.5","","","","","","","",""
"2021.6000000238419","arrowright","psychophysics","542","1233240","0.0-3.0-0.265","","key","arrowright","16.66700000000031","720","394.5","266","10","1","25","15","25","35","true"
"null","null","psychophysics","543","1234242","0.0-3.0-1.265","","key","null","16.66700000000031","720","394.5","","","","","","","",""
"1341","arrowright","psychophysics","544","1235587","0.0-3.0-0.266","","key","arrowright","16.66699999999962","720","394.5","267","10","1","27","15","25","35","true"
"null","null","psychophysics","545","1236590","0.0-3.0-1.266","","key","null","16.66700000000202","720","394.5","","","","","","","",""
"882.8999999761581","arrowleft","psychophysics","546","1237479","0.0-3.0-0.267","","key","arrowleft","16.667000000000456","720","394.5","268","10","-1","26","15","25","35","true"
"null","null","psychophysics","547","1238481","0.0-3.0-1.267","","key","null","16.666999999998072","720","394.5","","","","","","","",""
"5852.5","arrowleft","psychophysics","548","1244337","0.0-3.0-0.268","","key","arrowleft","16.666999999999867","720","394.5","269","10","1","24","35","25","35","false"
"null","null","psychophysics","549","1245341","0.0-3.0-1.268","","key","null","16.66700000000202","720","394.5","","","","","","","",""
"2393.5","arrowleft","psychophysics","550","1247739","0.0-3.0-0.269","","key","arrowleft","16.671545454545168","720","394.5","270","10","-1","25","35","25","35","true"
"null","null","psychophysics","551","1248742","0.0-3.0-1.269","","key","null","16.666999999998072","720","394.5","","","","","","","",""
"2481","arrowleft","psychophysics","552","1251230","0.0-3.0-0.270","","key","arrowleft","16.666999999999426","720","394.5","271","10","1","25","35","25","35","false"
"null","null","psychophysics","553","1252233","0.0-3.0-1.270","","key","null","16.66700000000202","720","394.5","","","","","","","",""
"1410","arrowleft","psychophysics","554","1253645","0.0-3.0-0.271","","key","arrowleft","16.667000000001973","720","394.5","272","10","-1","27","35","25","35","true"
"null","null","psychophysics","555","1254648","0.0-3.0-1.271","","key","null","16.66700000000202","720","394.5","","","","","","","",""
"3537.899999976158","arrowleft","psychophysics","556","1258189","0.0-3.0-0.272","","key","arrowleft","16.66699999999983","720","394.5","273","10","-1","25","35","25","35","true"
"null","null","psychophysics","557","1259192","0.0-3.0-1.272","","key","null","16.66700000000031","720","394.5","","","","","","","",""
"1684.3999999761581","arrowleft","psychophysics","558","1260880","0.0-3.0-0.273","","key","arrowleft","16.666999999999533","720","394.5","274","10","1","23","35","25","35","false"
"null","null","psychophysics","559","1261882","0.0-3.0-1.273","","key","null","16.666999999998072","720","394.5","","","","","","","",""
"931.5","arrowright","psychophysics","560","1262817","0.0-3.0-0.274","","key","arrowright","16.666999999996783","720","394.5","275","10","1","27","35","25","35","true"
"null","null","psychophysics","561","1263821","0.0-3.0-1.274","","key","null","16.666999999998072","720","394.5","","","","","","","",""
"1144.7000000476837","arrowright","psychophysics","562","1264969","0.0-3.0-0.275","","key","arrowright","16.666999999998712","720","394.5","276","10","-1","25","35","25","35","false"
"null","null","psychophysics","563","1265974","0.0-3.0-1.275","","key","null","16.66700000000202","720","394.5","","","","","","","",""
"1617.1000000238419","arrowleft","psychophysics","564","1267596","0.0-3.0-0.276","","key","arrowleft","16.673711340207145","720","394.5","277","10","-1","23","35","25","35","true"
"null","null","psychophysics","565","1268599","0.0-3.0-1.276","","key","null","16.66700000000202","720","394.5","","","","","","","",""
"912.1000000238419","arrowright","psychophysics","566","1269514","0.0-3.0-0.277","","key","arrowright","16.667000000002897","720","394.5","278","10","1","30","35","25","35","true"
"null","null","psychophysics","567","1270521","0.0-3.0-1.277","","key","null","16.66700000000202","720","394.5","","","","","","","",""
"1039.3999999761581","arrowleft","psychophysics","568","1271563","0.0-3.0-0.278","","key","arrowleft","16.66700000000081","720","394.5","279","10","-1","26","15","25","35","true"
"null","null","psychophysics","569","1272565","0.0-3.0-1.278","","key","null","16.66700000000202","720","394.5","","","","","","","",""
"1727.8999999761581","arrowright","psychophysics","570","1274297","0.0-3.0-0.279","","key","arrowright","16.66700000000114","720","394.5","280","11","1","27","15","25","35","true"
"null","null","psychophysics","571","1275300","0.0-3.0-1.279","","key","null","16.66700000000202","720","394.5","","","","","","","",""
