"rt","response","trial_type","trial_index","time_elapsed","internal_node_id","stimulus","response_type","key_press","avg_frame_time","center_x","center_y","trial","block","test_pos","test_inner_radius","test_outer_radius","ref_inner_radius","ref_outer_radius","test_bigger"
"4659762","{""p_id"":""8909"",""age"":""19"",""handedness"":""right"",""sex"":""female"",""other_sex"":""""}","survey-html-form","0","13152985","0.0-0.0","","","","","","","","","","","","","",""
"17576"," ","html-keyboard-response","1","13170565","0.0-1.0","<p style=""color: white"">Welcome to the Size Judgment Experiment. <br>There will be 10 blocks in this experiment. <br>There will be 28 trials in each block. <br>You will be given a chance to take a break between blocks. <br>Press any key to start the experiment.</p>","","","","","","","","","","","","",""
"8371"," ","psychophysics","2","13178943","0.0-2.0","","key"," ","33.336","720","410","","","","","","","",""
"8140","arrowleft","psychophysics","3","13187089","0.0-3.0-0.0","","key","arrowleft","33.33196721311475","720","410","1","1","1","24","35","25","35","false"
"null","null","psychophysics","4","13188091","0.0-3.0-1.0","","key","null","33.310344827586206","720","410","","","","","","","",""
"2555","arrowleft","psychophysics","5","13190650","0.0-3.0-0.1","","key","arrowleft","33.32","720","410","2","1","1","20","35","25","35","false"
"null","null","psychophysics","6","13191654","0.0-3.0-1.1","","key","null","33.266666666666666","720","410","","","","","","","",""
"2166","arrowright","psychophysics","7","13193823","0.0-3.0-0.2","","key","arrowright","33.328125","720","410","3","1","1","30","15","25","35","true"
"null","null","psychophysics","8","13194826","0.0-3.0-1.2","","key","null","33.3448275862069","720","410","","","","","","","",""
"2519.9999999990687","arrowleft","psychophysics","9","13197351","0.0-3.0-0.3","","key","arrowleft","33.33783783783784","720","410","4","1","-1","25","35","25","35","true"
"null","null","psychophysics","10","13198355","0.0-3.0-1.3","","key","null","33.2","720","410","","","","","","","",""
"2339.0000000009313","arrowleft","psychophysics","11","13200697","0.0-3.0-0.4","","key","arrowleft","33.31884057971015","720","410","5","1","1","23","15","25","35","false"
"null","null","psychophysics","12","13201700","0.0-3.0-1.4","","key","null","33.3448275862069","720","410","","","","","","","",""
"972","arrowright","psychophysics","13","13202677","0.0-3.0-0.5","","key","arrowright","33.32142857142857","720","410","6","1","-1","20","35","25","35","false"
"null","null","psychophysics","14","13203680","0.0-3.0-1.5","","key","null","33.310344827586206","720","410","","","","","","","",""
"711","arrowright","psychophysics","15","13204395","0.0-3.0-0.6","","key","arrowright","33.333333333333336","720","410","7","1","1","27","35","25","35","true"
"null","null","psychophysics","16","13205398","0.0-3.0-1.6","","key","null","33.3448275862069","720","410","","","","","","","",""
"1275","arrowleft","psychophysics","17","13206676","0.0-3.0-0.7","","key","arrowleft","33.32432432432432","720","410","8","1","1","23","35","25","35","false"
"null","null","psychophysics","18","13207678","0.0-3.0-1.7","","key","null","33.310344827586206","720","410","","","","","","","",""
"945","arrowright","psychophysics","19","13208627","0.0-3.0-0.8","","key","arrowright","33.32142857142857","720","410","9","1","1","24","15","25","35","true"
"null","null","psychophysics","20","13209629","0.0-3.0-1.8","","key","null","33.3448275862069","720","410","","","","","","","",""
"672","arrowright","psychophysics","21","13210305","0.0-3.0-0.9","","key","arrowright","33.31578947368421","720","410","10","1","1","30","35","25","35","true"
"null","null","psychophysics","22","13211308","0.0-3.0-1.9","","key","null","33.3448275862069","720","410","","","","","","","",""
"830","arrowleft","psychophysics","23","13212142","0.0-3.0-0.10","","key","arrowleft","33.333333333333336","720","410","11","1","-1","24","15","25","35","true"
"null","null","psychophysics","24","13213146","0.0-3.0-1.10","","key","null","33.3448275862069","720","410","","","","","","","",""
"682","arrowright","psychophysics","25","13213832","0.0-3.0-0.11","","key","arrowright","33.35","720","410","12","1","-1","23","15","25","35","false"
"null","null","psychophysics","26","13214835","0.0-3.0-1.11","","key","null","33.3448275862069","720","410","","","","","","","",""
"1017","arrowright","psychophysics","27","13215855","0.0-3.0-0.12","","key","arrowright","33.36666666666667","720","410","13","1","-1","20","35","25","35","false"
"null","null","psychophysics","28","13216857","0.0-3.0-1.12","","key","null","33.310344827586206","720","410","","","","","","","",""
"2249","arrowleft","psychophysics","29","13219109","0.0-3.0-0.13","","key","arrowleft","33.333333333333336","720","410","14","1","1","23","15","25","35","false"
"null","null","psychophysics","30","13220112","0.0-3.0-1.13","","key","null","33.3448275862069","720","410","","","","","","","",""
"775","arrowright","psychophysics","31","13220891","0.0-3.0-0.14","","key","arrowright","33.34782608695652","720","410","15","1","-1","24","35","25","35","false"
"null","null","psychophysics","32","13221894","0.0-3.0-1.14","","key","null","33.3448275862069","720","410","","","","","","","",""
"2611.9999999990687","arrowright","psychophysics","33","13224510","0.0-3.0-0.15","","key","arrowright","33.33766233766234","720","410","16","1","-1","23","35","25","35","false"
"null","null","psychophysics","34","13225513","0.0-3.0-1.15","","key","null","33.3448275862069","720","410","","","","","","","",""
"1322","arrowright","psychophysics","35","13226839","0.0-3.0-0.16","","key","arrowright","33.333333333333336","720","410","17","1","-1","20","35","25","35","false"
"null","null","psychophysics","36","13227841","0.0-3.0-1.16","","key","null","33.310344827586206","720","410","","","","","","","",""
"994","arrowright","psychophysics","37","13228839","0.0-3.0-0.17","","key","arrowright","33.310344827586206","720","410","18","1","-1","23","15","25","35","false"
"null","null","psychophysics","38","13229842","0.0-3.0-1.17","","key","null","33.310344827586206","720","410","","","","","","","",""
"663","arrowleft","psychophysics","39","13230509","0.0-3.0-0.18","","key","arrowleft","33.31578947368421","720","410","19","1","-1","30","35","25","35","true"
"null","null","psychophysics","40","13231513","0.0-3.0-1.18","","key","null","33.3448275862069","720","410","","","","","","","",""
"866","arrowright","psychophysics","41","13232382","0.0-3.0-0.19","","key","arrowright","33.36","720","410","20","1","1","20","35","25","35","true"
"null","null","psychophysics","42","13233387","0.0-3.0-1.19","","key","null","33.333333333333336","720","410","","","","","","","",""
"649","arrowright","psychophysics","43","13234039","0.0-3.0-0.20","","key","arrowright","33.333333333333336","720","410","21","1","-1","24","15","25","35","false"
"null","null","psychophysics","44","13235042","0.0-3.0-1.20","","key","null","33.310344827586206","720","410","","","","","","","",""
"1393","arrowleft","psychophysics","45","13236439","0.0-3.0-0.21","","key","arrowleft","33.31707317073171","720","410","22","1","-1","24","35","25","35","true"
"null","null","psychophysics","46","13237442","0.0-3.0-1.21","","key","null","33.310344827586206","720","410","","","","","","","",""
"910","arrowleft","psychophysics","47","13238354","0.0-3.0-0.22","","key","arrowleft","33.333333333333336","720","410","23","1","1","24","35","25","35","false"
"null","null","psychophysics","48","13239356","0.0-3.0-1.22","","key","null","33.3448275862069","720","410","","","","","","","",""
"1336","arrowleft","psychophysics","49","13240694","0.0-3.0-0.23","","key","arrowleft","33.30769230769231","720","410","24","1","-1","27","15","25","35","true"
"null","null","psychophysics","50","13241697","0.0-3.0-1.23","","key","null","33.310344827586206","720","410","","","","","","","",""
"1022","arrowright","psychophysics","51","13242724","0.0-3.0-0.24","","key","arrowright","33.36666666666667","720","410","25","1","1","26","15","25","35","true"
"null","null","psychophysics","52","13243727","0.0-3.0-1.24","","key","null","33.3448275862069","720","410","","","","","","","",""
"1161","arrowleft","psychophysics","53","13244893","0.0-3.0-0.25","","key","arrowleft","33.3235294117647","720","410","26","1","-1","20","15","25","35","true"
"null","null","psychophysics","54","13245896","0.0-3.0-1.25","","key","null","33.310344827586206","720","410","","","","","","","",""
"1927","arrowleft","psychophysics","55","13247826","0.0-3.0-0.26","","key","arrowleft","33.35087719298246","720","410","27","1","-1","26","35","25","35","true"
"null","null","psychophysics","56","13248830","0.0-3.0-1.26","","key","null","33.37931034482759","720","410","","","","","","","",""
"1528.0000000009313","arrowleft","psychophysics","57","13250361","0.0-3.0-0.27","","key","arrowleft","33.333333333333336","720","410","28","2","1","23","15","25","35","false"
"null","null","psychophysics","58","13251364","0.0-3.0-1.27","","key","null","33.3448275862069","720","410","","","","","","","",""
"3890"," ","html-keyboard-response","59","13255256","0.0-3.0-2.27-0.27","<div style=""color: white; text-align: center; vertical-align: top; display: inline-block; width: 800px; margin: auto""><p>You have completed 10% of the trials. You are on block 2 of 10. <br>Good job! Take a break if you need to.</p><p>Press any key to continue the experiment.</p></div>","","","","","","","","","","","","",""
"2083","arrowright","psychophysics","60","13258348","0.0-3.0-0.28","","key","arrowright","33.33870967741935","720","410","29","2","-1","23","35","25","35","false"
"null","null","psychophysics","61","13259351","0.0-3.0-1.28","","key","null","33.310344827586206","720","410","","","","","","","",""
"834","arrowleft","psychophysics","62","13260189","0.0-3.0-0.29","","key","arrowleft","33.333333333333336","720","410","30","2","1","24","35","25","35","false"
"null","null","psychophysics","63","13261192","0.0-3.0-1.29","","key","null","33.3448275862069","720","410","","","","","","","",""
"1430","arrowleft","psychophysics","64","13262626","0.0-3.0-0.30","","key","arrowleft","33.333333333333336","720","410","31","2","-1","27","35","25","35","true"
"null","null","psychophysics","65","13263630","0.0-3.0-1.30","","key","null","33.310344827586206","720","410","","","","","","","",""
"753","arrowleft","psychophysics","66","13264388","0.0-3.0-0.31","","key","arrowleft","33.27272727272727","720","410","32","2","-1","30","15","25","35","true"
"null","null","psychophysics","67","13265391","0.0-3.0-1.31","","key","null","33.3448275862069","720","410","","","","","","","",""
"1230","arrowleft","psychophysics","68","13266626","0.0-3.0-0.32","","key","arrowleft","33.333333333333336","720","410","33","2","-1","24","15","25","35","true"
"null","null","psychophysics","69","13267630","0.0-3.0-1.32","","key","null","33.3448275862069","720","410","","","","","","","",""
"627","arrowleft","psychophysics","70","13268261","0.0-3.0-0.33","","key","arrowleft","33.388888888888886","720","410","34","2","-1","30","35","25","35","true"
"null","null","psychophysics","71","13269265","0.0-3.0-1.33","","key","null","33.310344827586206","720","410","","","","","","","",""
"924","arrowright","psychophysics","72","13270192","0.0-3.0-0.34","","key","arrowright","33.333333333333336","720","410","35","2","-1","24","15","25","35","false"
"null","null","psychophysics","73","13271196","0.0-3.0-1.34","","key","null","33.3448275862069","720","410","","","","","","","",""
"573.0000000009313","arrowleft","psychophysics","74","13271772","0.0-3.0-0.35","","key","arrowleft","33.35294117647059","720","410","36","2","1","27","15","25","35","false"
"null","null","psychophysics","75","13272776","0.0-3.0-1.35","","key","null","33.3448275862069","720","410","","","","","","","",""
"693","arrowright","psychophysics","76","13273472","0.0-3.0-0.36","","key","arrowright","33.35","720","410","37","2","1","26","15","25","35","true"
"null","null","psychophysics","77","13274474","0.0-3.0-1.36","","key","null","33.3448275862069","720","410","","","","","","","",""
"1156","arrowright","psychophysics","78","13275632","0.0-3.0-0.37","","key","arrowright","33.333333333333336","720","410","38","2","-1","23","35","25","35","false"
"null","null","psychophysics","79","13276638","0.0-3.0-1.37","","key","null","33.333333333333336","720","410","","","","","","","",""
"2264","arrowright","psychophysics","80","13278905","0.0-3.0-0.38","","key","arrowright","33.32835820895522","720","410","39","2","-1","27","35","25","35","false"
"null","null","psychophysics","81","13279907","0.0-3.0-1.38","","key","null","33.310344827586206","720","410","","","","","","","",""
"1215","arrowleft","psychophysics","82","13281126","0.0-3.0-0.39","","key","arrowleft","33.31428571428572","720","410","40","2","1","24","35","25","35","false"
"null","null","psychophysics","83","13282131","0.0-3.0-1.39","","key","null","33.310344827586206","720","410","","","","","","","",""
"658.0000000009313","arrowright","psychophysics","84","13282795","0.0-3.0-0.40","","key","arrowright","33.26315789473684","720","410","41","2","1","27","15","25","35","true"
"null","null","psychophysics","85","13283798","0.0-3.0-1.40","","key","null","33.3448275862069","720","410","","","","","","","",""
"1645.0000000009313","arrowleft","psychophysics","86","13285446","0.0-3.0-0.41","","key","arrowleft","33.326530612244895","720","410","42","2","1","24","35","25","35","false"
"null","null","psychophysics","87","13286450","0.0-3.0-1.41","","key","null","33.3448275862069","720","410","","","","","","","",""
"868","arrowleft","psychophysics","88","13287322","0.0-3.0-0.42","","key","arrowleft","33.32","720","410","43","2","1","20","35","25","35","false"
"null","null","psychophysics","89","13288326","0.0-3.0-1.42","","key","null","33.310344827586206","720","410","","","","","","","",""
"902","arrowleft","psychophysics","90","13289231","0.0-3.0-0.43","","key","arrowleft","33.26923076923077","720","410","44","2","-1","26","15","25","35","true"
"null","null","psychophysics","91","13290238","0.0-3.0-1.43","","key","null","33.333333333333336","720","410","","","","","","","",""
"800","arrowright","psychophysics","92","13291040","0.0-3.0-0.44","","key","arrowright","33.30434782608695","720","410","45","2","1","26","15","25","35","true"
"null","null","psychophysics","93","13292043","0.0-3.0-1.44","","key","null","33.3448275862069","720","410","","","","","","","",""
"613","arrowleft","psychophysics","94","13292659","0.0-3.0-0.45","","key","arrowleft","33.35294117647059","720","410","46","2","-1","20","15","25","35","true"
"null","null","psychophysics","95","13293662","0.0-3.0-1.45","","key","null","33.3448275862069","720","410","","","","","","","",""
"1511","arrowleft","psychophysics","96","13295177","0.0-3.0-0.46","","key","arrowleft","33.333333333333336","720","410","47","2","1","26","35","25","35","false"
"null","null","psychophysics","97","13296180","0.0-3.0-1.46","","key","null","33.310344827586206","720","410","","","","","","","",""
"946.0000000009313","arrowleft","psychophysics","98","13297129","0.0-3.0-0.47","","key","arrowleft","33.333333333333336","720","410","48","2","-1","25","35","25","35","true"
"null","null","psychophysics","99","13298133","0.0-3.0-1.47","","key","null","33.3448275862069","720","410","","","","","","","",""
"997","arrowright","psychophysics","100","13299134","0.0-3.0-0.48","","key","arrowright","33.310344827586206","720","410","49","2","-1","25","35","25","35","false"
"null","null","psychophysics","101","13300137","0.0-3.0-1.48","","key","null","33.3","720","410","","","","","","","",""
"1519","arrowright","psychophysics","102","13301659","0.0-3.0-0.49","","key","arrowright","33.34090909090909","720","410","50","2","1","23","35","25","35","true"
"null","null","psychophysics","103","13302662","0.0-3.0-1.49","","key","null","33.3448275862069","720","410","","","","","","","",""
"982.0000000009313","arrowleft","psychophysics","104","13303647","0.0-3.0-0.50","","key","arrowleft","33.3448275862069","720","410","51","2","-1","26","15","25","35","true"
"null","null","psychophysics","105","13304651","0.0-3.0-1.50","","key","null","33.3448275862069","720","410","","","","","","","",""
"821","arrowright","psychophysics","106","13305477","0.0-3.0-0.51","","key","arrowright","33.333333333333336","720","410","52","2","-1","27","35","25","35","false"
"null","null","psychophysics","107","13306480","0.0-3.0-1.51","","key","null","33.310344827586206","720","410","","","","","","","",""
"906","arrowleft","psychophysics","108","13307389","0.0-3.0-0.52","","key","arrowleft","33.30769230769231","720","410","53","2","1","24","35","25","35","false"
"null","null","psychophysics","109","13308393","0.0-3.0-1.52","","key","null","33.310344827586206","720","410","","","","","","","",""
"872.0000000009313","arrowright","psychophysics","110","13309272","0.0-3.0-0.53","","key","arrowright","33.30769230769231","720","410","54","2","-1","20","35","25","35","false"
"null","null","psychophysics","111","13310274","0.0-3.0-1.53","","key","null","33.310344827586206","720","410","","","","","","","",""
"1029","arrowleft","psychophysics","112","13311306","0.0-3.0-0.54","","key","arrowleft","33.333333333333336","720","410","55","2","-1","30","35","25","35","true"
"null","null","psychophysics","113","13312308","0.0-3.0-1.54","","key","null","33.3448275862069","720","410","","","","","","","",""
"1015","arrowleft","psychophysics","114","13313326","0.0-3.0-0.55","","key","arrowleft","33.3448275862069","720","410","56","3","-1","27","15","25","35","true"
"null","null","psychophysics","115","13314331","0.0-3.0-1.55","","key","null","33.3448275862069","720","410","","","","","","","",""
"3167"," ","html-keyboard-response","116","13317500","0.0-3.0-2.55-0.55","<div style=""color: white; text-align: center; vertical-align: top; display: inline-block; width: 800px; margin: auto""><p>You have completed 20% of the trials. You are on block 3 of 10. <br>Good job! Take a break if you need to.</p><p>Press any key to continue the experiment.</p></div>","","","","","","","","","","","","",""
"1005","arrowleft","psychophysics","117","13319510","0.0-3.0-0.56","","key","arrowleft","33.310344827586206","720","410","57","3","-1","30","35","25","35","true"
"null","null","psychophysics","118","13320514","0.0-3.0-1.56","","key","null","33.3448275862069","720","410","","","","","","","",""
"1289","arrowright","psychophysics","119","13321806","0.0-3.0-0.57","","key","arrowright","33.31578947368421","720","410","58","3","1","23","15","25","35","true"
"null","null","psychophysics","120","13322809","0.0-3.0-1.57","","key","null","33.3448275862069","720","410","","","","","","","",""
"1379","arrowright","psychophysics","121","13324192","0.0-3.0-0.58","","key","arrowright","33.34146341463415","720","410","59","3","1","25","15","25","35","true"
"null","null","psychophysics","122","13325195","0.0-3.0-1.58","","key","null","33.310344827586206","720","410","","","","","","","",""
"2646","arrowleft","psychophysics","123","13327845","0.0-3.0-0.59","","key","arrowleft","33.333333333333336","720","410","60","3","1","26","35","25","35","false"
"null","null","psychophysics","124","13328850","0.0-3.0-1.59","","key","null","33.3448275862069","720","410","","","","","","","",""
"1501","arrowright","psychophysics","125","13330355","0.0-3.0-0.60","","key","arrowright","33.266666666666666","720","410","61","3","1","27","35","25","35","true"
"null","null","psychophysics","126","13331357","0.0-3.0-1.60","","key","null","33.3448275862069","720","410","","","","","","","",""
"1155","arrowleft","psychophysics","127","13332516","0.0-3.0-0.61","","key","arrowleft","33.333333333333336","720","410","62","3","-1","27","35","25","35","true"
"null","null","psychophysics","128","13333522","0.0-3.0-1.61","","key","null","33.3","720","410","","","","","","","",""
"754","arrowleft","psychophysics","129","13334278","0.0-3.0-0.62","","key","arrowleft","33.333333333333336","720","410","63","3","-1","30","35","25","35","true"
"null","null","psychophysics","130","13335281","0.0-3.0-1.62","","key","null","33.3448275862069","720","410","","","","","","","",""
"880","arrowright","psychophysics","131","13336165","0.0-3.0-0.63","","key","arrowright","33.34615384615385","720","410","64","3","-1","25","15","25","35","false"
"null","null","psychophysics","132","13337169","0.0-3.0-1.63","","key","null","33.3448275862069","720","410","","","","","","","",""
"617","arrowleft","psychophysics","133","13337790","0.0-3.0-0.64","","key","arrowleft","33.333333333333336","720","410","65","3","-1","26","15","25","35","true"
"null","null","psychophysics","134","13338792","0.0-3.0-1.64","","key","null","33.310344827586206","720","410","","","","","","","",""
"619","arrowleft","psychophysics","135","13339414","0.0-3.0-0.65","","key","arrowleft","33.294117647058826","720","410","66","3","-1","27","15","25","35","true"
"null","null","psychophysics","136","13340417","0.0-3.0-1.65","","key","null","33.310344827586206","720","410","","","","","","","",""
"564","arrowleft","psychophysics","137","13340985","0.0-3.0-0.66","","key","arrowleft","33.1875","720","410","67","3","-1","25","15","25","35","true"
"null","null","psychophysics","138","13341988","0.0-3.0-1.66","","key","null","33.2","720","410","","","","","","","",""
"899","arrowright","psychophysics","139","13342889","0.0-3.0-0.67","","key","arrowright","33.34615384615385","720","410","68","3","1","27","15","25","35","true"
"null","null","psychophysics","140","13343892","0.0-3.0-1.67","","key","null","33.310344827586206","720","410","","","","","","","",""
"1669","arrowright","psychophysics","141","13345564","0.0-3.0-0.68","","key","arrowright","33.326530612244895","720","410","69","3","-1","24","15","25","35","false"
"null","null","psychophysics","142","13346568","0.0-3.0-1.68","","key","null","33.3448275862069","720","410","","","","","","","",""
"983","arrowright","psychophysics","143","13347555","0.0-3.0-0.69","","key","arrowright","33.3448275862069","720","410","70","3","-1","23","15","25","35","false"
"null","null","psychophysics","144","13348558","0.0-3.0-1.69","","key","null","33.310344827586206","720","410","","","","","","","",""
"797.9999999990687","arrowright","psychophysics","145","13349360","0.0-3.0-0.70","","key","arrowright","33.30434782608695","720","410","71","3","1","24","15","25","35","true"
"null","null","psychophysics","146","13350363","0.0-3.0-1.70","","key","null","33.310344827586206","720","410","","","","","","","",""
"911","arrowleft","psychophysics","147","13351279","0.0-3.0-0.71","","key","arrowleft","33.34615384615385","720","410","72","3","1","27","35","25","35","false"
"null","null","psychophysics","148","13352282","0.0-3.0-1.71","","key","null","33.3448275862069","720","410","","","","","","","",""
"902","arrowright","psychophysics","149","13353188","0.0-3.0-0.72","","key","arrowright","33.333333333333336","720","410","73","3","1","24","15","25","35","true"
"null","null","psychophysics","150","13354191","0.0-3.0-1.72","","key","null","33.3448275862069","720","410","","","","","","","",""
"996","arrowleft","psychophysics","151","13355190","0.0-3.0-0.73","","key","arrowleft","33.3448275862069","720","410","74","3","1","20","35","25","35","false"
"null","null","psychophysics","152","13356193","0.0-3.0-1.73","","key","null","33.3448275862069","720","410","","","","","","","",""
"1098","arrowleft","psychophysics","153","13357294","0.0-3.0-0.74","","key","arrowleft","33.3125","720","410","75","3","-1","25","15","25","35","true"
"null","null","psychophysics","154","13358298","0.0-3.0-1.74","","key","null","33.3448275862069","720","410","","","","","","","",""
"1409","arrowright","psychophysics","155","13359710","0.0-3.0-0.75","","key","arrowright","33.34146341463415","720","410","76","3","1","24","15","25","35","true"
"null","null","psychophysics","156","13360712","0.0-3.0-1.75","","key","null","33.37931034482759","720","410","","","","","","","",""
"690","arrowright","psychophysics","157","13361406","0.0-3.0-0.76","","key","arrowright","33.35","720","410","77","3","1","30","35","25","35","true"
"null","null","psychophysics","158","13362409","0.0-3.0-1.76","","key","null","33.3448275862069","720","410","","","","","","","",""
"1727","arrowright","psychophysics","159","13364139","0.0-3.0-0.77","","key","arrowright","33.333333333333336","720","410","78","3","-1","24","35","25","35","false"
"null","null","psychophysics","160","13365142","0.0-3.0-1.77","","key","null","33.3448275862069","720","410","","","","","","","",""
"995.9999999990687","arrowleft","psychophysics","161","13366143","0.0-3.0-0.78","","key","arrowleft","33.3448275862069","720","410","79","3","1","25","35","25","35","false"
"null","null","psychophysics","162","13367146","0.0-3.0-1.78","","key","null","33.3448275862069","720","410","","","","","","","",""
"930.0000000009313","arrowleft","psychophysics","163","13368080","0.0-3.0-0.79","","key","arrowleft","33.333333333333336","720","410","80","3","-1","25","15","25","35","true"
"null","null","psychophysics","164","13369083","0.0-3.0-1.79","","key","null","33.310344827586206","720","410","","","","","","","",""
"969","arrowleft","psychophysics","165","13370055","0.0-3.0-0.80","","key","arrowleft","33.275862068965516","720","410","81","3","-1","25","15","25","35","true"
"null","null","psychophysics","166","13371057","0.0-3.0-1.80","","key","null","33.310344827586206","720","410","","","","","","","",""
"1265.9999999990687","arrowleft","psychophysics","167","13372328","0.0-3.0-0.81","","key","arrowleft","33.32432432432432","720","410","82","3","-1","20","15","25","35","true"
"null","null","psychophysics","168","13373332","0.0-3.0-1.81","","key","null","33.310344827586206","720","410","","","","","","","",""
"918","arrowright","psychophysics","169","13374255","0.0-3.0-0.82","","key","arrowright","33.2962962962963","720","410","83","3","1","26","15","25","35","true"
"null","null","psychophysics","170","13375258","0.0-3.0-1.82","","key","null","33.3448275862069","720","410","","","","","","","",""
"1027","arrowleft","psychophysics","171","13376288","0.0-3.0-0.83","","key","arrowleft","33.333333333333336","720","410","84","4","-1","24","35","25","35","true"
"null","null","psychophysics","172","13377291","0.0-3.0-1.83","","key","null","33.3448275862069","720","410","","","","","","","",""
"1499"," ","html-keyboard-response","173","13378791","0.0-3.0-2.83-0.83","<div style=""color: white; text-align: center; vertical-align: top; display: inline-block; width: 800px; margin: auto""><p>You have completed 30% of the trials. You are on block 4 of 10. <br>Good job! Take a break if you need to.</p><p>Press any key to continue the experiment.</p></div>","","","","","","","","","","","","",""
"627","arrowright","psychophysics","174","13380423","0.0-3.0-0.84","","key","arrowright","33.388888888888886","720","410","85","4","-1","30","15","25","35","false"
"null","null","psychophysics","175","13381427","0.0-3.0-1.84","","key","null","33.3448275862069","720","410","","","","","","","",""
"896","arrowright","psychophysics","176","13382326","0.0-3.0-0.85","","key","arrowright","33.34615384615385","720","410","86","4","-1","27","15","25","35","false"
"null","null","psychophysics","177","13383331","0.0-3.0-1.85","","key","null","33.3448275862069","720","410","","","","","","","",""
"858","arrowleft","psychophysics","178","13384192","0.0-3.0-0.86","","key","arrowleft","33.32","720","410","87","4","1","23","15","25","35","false"
"null","null","psychophysics","179","13385193","0.0-3.0-1.86","","key","null","33.310344827586206","720","410","","","","","","","",""
"580","arrowright","psychophysics","180","13385777","0.0-3.0-0.87","","key","arrowright","33.35294117647059","720","410","88","4","1","30","15","25","35","true"
"null","null","psychophysics","181","13386780","0.0-3.0-1.87","","key","null","33.310344827586206","720","410","","","","","","","",""
"689","arrowright","psychophysics","182","13387473","0.0-3.0-0.88","","key","arrowright","33.3","720","410","89","4","-1","30","35","25","35","false"
"null","null","psychophysics","183","13388476","0.0-3.0-1.88","","key","null","33.310344827586206","720","410","","","","","","","",""
"545","arrowright","psychophysics","184","13389026","0.0-3.0-0.89","","key","arrowright","33.333333333333336","720","410","90","4","1","30","15","25","35","true"
"null","null","psychophysics","185","13390031","0.0-3.0-1.89","","key","null","33.3448275862069","720","410","","","","","","","",""
"699","arrowright","psychophysics","186","13390735","0.0-3.0-0.90","","key","arrowright","33.35","720","410","91","4","-1","24","35","25","35","false"
"null","null","psychophysics","187","13391739","0.0-3.0-1.90","","key","null","33.233333333333334","720","410","","","","","","","",""
"688","arrowright","psychophysics","188","13392430","0.0-3.0-0.91","","key","arrowright","33.36842105263158","720","410","92","4","1","30","35","25","35","true"
"null","null","psychophysics","189","13393434","0.0-3.0-1.91","","key","null","33.3448275862069","720","410","","","","","","","",""
"671","arrowright","psychophysics","190","13394108","0.0-3.0-0.92","","key","arrowright","33.25","720","410","93","4","-1","26","15","25","35","false"
"null","null","psychophysics","191","13395111","0.0-3.0-1.92","","key","null","33.3448275862069","720","410","","","","","","","",""
"560","arrowleft","psychophysics","192","13395676","0.0-3.0-0.93","","key","arrowleft","33.3125","720","410","94","4","-1","30","15","25","35","true"
"null","null","psychophysics","193","13396679","0.0-3.0-1.93","","key","null","33.310344827586206","720","410","","","","","","","",""
"533","arrowright","psychophysics","194","13397216","0.0-3.0-0.94","","key","arrowright","33.333333333333336","720","410","95","4","-1","23","15","25","35","false"
"null","null","psychophysics","195","13398219","0.0-3.0-1.94","","key","null","33.3448275862069","720","410","","","","","","","",""
"471","arrowleft","psychophysics","196","13398693","0.0-3.0-0.95","","key","arrowleft","33.30769230769231","720","410","96","4","-1","30","15","25","35","true"
"null","null","psychophysics","197","13399696","0.0-3.0-1.95","","key","null","33.310344827586206","720","410","","","","","","","",""
"596","arrowright","psychophysics","198","13400295","0.0-3.0-0.96","","key","arrowright","33.35294117647059","720","410","97","4","-1","25","35","25","35","false"
"null","null","psychophysics","199","13401298","0.0-3.0-1.96","","key","null","33.3448275862069","720","410","","","","","","","",""
"663.9999999990687","arrowright","psychophysics","200","13401966","0.0-3.0-0.97","","key","arrowright","33.31578947368421","720","410","98","4","1","26","15","25","35","true"
"null","null","psychophysics","201","13402972","0.0-3.0-1.97","","key","null","33.333333333333336","720","410","","","","","","","",""
"774","arrowright","psychophysics","202","13403749","0.0-3.0-0.98","","key","arrowright","33.31818181818182","720","410","99","4","-1","24","35","25","35","false"
"null","null","psychophysics","203","13404751","0.0-3.0-1.98","","key","null","33.3448275862069","720","410","","","","","","","",""
"518","arrowright","psychophysics","204","13405272","0.0-3.0-0.99","","key","arrowright","33.333333333333336","720","410","100","4","1","26","35","25","35","true"
"null","null","psychophysics","205","13406275","0.0-3.0-1.99","","key","null","33.3448275862069","720","410","","","","","","","",""
"418.0000000009313","arrowright","psychophysics","206","13406696","0.0-3.0-0.100","","key","arrowright","33.27272727272727","720","410","101","4","1","24","35","25","35","true"
"null","null","psychophysics","207","13407700","0.0-3.0-1.100","","key","null","33.3448275862069","720","410","","","","","","","",""
"445","arrowright","psychophysics","208","13408150","0.0-3.0-0.101","","key","arrowright","33","720","410","102","4","1","27","35","25","35","true"
"null","null","psychophysics","209","13409153","0.0-3.0-1.101","","key","null","33.3448275862069","720","410","","","","","","","",""
"369","arrowleft","psychophysics","210","13409526","0.0-3.0-0.102","","key","arrowleft","33.4","720","410","103","4","1","30","15","25","35","false"
"null","null","psychophysics","211","13410529","0.0-3.0-1.102","","key","null","33.3448275862069","720","410","","","","","","","",""
"512","arrowright","psychophysics","212","13411046","0.0-3.0-0.103","","key","arrowright","33.333333333333336","720","410","104","4","1","27","15","25","35","true"
"null","null","psychophysics","213","13412048","0.0-3.0-1.103","","key","null","33.3448275862069","720","410","","","","","","","",""
"436.9999999990687","arrowright","psychophysics","214","13412490","0.0-3.0-0.104","","key","arrowright","33.333333333333336","720","410","105","4","1","30","15","25","35","true"
"null","null","psychophysics","215","13413494","0.0-3.0-1.104","","key","null","33.3448275862069","720","410","","","","","","","",""
"615","arrowright","psychophysics","216","13414114","0.0-3.0-0.105","","key","arrowright","33.333333333333336","720","410","106","4","1","27","35","25","35","true"
"null","null","psychophysics","217","13415117","0.0-3.0-1.105","","key","null","33.3448275862069","720","410","","","","","","","",""
"619","arrowleft","psychophysics","218","13415740","0.0-3.0-0.106","","key","arrowleft","33.333333333333336","720","410","107","4","-1","27","15","25","35","true"
"null","null","psychophysics","219","13416743","0.0-3.0-1.106","","key","null","33.3448275862069","720","410","","","","","","","",""
"543","arrowright","psychophysics","220","13417290","0.0-3.0-0.107","","key","arrowright","33.333333333333336","720","410","108","4","1","23","35","25","35","true"
"null","null","psychophysics","221","13418293","0.0-3.0-1.107","","key","null","33.37931034482759","720","410","","","","","","","",""
"709","arrowright","psychophysics","222","13419005","0.0-3.0-0.108","","key","arrowright","33.333333333333336","720","410","109","4","1","23","15","25","35","true"
"null","null","psychophysics","223","13420008","0.0-3.0-1.108","","key","null","33.3448275862069","720","410","","","","","","","",""
"525","arrowright","psychophysics","224","13420536","0.0-3.0-0.109","","key","arrowright","33.285714285714285","720","410","110","4","1","26","35","25","35","true"
"null","null","psychophysics","225","13421538","0.0-3.0-1.109","","key","null","33.2","720","410","","","","","","","",""
"553","arrowright","psychophysics","226","13422093","0.0-3.0-0.110","","key","arrowright","33.333333333333336","720","410","111","4","-1","25","35","25","35","false"
"null","null","psychophysics","227","13423096","0.0-3.0-1.110","","key","null","33.3448275862069","720","410","","","","","","","",""
"524","arrowleft","psychophysics","228","13423623","0.0-3.0-0.111","","key","arrowleft","33.333333333333336","720","410","112","5","1","24","35","25","35","false"
"null","null","psychophysics","229","13424628","0.0-3.0-1.111","","key","null","33.3448275862069","720","410","","","","","","","",""
"1220.0000000009313"," ","html-keyboard-response","230","13425851","0.0-3.0-2.111-0.111","<div style=""color: white; text-align: center; vertical-align: top; display: inline-block; width: 800px; margin: auto""><p>You have completed 40% of the trials. You are on block 5 of 10. <br>Good job! Take a break if you need to.</p><p>Press any key to continue the experiment.</p></div>","","","","","","","","","","","","",""
"876","arrowright","psychophysics","231","13427734","0.0-3.0-0.112","","key","arrowright","33.32","720","410","113","5","1","27","15","25","35","true"
"null","null","psychophysics","232","13428738","0.0-3.0-1.112","","key","null","33.3","720","410","","","","","","","",""
"475","arrowleft","psychophysics","233","13429216","0.0-3.0-0.113","","key","arrowleft","33.38461538461539","720","410","114","5","-1","27","15","25","35","true"
"null","null","psychophysics","234","13430220","0.0-3.0-1.113","","key","null","33.3448275862069","720","410","","","","","","","",""
"416","arrowright","psychophysics","235","13430639","0.0-3.0-0.114","","key","arrowright","33.333333333333336","720","410","115","5","1","23","15","25","35","true"
"null","null","psychophysics","236","13431641","0.0-3.0-1.114","","key","null","33.3448275862069","720","410","","","","","","","",""
"916","arrowright","psychophysics","237","13432560","0.0-3.0-0.115","","key","arrowright","33.34615384615385","720","410","116","5","-1","20","35","25","35","false"
"null","null","psychophysics","238","13433565","0.0-3.0-1.115","","key","null","33.3448275862069","720","410","","","","","","","",""
"757","arrowright","psychophysics","239","13434327","0.0-3.0-0.116","","key","arrowright","33.31818181818182","720","410","117","5","-1","23","35","25","35","false"
"null","null","psychophysics","240","13435330","0.0-3.0-1.116","","key","null","33.310344827586206","720","410","","","","","","","",""
"623","arrowright","psychophysics","241","13435957","0.0-3.0-0.117","","key","arrowright","33.333333333333336","720","410","118","5","1","30","35","25","35","true"
"null","null","psychophysics","242","13436960","0.0-3.0-1.117","","key","null","33.3448275862069","720","410","","","","","","","",""
"503.9999999990687","arrowright","psychophysics","243","13437467","0.0-3.0-0.118","","key","arrowright","33.42857142857143","720","410","119","5","-1","23","15","25","35","false"
"null","null","psychophysics","244","13438472","0.0-3.0-1.118","","key","null","33.3","720","410","","","","","","","",""
"835","arrowleft","psychophysics","245","13439309","0.0-3.0-0.119","","key","arrowleft","33.333333333333336","720","410","120","5","-1","25","35","25","35","true"
"null","null","psychophysics","246","13440312","0.0-3.0-1.119","","key","null","33.310344827586206","720","410","","","","","","","",""
"940","arrowright","psychophysics","247","13441256","0.0-3.0-0.120","","key","arrowright","33.333333333333336","720","410","121","5","1","20","35","25","35","true"
"null","null","psychophysics","248","13442260","0.0-3.0-1.120","","key","null","33.3448275862069","720","410","","","","","","","",""
"609","arrowright","psychophysics","249","13442874","0.0-3.0-0.121","","key","arrowright","33.333333333333336","720","410","122","5","-1","25","35","25","35","false"
"null","null","psychophysics","250","13443876","0.0-3.0-1.121","","key","null","33.3448275862069","720","410","","","","","","","",""
"355","arrowright","psychophysics","251","13444234","0.0-3.0-0.122","","key","arrowright","33.333333333333336","720","410","123","5","1","20","35","25","35","true"
"null","null","psychophysics","252","13445239","0.0-3.0-1.122","","key","null","33.3","720","410","","","","","","","",""
"351","arrowleft","psychophysics","253","13445593","0.0-3.0-0.123","","key","arrowleft","33.333333333333336","720","410","124","5","-1","24","15","25","35","true"
"null","null","psychophysics","254","13446597","0.0-3.0-1.123","","key","null","33.3448275862069","720","410","","","","","","","",""
"291.9999999990687","arrowright","psychophysics","255","13446893","0.0-3.0-0.124","","key","arrowright","33.375","720","410","125","5","1","25","35","25","35","true"
"null","null","psychophysics","256","13447897","0.0-3.0-1.124","","key","null","33.3448275862069","720","410","","","","","","","",""
"2038","arrowright","psychophysics","257","13449939","0.0-3.0-0.125","","key","arrowright","33.32786885245902","720","410","126","5","1","23","35","25","35","true"
"null","null","psychophysics","258","13450941","0.0-3.0-1.125","","key","null","33.3448275862069","720","410","","","","","","","",""
"570.9999999990687","arrowright","psychophysics","259","13451516","0.0-3.0-0.126","","key","arrowright","33.375","720","410","127","5","1","26","15","25","35","true"
"null","null","psychophysics","260","13452519","0.0-3.0-1.126","","key","null","33.3448275862069","720","410","","","","","","","",""
"618","arrowleft","psychophysics","261","13453139","0.0-3.0-0.127","","key","arrowleft","33.27777777777778","720","410","128","5","1","20","35","25","35","false"
"null","null","psychophysics","262","13454142","0.0-3.0-1.127","","key","null","33.3448275862069","720","410","","","","","","","",""
"590.0000000009313","arrowright","psychophysics","263","13454734","0.0-3.0-0.128","","key","arrowright","33.375","720","410","129","5","1","25","15","25","35","true"
"null","null","psychophysics","264","13455739","0.0-3.0-1.128","","key","null","33.3","720","410","","","","","","","",""
"582","arrowleft","psychophysics","265","13456323","0.0-3.0-0.129","","key","arrowleft","33.3125","720","410","130","5","1","24","15","25","35","false"
"null","null","psychophysics","266","13457327","0.0-3.0-1.129","","key","null","33.3448275862069","720","410","","","","","","","",""
"678","arrowright","psychophysics","267","13458009","0.0-3.0-0.130","","key","arrowright","33.35","720","410","131","5","1","25","35","25","35","true"
"null","null","psychophysics","268","13459011","0.0-3.0-1.130","","key","null","33.3448275862069","720","410","","","","","","","",""
"597","arrowright","psychophysics","269","13459610","0.0-3.0-0.131","","key","arrowright","33.35294117647059","720","410","132","5","1","27","15","25","35","true"
"null","null","psychophysics","270","13460613","0.0-3.0-1.131","","key","null","33.3448275862069","720","410","","","","","","","",""
"674","arrowright","psychophysics","271","13461289","0.0-3.0-0.132","","key","arrowright","33.36842105263158","720","410","133","5","1","30","35","25","35","true"
"null","null","psychophysics","272","13462292","0.0-3.0-1.132","","key","null","33.310344827586206","720","410","","","","","","","",""
"610","arrowright","psychophysics","273","13462906","0.0-3.0-0.133","","key","arrowright","33.333333333333336","720","410","134","5","-1","23","35","25","35","false"
"null","null","psychophysics","274","13463908","0.0-3.0-1.133","","key","null","33.3448275862069","720","410","","","","","","","",""
"1065.0000000009313","arrowright","psychophysics","275","13464976","0.0-3.0-0.134","","key","arrowright","33.32258064516129","720","410","135","5","-1","20","15","25","35","false"
"null","null","psychophysics","276","13465979","0.0-3.0-1.134","","key","null","33.310344827586206","720","410","","","","","","","",""
"1114","arrowleft","psychophysics","277","13467099","0.0-3.0-0.135","","key","arrowleft","33.3125","720","410","136","5","-1","30","15","25","35","true"
"null","null","psychophysics","278","13468105","0.0-3.0-1.135","","key","null","33.333333333333336","720","410","","","","","","","",""
"751.0000000009313","arrowright","psychophysics","279","13468860","0.0-3.0-0.136","","key","arrowright","33.285714285714285","720","410","137","5","1","25","35","25","35","true"
"null","null","psychophysics","280","13469865","0.0-3.0-1.136","","key","null","33.3448275862069","720","410","","","","","","","",""
"612.9999999990687","arrowleft","psychophysics","281","13470482","0.0-3.0-0.137","","key","arrowleft","33.27777777777778","720","410","138","5","-1","30","15","25","35","true"
"null","null","psychophysics","282","13471485","0.0-3.0-1.137","","key","null","33.310344827586206","720","410","","","","","","","",""
"730","arrowright","psychophysics","283","13472218","0.0-3.0-0.138","","key","arrowright","33.333333333333336","720","410","139","5","1","27","15","25","35","true"
"null","null","psychophysics","284","13473221","0.0-3.0-1.138","","key","null","33.310344827586206","720","410","","","","","","","",""
"1016","arrowright","psychophysics","285","13474241","0.0-3.0-0.139","","key","arrowright","33.333333333333336","720","410","140","6","-1","20","35","25","35","false"
"null","null","psychophysics","286","13475245","0.0-3.0-1.139","","key","null","33.3448275862069","720","410","","","","","","","",""
"1827"," ","html-keyboard-response","287","13477074","0.0-3.0-2.139-0.139","<div style=""color: white; text-align: center; vertical-align: top; display: inline-block; width: 800px; margin: auto""><p>You have completed 50% of the trials. You are on block 6 of 10. <br>Good job! Take a break if you need to.</p><p>Press any key to continue the experiment.</p></div>","","","","","","","","","","","","",""
"1361.9999999990687","arrowright","psychophysics","288","13479440","0.0-3.0-0.140","","key","arrowright","33.35","720","410","141","6","1","25","15","25","35","true"
"null","null","psychophysics","289","13480443","0.0-3.0-1.140","","key","null","33.3448275862069","720","410","","","","","","","",""
"782","arrowleft","psychophysics","290","13481228","0.0-3.0-0.141","","key","arrowleft","33.34782608695652","720","410","142","6","-1","26","15","25","35","true"
"null","null","psychophysics","291","13482232","0.0-3.0-1.141","","key","null","33.3448275862069","720","410","","","","","","","",""
"750","arrowright","psychophysics","292","13482985","0.0-3.0-0.142","","key","arrowright","33.333333333333336","720","410","143","6","1","24","15","25","35","true"
"null","null","psychophysics","293","13483989","0.0-3.0-1.142","","key","null","33.233333333333334","720","410","","","","","","","",""
"1053","arrowright","psychophysics","294","13485044","0.0-3.0-0.143","","key","arrowright","33.333333333333336","720","410","144","6","-1","20","15","25","35","false"
"null","null","psychophysics","295","13486046","0.0-3.0-1.143","","key","null","33.3448275862069","720","410","","","","","","","",""
"913.0000000009313","arrowleft","psychophysics","296","13486963","0.0-3.0-0.144","","key","arrowleft","33.333333333333336","720","410","145","6","-1","27","15","25","35","true"
"null","null","psychophysics","297","13487966","0.0-3.0-1.144","","key","null","33.3448275862069","720","410","","","","","","","",""
"1175","arrowright","psychophysics","298","13489144","0.0-3.0-0.145","","key","arrowright","33.35294117647059","720","410","146","6","1","25","15","25","35","true"
"null","null","psychophysics","299","13490149","0.0-3.0-1.145","","key","null","33.37931034482759","720","410","","","","","","","",""
"1556","arrowleft","psychophysics","300","13491711","0.0-3.0-0.146","","key","arrowleft","33.28260869565217","720","410","147","6","-1","24","35","25","35","true"
"null","null","psychophysics","301","13492715","0.0-3.0-1.146","","key","null","33.310344827586206","720","410","","","","","","","",""
"1324","arrowleft","psychophysics","302","13494043","0.0-3.0-0.147","","key","arrowleft","33.333333333333336","720","410","148","6","-1","26","35","25","35","true"
"null","null","psychophysics","303","13495047","0.0-3.0-1.147","","key","null","33.3448275862069","720","410","","","","","","","",""
"905.9999999990687","arrowright","psychophysics","304","13495957","0.0-3.0-0.148","","key","arrowright","33.333333333333336","720","410","149","6","1","25","35","25","35","true"
"null","null","psychophysics","305","13496960","0.0-3.0-1.148","","key","null","33.3448275862069","720","410","","","","","","","",""
"1429","arrowleft","psychophysics","306","13498393","0.0-3.0-0.149","","key","arrowleft","33.333333333333336","720","410","150","6","1","20","35","25","35","false"
"null","null","psychophysics","307","13499396","0.0-3.0-1.149","","key","null","33.3448275862069","720","410","","","","","","","",""
"1043","arrowleft","psychophysics","308","13500444","0.0-3.0-0.150","","key","arrowleft","33.333333333333336","720","410","151","6","-1","27","35","25","35","true"
"null","null","psychophysics","309","13501447","0.0-3.0-1.150","","key","null","33.3448275862069","720","410","","","","","","","",""
"764","arrowleft","psychophysics","310","13502214","0.0-3.0-0.151","","key","arrowleft","33.36363636363637","720","410","152","6","-1","25","35","25","35","true"
"null","null","psychophysics","311","13503218","0.0-3.0-1.151","","key","null","33.3448275862069","720","410","","","","","","","",""
"696.0000000009313","arrowleft","psychophysics","312","13503917","0.0-3.0-0.152","","key","arrowleft","33.2","720","410","153","6","-1","25","35","25","35","true"
"null","null","psychophysics","313","13504922","0.0-3.0-1.152","","key","null","33.3","720","410","","","","","","","",""
"753","arrowleft","psychophysics","314","13505678","0.0-3.0-0.153","","key","arrowleft","33.333333333333336","720","410","154","6","1","26","35","25","35","false"
"null","null","psychophysics","315","13506682","0.0-3.0-1.153","","key","null","33.310344827586206","720","410","","","","","","","",""
"571","arrowright","psychophysics","316","13507259","0.0-3.0-0.154","","key","arrowright","33.1764705882353","720","410","155","6","-1","20","15","25","35","false"
"null","null","psychophysics","317","13508263","0.0-3.0-1.154","","key","null","33.3448275862069","720","410","","","","","","","",""
"858","arrowright","psychophysics","318","13509125","0.0-3.0-0.155","","key","arrowright","33.32","720","410","156","6","1","24","15","25","35","true"
"null","null","psychophysics","319","13510128","0.0-3.0-1.155","","key","null","33.3448275862069","720","410","","","","","","","",""
"1167","arrowright","psychophysics","320","13511298","0.0-3.0-0.156","","key","arrowright","33.3235294117647","720","410","157","6","1","26","35","25","35","true"
"null","null","psychophysics","321","13512302","0.0-3.0-1.156","","key","null","33.3448275862069","720","410","","","","","","","",""
"370","arrowright","psychophysics","322","13512675","0.0-3.0-0.157","","key","arrowright","33.3","720","410","158","6","1","30","35","25","35","true"
"null","null","psychophysics","323","13513677","0.0-3.0-1.157","","key","null","33.310344827586206","720","410","","","","","","","",""
"716","arrowleft","psychophysics","324","13514394","0.0-3.0-0.158","","key","arrowleft","33.333333333333336","720","410","159","6","-1","27","15","25","35","true"
"null","null","psychophysics","325","13515398","0.0-3.0-1.158","","key","null","33.3448275862069","720","410","","","","","","","",""
"724","arrowright","psychophysics","326","13516125","0.0-3.0-0.159","","key","arrowright","33.333333333333336","720","410","160","6","-1","25","35","25","35","false"
"null","null","psychophysics","327","13517128","0.0-3.0-1.159","","key","null","33.3448275862069","720","410","","","","","","","",""
"1125","arrowleft","psychophysics","328","13518256","0.0-3.0-0.160","","key","arrowleft","33.303030303030305","720","410","161","6","-1","23","15","25","35","true"
"null","null","psychophysics","329","13519258","0.0-3.0-1.160","","key","null","33.310344827586206","720","410","","","","","","","",""
"893","arrowleft","psychophysics","330","13520153","0.0-3.0-0.161","","key","arrowleft","33.32","720","410","162","6","1","26","35","25","35","false"
"null","null","psychophysics","331","13521156","0.0-3.0-1.161","","key","null","33.2","720","410","","","","","","","",""
"803.0000000009313","arrowleft","psychophysics","332","13521962","0.0-3.0-0.162","","key","arrowleft","33.30434782608695","720","410","163","6","-1","23","35","25","35","true"
"null","null","psychophysics","333","13522965","0.0-3.0-1.162","","key","null","33.310344827586206","720","410","","","","","","","",""
"356","arrowleft","psychophysics","334","13523325","0.0-3.0-0.163","","key","arrowleft","33.3","720","410","164","6","1","20","15","25","35","false"
"null","null","psychophysics","335","13524329","0.0-3.0-1.163","","key","null","33.3448275862069","720","410","","","","","","","",""
"746","arrowright","psychophysics","336","13525081","0.0-3.0-0.164","","key","arrowright","33.333333333333336","720","410","165","6","1","27","35","25","35","true"
"null","null","psychophysics","337","13526085","0.0-3.0-1.164","","key","null","33.310344827586206","720","410","","","","","","","",""
"595.0000000009313","arrowright","psychophysics","338","13526686","0.0-3.0-0.165","","key","arrowright","33.11764705882353","720","410","166","6","1","27","35","25","35","true"
"null","null","psychophysics","339","13527689","0.0-3.0-1.165","","key","null","33.233333333333334","720","410","","","","","","","",""
"228","arrowright","psychophysics","340","13527920","0.0-3.0-0.166","","key","arrowright","33.4","720","410","167","6","-1","20","35","25","35","false"
"null","null","psychophysics","341","13528925","0.0-3.0-1.166","","key","null","33.333333333333336","720","410","","","","","","","",""
"646.9999999990687","arrowright","psychophysics","342","13529573","0.0-3.0-0.167","","key","arrowright","33.388888888888886","720","410","168","7","-1","26","35","25","35","false"
"null","null","psychophysics","343","13530577","0.0-3.0-1.167","","key","null","33.3448275862069","720","410","","","","","","","",""
"1156.9999999990687"," ","html-keyboard-response","344","13531735","0.0-3.0-2.167-0.167","<div style=""color: white; text-align: center; vertical-align: top; display: inline-block; width: 800px; margin: auto""><p>You have completed 60% of the trials. You are on block 7 of 10. <br>Good job! Take a break if you need to.</p><p>Press any key to continue the experiment.</p></div>","","","","","","","","","","","","",""
"400","arrowright","psychophysics","345","13533140","0.0-3.0-0.168","","key","arrowright","33.27272727272727","720","410","169","7","1","30","35","25","35","true"
"null","null","psychophysics","346","13534143","0.0-3.0-1.168","","key","null","33.310344827586206","720","410","","","","","","","",""
"570","arrowleft","psychophysics","347","13534717","0.0-3.0-0.169","","key","arrowleft","33.3125","720","410","170","7","-1","25","15","25","35","true"
"null","null","psychophysics","348","13535719","0.0-3.0-1.169","","key","null","33.3448275862069","720","410","","","","","","","",""
"892","arrowright","psychophysics","349","13536615","0.0-3.0-0.170","","key","arrowright","33.19230769230769","720","410","171","7","-1","20","15","25","35","false"
"null","null","psychophysics","350","13537619","0.0-3.0-1.170","","key","null","33.3448275862069","720","410","","","","","","","",""
"709","arrowright","psychophysics","351","13538332","0.0-3.0-0.171","","key","arrowright","33.142857142857146","720","410","172","7","-1","24","35","25","35","false"
"null","null","psychophysics","352","13539335","0.0-3.0-1.171","","key","null","33.3448275862069","720","410","","","","","","","",""
"651","arrowleft","psychophysics","353","13539989","0.0-3.0-0.172","","key","arrowleft","33.31578947368421","720","410","173","7","-1","26","15","25","35","true"
"null","null","psychophysics","354","13540991","0.0-3.0-1.172","","key","null","33.3448275862069","720","410","","","","","","","",""
"634.9999999990687","arrowright","psychophysics","355","13541629","0.0-3.0-0.173","","key","arrowright","33.333333333333336","720","410","174","7","-1","26","35","25","35","false"
"null","null","psychophysics","356","13542632","0.0-3.0-1.173","","key","null","33.310344827586206","720","410","","","","","","","",""
"585.9999999990687","arrowright","psychophysics","357","13543222","0.0-3.0-0.174","","key","arrowright","33.294117647058826","720","410","175","7","1","25","15","25","35","true"
"null","null","psychophysics","358","13544224","0.0-3.0-1.174","","key","null","33.310344827586206","720","410","","","","","","","",""
"530","arrowright","psychophysics","359","13544756","0.0-3.0-0.175","","key","arrowright","33.333333333333336","720","410","176","7","1","23","35","25","35","true"
"null","null","psychophysics","360","13545760","0.0-3.0-1.175","","key","null","33.3448275862069","720","410","","","","","","","",""
"625","arrowright","psychophysics","361","13546389","0.0-3.0-0.176","","key","arrowright","33.333333333333336","720","410","177","7","-1","26","35","25","35","false"
"null","null","psychophysics","362","13547392","0.0-3.0-1.176","","key","null","33.310344827586206","720","410","","","","","","","",""
"343","arrowright","psychophysics","363","13547739","0.0-3.0-0.177","","key","arrowright","33.333333333333336","720","410","178","7","1","30","15","25","35","true"
"null","null","psychophysics","364","13548742","0.0-3.0-1.177","","key","null","33.310344827586206","720","410","","","","","","","",""
"339","arrowright","psychophysics","365","13549086","0.0-3.0-0.178","","key","arrowright","33.22222222222222","720","410","179","7","1","23","15","25","35","true"
"null","null","psychophysics","366","13550090","0.0-3.0-1.178","","key","null","33.233333333333334","720","410","","","","","","","",""
"533","arrowright","psychophysics","367","13550625","0.0-3.0-0.179","","key","arrowright","33.333333333333336","720","410","180","7","1","30","15","25","35","true"
"null","null","psychophysics","368","13551629","0.0-3.0-1.179","","key","null","33.3448275862069","720","410","","","","","","","",""
"990","arrowleft","psychophysics","369","13552623","0.0-3.0-0.180","","key","arrowleft","33.3448275862069","720","410","181","7","-1","25","15","25","35","true"
"null","null","psychophysics","370","13553625","0.0-3.0-1.180","","key","null","33.3448275862069","720","410","","","","","","","",""
"649","arrowright","psychophysics","371","13554277","0.0-3.0-0.181","","key","arrowright","33.333333333333336","720","410","182","7","1","25","35","25","35","true"
"null","null","psychophysics","372","13555280","0.0-3.0-1.181","","key","null","33.3448275862069","720","410","","","","","","","",""
"594.0000000009313","arrowright","psychophysics","373","13555877","0.0-3.0-0.182","","key","arrowright","33.35294117647059","720","410","183","7","1","23","15","25","35","true"
"null","null","psychophysics","374","13556881","0.0-3.0-1.182","","key","null","33.3448275862069","720","410","","","","","","","",""
"560.0000000009313","arrowright","psychophysics","375","13557444","0.0-3.0-0.183","","key","arrowright","33.375","720","410","184","7","-1","24","35","25","35","false"
"null","null","psychophysics","376","13558447","0.0-3.0-1.183","","key","null","33.3448275862069","720","410","","","","","","","",""
"653","arrowleft","psychophysics","377","13559107","0.0-3.0-0.184","","key","arrowleft","33.21052631578947","720","410","185","7","1","20","15","25","35","false"
"null","null","psychophysics","378","13560111","0.0-3.0-1.184","","key","null","33.310344827586206","720","410","","","","","","","",""
"603","arrowleft","psychophysics","379","13560718","0.0-3.0-0.185","","key","arrowleft","33.35294117647059","720","410","186","7","1","20","15","25","35","false"
"null","null","psychophysics","380","13561722","0.0-3.0-1.185","","key","null","33.3","720","410","","","","","","","",""
"1048.9999999990687","arrowright","psychophysics","381","13562774","0.0-3.0-0.186","","key","arrowright","33.333333333333336","720","410","187","7","-1","27","15","25","35","false"
"null","null","psychophysics","382","13563777","0.0-3.0-1.186","","key","null","33.3448275862069","720","410","","","","","","","",""
"665","arrowright","psychophysics","383","13564445","0.0-3.0-0.187","","key","arrowright","33.36842105263158","720","410","188","7","-1","24","15","25","35","false"
"null","null","psychophysics","384","13565448","0.0-3.0-1.187","","key","null","33.3448275862069","720","410","","","","","","","",""
"541.0000000009313","arrowleft","psychophysics","385","13565992","0.0-3.0-0.188","","key","arrowleft","33.3125","720","410","189","7","1","26","15","25","35","false"
"null","null","psychophysics","386","13566996","0.0-3.0-1.188","","key","null","33.310344827586206","720","410","","","","","","","",""
"765","arrowleft","psychophysics","387","13567765","0.0-3.0-0.189","","key","arrowleft","33.31818181818182","720","410","190","7","1","23","15","25","35","false"
"null","null","psychophysics","388","13568770","0.0-3.0-1.189","","key","null","33.3448275862069","720","410","","","","","","","",""
"1117","arrowleft","psychophysics","389","13569890","0.0-3.0-0.190","","key","arrowleft","33.36363636363637","720","410","191","7","-1","30","35","25","35","true"
"null","null","psychophysics","390","13570892","0.0-3.0-1.190","","key","null","33.310344827586206","720","410","","","","","","","",""
"1017.9999999990687","arrowright","psychophysics","391","13571913","0.0-3.0-0.191","","key","arrowright","33.310344827586206","720","410","192","7","1","24","35","25","35","true"
"null","null","psychophysics","392","13572916","0.0-3.0-1.191","","key","null","33.3448275862069","720","410","","","","","","","",""
"1691","arrowright","psychophysics","393","13574611","0.0-3.0-0.192","","key","arrowright","33.32","720","410","193","7","-1","25","15","25","35","false"
"null","null","psychophysics","394","13575615","0.0-3.0-1.192","","key","null","33.310344827586206","720","410","","","","","","","",""
"778.9999999990687","arrowright","psychophysics","395","13576397","0.0-3.0-0.193","","key","arrowright","33.30434782608695","720","410","194","7","1","27","35","25","35","true"
"null","null","psychophysics","396","13577401","0.0-3.0-1.193","","key","null","33.3448275862069","720","410","","","","","","","",""
"685","arrowright","psychophysics","397","13578090","0.0-3.0-0.194","","key","arrowright","33.35","720","410","195","7","-1","20","35","25","35","false"
"null","null","psychophysics","398","13579092","0.0-3.0-1.194","","key","null","33.310344827586206","720","410","","","","","","","",""
"990","arrowright","psychophysics","399","13580085","0.0-3.0-0.195","","key","arrowright","33.32142857142857","720","410","196","8","-1","26","15","25","35","false"
"null","null","psychophysics","400","13581089","0.0-3.0-1.195","","key","null","33.266666666666666","720","410","","","","","","","",""
"1253"," ","html-keyboard-response","401","13582344","0.0-3.0-2.195-0.195","<div style=""color: white; text-align: center; vertical-align: top; display: inline-block; width: 800px; margin: auto""><p>You have completed 70% of the trials. You are on block 8 of 10. <br>Good job! Take a break if you need to.</p><p>Press any key to continue the experiment.</p></div>","","","","","","","","","","","","",""
"1041","arrowright","psychophysics","402","13584392","0.0-3.0-0.196","","key","arrowright","33.333333333333336","720","410","197","8","1","25","15","25","35","true"
"null","null","psychophysics","403","13585396","0.0-3.0-1.196","","key","null","33.37931034482759","720","410","","","","","","","",""
"826","arrowleft","psychophysics","404","13586227","0.0-3.0-0.197","","key","arrowleft","33.333333333333336","720","410","198","8","1","24","35","25","35","false"
"null","null","psychophysics","405","13587232","0.0-3.0-1.197","","key","null","33.310344827586206","720","410","","","","","","","",""
"992","arrowleft","psychophysics","406","13588227","0.0-3.0-0.198","","key","arrowleft","33.310344827586206","720","410","199","8","-1","30","35","25","35","true"
"null","null","psychophysics","407","13589231","0.0-3.0-1.198","","key","null","33.310344827586206","720","410","","","","","","","",""
"954","arrowright","psychophysics","408","13590189","0.0-3.0-0.199","","key","arrowright","33.32142857142857","720","410","200","8","1","25","35","25","35","true"
"null","null","psychophysics","409","13591191","0.0-3.0-1.199","","key","null","33.3448275862069","720","410","","","","","","","",""
"808","arrowright","psychophysics","410","13592003","0.0-3.0-0.200","","key","arrowright","33.34782608695652","720","410","201","8","1","24","15","25","35","true"
"null","null","psychophysics","411","13593007","0.0-3.0-1.200","","key","null","33.2","720","410","","","","","","","",""
"864","arrowleft","psychophysics","412","13593874","0.0-3.0-0.201","","key","arrowleft","33.32","720","410","202","8","-1","27","35","25","35","true"
"null","null","psychophysics","413","13594876","0.0-3.0-1.201","","key","null","33.3448275862069","720","410","","","","","","","",""
"615","arrowright","psychophysics","414","13595495","0.0-3.0-0.202","","key","arrowright","33.35294117647059","720","410","203","8","1","25","35","25","35","true"
"null","null","psychophysics","415","13596498","0.0-3.0-1.202","","key","null","33.3448275862069","720","410","","","","","","","",""
"509","arrowright","psychophysics","416","13597010","0.0-3.0-0.203","","key","arrowright","33.333333333333336","720","410","204","8","1","26","15","25","35","true"
"null","null","psychophysics","417","13598013","0.0-3.0-1.203","","key","null","33.3448275862069","720","410","","","","","","","",""
"387.0000000009313","arrowright","psychophysics","418","13598404","0.0-3.0-0.204","","key","arrowright","33.3","720","410","205","8","1","23","35","25","35","true"
"null","null","psychophysics","419","13599407","0.0-3.0-1.204","","key","null","33.2","720","410","","","","","","","",""
"750","arrowright","psychophysics","420","13600160","0.0-3.0-0.205","","key","arrowright","33.333333333333336","720","410","206","8","-1","20","35","25","35","false"
"null","null","psychophysics","421","13601164","0.0-3.0-1.205","","key","null","33.3448275862069","720","410","","","","","","","",""
"592","arrowright","psychophysics","422","13601762","0.0-3.0-0.206","","key","arrowright","33.35294117647059","720","410","207","8","1","26","35","25","35","true"
"null","null","psychophysics","423","13602766","0.0-3.0-1.206","","key","null","33.3448275862069","720","410","","","","","","","",""
"985","arrowleft","psychophysics","424","13603757","0.0-3.0-0.207","","key","arrowleft","33.275862068965516","720","410","208","8","1","24","15","25","35","false"
"null","null","psychophysics","425","13604761","0.0-3.0-1.207","","key","null","33.3448275862069","720","410","","","","","","","",""
"607","arrowleft","psychophysics","426","13605373","0.0-3.0-0.208","","key","arrowleft","33.333333333333336","720","410","209","8","-1","30","15","25","35","true"
"null","null","psychophysics","427","13606375","0.0-3.0-1.208","","key","null","33.310344827586206","720","410","","","","","","","",""
"637","arrowright","psychophysics","428","13607015","0.0-3.0-0.209","","key","arrowright","33.333333333333336","720","410","210","8","-1","23","35","25","35","false"
"null","null","psychophysics","429","13608018","0.0-3.0-1.209","","key","null","33.3448275862069","720","410","","","","","","","",""
"739.0000000009313","arrowleft","psychophysics","430","13608761","0.0-3.0-0.210","","key","arrowleft","33.333333333333336","720","410","211","8","-1","27","15","25","35","true"
"null","null","psychophysics","431","13609765","0.0-3.0-1.210","","key","null","33.3448275862069","720","410","","","","","","","",""
"493","arrowright","psychophysics","432","13610262","0.0-3.0-0.211","","key","arrowright","33.357142857142854","720","410","212","8","-1","23","15","25","35","false"
"null","null","psychophysics","433","13611265","0.0-3.0-1.211","","key","null","33.3448275862069","720","410","","","","","","","",""
"355","arrowleft","psychophysics","434","13611624","0.0-3.0-0.212","","key","arrowleft","33.3","720","410","213","8","-1","23","35","25","35","true"
"null","null","psychophysics","435","13612627","0.0-3.0-1.212","","key","null","33.3448275862069","720","410","","","","","","","",""
"275","arrowright","psychophysics","436","13612906","0.0-3.0-0.213","","key","arrowright","33.375","720","410","214","8","1","25","35","25","35","true"
"null","null","psychophysics","437","13613908","0.0-3.0-1.213","","key","null","33.37931034482759","720","410","","","","","","","",""
"884","arrowright","psychophysics","438","13614795","0.0-3.0-0.214","","key","arrowright","33.32","720","410","215","8","-1","20","15","25","35","false"
"null","null","psychophysics","439","13615798","0.0-3.0-1.214","","key","null","33.310344827586206","720","410","","","","","","","",""
"931","arrowright","psychophysics","440","13616733","0.0-3.0-0.215","","key","arrowright","33.333333333333336","720","410","216","8","-1","23","35","25","35","false"
"null","null","psychophysics","441","13617740","0.0-3.0-1.215","","key","null","33.333333333333336","720","410","","","","","","","",""
"1166.9999999990687","arrowleft","psychophysics","442","13618910","0.0-3.0-0.216","","key","arrowleft","33.35294117647059","720","410","217","8","1","23","35","25","35","false"
"null","null","psychophysics","443","13619913","0.0-3.0-1.216","","key","null","33.3448275862069","720","410","","","","","","","",""
"862","arrowleft","psychophysics","444","13620780","0.0-3.0-0.217","","key","arrowleft","33.36","720","410","218","8","1","23","35","25","35","false"
"null","null","psychophysics","445","13621784","0.0-3.0-1.217","","key","null","33.310344827586206","720","410","","","","","","","",""
"739","arrowright","psychophysics","446","13622527","0.0-3.0-0.218","","key","arrowright","33.285714285714285","720","410","219","8","-1","26","35","25","35","false"
"null","null","psychophysics","447","13623531","0.0-3.0-1.218","","key","null","33.3448275862069","720","410","","","","","","","",""
"591.0000000009313","arrowright","psychophysics","448","13624127","0.0-3.0-0.219","","key","arrowright","33.35294117647059","720","410","220","8","-1","20","15","25","35","false"
"null","null","psychophysics","449","13625130","0.0-3.0-1.219","","key","null","33.3448275862069","720","410","","","","","","","",""
"1172","arrowleft","psychophysics","450","13626306","0.0-3.0-0.220","","key","arrowleft","33.34285714285714","720","410","221","8","-1","26","35","25","35","true"
"null","null","psychophysics","451","13627309","0.0-3.0-1.220","","key","null","33.3448275862069","720","410","","","","","","","",""
"679","arrowright","psychophysics","452","13627990","0.0-3.0-0.221","","key","arrowright","33.31578947368421","720","410","222","8","1","25","15","25","35","true"
"null","null","psychophysics","453","13628993","0.0-3.0-1.221","","key","null","33.310344827586206","720","410","","","","","","","",""
"731","arrowleft","psychophysics","454","13629727","0.0-3.0-0.222","","key","arrowleft","33.333333333333336","720","410","223","8","1","20","35","25","35","false"
"null","null","psychophysics","455","13630731","0.0-3.0-1.222","","key","null","33.3448275862069","720","410","","","","","","","",""
"842.9999999990687","arrowleft","psychophysics","456","13631576","0.0-3.0-0.223","","key","arrowleft","33.36","720","410","224","9","-1","30","35","25","35","true"
"null","null","psychophysics","457","13632579","0.0-3.0-1.223","","key","null","33.310344827586206","720","410","","","","","","","",""
"2849"," ","html-keyboard-response","458","13635430","0.0-3.0-2.223-0.223","<div style=""color: white; text-align: center; vertical-align: top; display: inline-block; width: 800px; margin: auto""><p>You have completed 80% of the trials. You are on block 9 of 10. <br>Good job! Take a break if you need to.</p><p>Press any key to continue the experiment.</p></div>","","","","","","","","","","","","",""
"788.9999999990687","arrowright","psychophysics","459","13637223","0.0-3.0-0.224","","key","arrowright","33.34782608695652","720","410","225","9","-1","20","15","25","35","false"
"null","null","psychophysics","460","13638226","0.0-3.0-1.224","","key","null","33.3448275862069","720","410","","","","","","","",""
"913","arrowleft","psychophysics","461","13639141","0.0-3.0-0.225","","key","arrowleft","33.34615384615385","720","410","226","9","1","25","15","25","35","false"
"null","null","psychophysics","462","13640147","0.0-3.0-1.225","","key","null","33.37931034482759","720","410","","","","","","","",""
"922","arrowright","psychophysics","463","13641074","0.0-3.0-0.226","","key","arrowright","33.333333333333336","720","410","227","9","-1","25","15","25","35","false"
"null","null","psychophysics","464","13642078","0.0-3.0-1.226","","key","null","33.3448275862069","720","410","","","","","","","",""
"772","arrowright","psychophysics","465","13642856","0.0-3.0-0.227","","key","arrowright","33.34782608695652","720","410","228","9","1","26","35","25","35","true"
"null","null","psychophysics","466","13643859","0.0-3.0-1.227","","key","null","33.3448275862069","720","410","","","","","","","",""
"596","arrowright","psychophysics","467","13644459","0.0-3.0-0.228","","key","arrowright","33.35294117647059","720","410","229","9","1","30","15","25","35","true"
"null","null","psychophysics","468","13645461","0.0-3.0-1.228","","key","null","33.3448275862069","720","410","","","","","","","",""
"885","arrowright","psychophysics","469","13646351","0.0-3.0-0.229","","key","arrowright","33.36","720","410","230","9","1","23","35","25","35","true"
"null","null","psychophysics","470","13647356","0.0-3.0-1.229","","key","null","33.3","720","410","","","","","","","",""
"666.9999999990687","arrowright","psychophysics","471","13648025","0.0-3.0-0.230","","key","arrowright","33.31578947368421","720","410","231","9","1","27","35","25","35","true"
"null","null","psychophysics","472","13649028","0.0-3.0-1.230","","key","null","33.310344827586206","720","410","","","","","","","",""
"669","arrowright","psychophysics","473","13649699","0.0-3.0-0.231","","key","arrowright","33.26315789473684","720","410","232","9","-1","26","35","25","35","false"
"null","null","psychophysics","474","13650702","0.0-3.0-1.231","","key","null","33.310344827586206","720","410","","","","","","","",""
"616","arrowright","psychophysics","475","13651320","0.0-3.0-0.232","","key","arrowright","33.23529411764706","720","410","233","9","1","27","15","25","35","true"
"null","null","psychophysics","476","13652322","0.0-3.0-1.232","","key","null","33.266666666666666","720","410","","","","","","","",""
"641","arrowright","psychophysics","477","13652966","0.0-3.0-0.233","","key","arrowright","33.333333333333336","720","410","234","9","1","30","35","25","35","true"
"null","null","psychophysics","478","13653969","0.0-3.0-1.233","","key","null","33.3448275862069","720","410","","","","","","","",""
"1352","arrowleft","psychophysics","479","13655323","0.0-3.0-0.234","","key","arrowleft","33.35","720","410","235","9","1","24","15","25","35","false"
"null","null","psychophysics","480","13656327","0.0-3.0-1.234","","key","null","33.3448275862069","720","410","","","","","","","",""
"793","arrowleft","psychophysics","481","13657124","0.0-3.0-0.235","","key","arrowleft","33.34782608695652","720","410","236","9","1","20","15","25","35","false"
"null","null","psychophysics","482","13658127","0.0-3.0-1.235","","key","null","33.3448275862069","720","410","","","","","","","",""
"719","arrowleft","psychophysics","483","13658851","0.0-3.0-0.236","","key","arrowleft","33.35","720","410","237","9","-1","26","15","25","35","true"
"null","null","psychophysics","484","13659857","0.0-3.0-1.236","","key","null","33.266666666666666","720","410","","","","","","","",""
"596","arrowright","psychophysics","485","13660456","0.0-3.0-0.237","","key","arrowright","33.294117647058826","720","410","238","9","1","30","15","25","35","true"
"null","null","psychophysics","486","13661459","0.0-3.0-1.237","","key","null","33.3448275862069","720","410","","","","","","","",""
"632","arrowright","psychophysics","487","13662094","0.0-3.0-0.238","","key","arrowright","33.333333333333336","720","410","239","9","1","30","15","25","35","true"
"null","null","psychophysics","488","13663097","0.0-3.0-1.238","","key","null","33.310344827586206","720","410","","","","","","","",""
"804","arrowleft","psychophysics","489","13663908","0.0-3.0-0.239","","key","arrowleft","33.34782608695652","720","410","240","9","1","20","15","25","35","false"
"null","null","psychophysics","490","13664911","0.0-3.0-1.239","","key","null","33.3448275862069","720","410","","","","","","","",""
"595","arrowright","psychophysics","491","13665509","0.0-3.0-0.240","","key","arrowright","33.35294117647059","720","410","241","9","-1","24","15","25","35","false"
"null","null","psychophysics","492","13666513","0.0-3.0-1.240","","key","null","33.3448275862069","720","410","","","","","","","",""
"1126","arrowright","psychophysics","493","13667643","0.0-3.0-0.241","","key","arrowright","33.36363636363637","720","410","242","9","-1","24","35","25","35","false"
"null","null","psychophysics","494","13668646","0.0-3.0-1.241","","key","null","33.3448275862069","720","410","","","","","","","",""
"3862","arrowleft","psychophysics","495","13672511","0.0-3.0-0.242","","key","arrowleft","33.3304347826087","720","410","243","9","-1","23","35","25","35","true"
"null","null","psychophysics","496","13673515","0.0-3.0-1.242","","key","null","33.3448275862069","720","410","","","","","","","",""
"94","arrowright","psychophysics","497","13673612","0.0-3.0-0.243","","key","arrowright","33.5","720","410","244","9","1","20","35","25","35","true"
"null","null","psychophysics","498","13674615","0.0-3.0-1.243","","key","null","33.3448275862069","720","410","","","","","","","",""
"825","arrowright","psychophysics","499","13675444","0.0-3.0-0.244","","key","arrowright","33.333333333333336","720","410","245","9","1","27","35","25","35","true"
"null","null","psychophysics","500","13676448","0.0-3.0-1.244","","key","null","33.3448275862069","720","410","","","","","","","",""
"571","arrowleft","psychophysics","501","13677025","0.0-3.0-0.245","","key","arrowleft","33.294117647058826","720","410","246","9","1","23","35","25","35","false"
"null","null","psychophysics","502","13678029","0.0-3.0-1.245","","key","null","33.3448275862069","720","410","","","","","","","",""
"545","arrowleft","psychophysics","503","13678578","0.0-3.0-0.246","","key","arrowleft","33.333333333333336","720","410","247","9","1","20","15","25","35","false"
"null","null","psychophysics","504","13679582","0.0-3.0-1.246","","key","null","33.3448275862069","720","410","","","","","","","",""
"580","arrowright","psychophysics","505","13680167","0.0-3.0-0.247","","key","arrowright","33.294117647058826","720","410","248","9","-1","27","35","25","35","false"
"null","null","psychophysics","506","13681170","0.0-3.0-1.247","","key","null","33.310344827586206","720","410","","","","","","","",""
"600","arrowright","psychophysics","507","13681774","0.0-3.0-0.248","","key","arrowright","33.294117647058826","720","410","249","9","-1","20","35","25","35","false"
"null","null","psychophysics","508","13682777","0.0-3.0-1.248","","key","null","33.310344827586206","720","410","","","","","","","",""
"782","arrowleft","psychophysics","509","13683564","0.0-3.0-0.249","","key","arrowleft","33.34782608695652","720","410","250","9","-1","26","15","25","35","true"
"null","null","psychophysics","510","13684567","0.0-3.0-1.249","","key","null","33.3448275862069","720","410","","","","","","","",""
"1241","arrowleft","psychophysics","511","13685811","0.0-3.0-0.250","","key","arrowleft","33.361111111111114","720","410","251","9","-1","23","15","25","35","true"
"null","null","psychophysics","512","13686814","0.0-3.0-1.250","","key","null","33.3448275862069","720","410","","","","","","","",""
"1069.9999999990687","arrowright","psychophysics","513","13687888","0.0-3.0-0.251","","key","arrowright","33.3125","720","410","252","10","1","26","35","25","35","true"
"null","null","psychophysics","514","13688891","0.0-3.0-1.251","","key","null","33.3448275862069","720","410","","","","","","","",""
"1525"," ","html-keyboard-response","515","13690417","0.0-3.0-2.251-0.251","<div style=""color: white; text-align: center; vertical-align: top; display: inline-block; width: 800px; margin: auto""><p>You have completed 90% of the trials. You are on block 10 of 10. <br>Good job! Take a break if you need to.</p><p>Press any key to continue the experiment.</p></div>","","","","","","","","","","","","",""
"1342","arrowright","psychophysics","516","13692763","0.0-3.0-0.252","","key","arrowright","33.333333333333336","720","410","253","10","-1","26","35","25","35","false"
"null","null","psychophysics","517","13693766","0.0-3.0-1.252","","key","null","33.3448275862069","720","410","","","","","","","",""
"755.9999999990687","arrowright","psychophysics","518","13694525","0.0-3.0-0.253","","key","arrowright","33.36363636363637","720","410","254","10","1","26","15","25","35","true"
"null","null","psychophysics","519","13695527","0.0-3.0-1.253","","key","null","33.3448275862069","720","410","","","","","","","",""
"947","arrowright","psychophysics","520","13696478","0.0-3.0-0.254","","key","arrowright","33.32142857142857","720","410","255","10","-1","27","35","25","35","false"
"null","null","psychophysics","521","13697481","0.0-3.0-1.254","","key","null","33.310344827586206","720","410","","","","","","","",""
"693","arrowleft","psychophysics","522","13698178","0.0-3.0-0.255","","key","arrowleft","33.3","720","410","256","10","-1","30","15","25","35","true"
"null","null","psychophysics","523","13699181","0.0-3.0-1.255","","key","null","33.310344827586206","720","410","","","","","","","",""
"1223","arrowright","psychophysics","524","13700410","0.0-3.0-0.256","","key","arrowright","33.333333333333336","720","410","257","10","1","25","15","25","35","true"
"null","null","psychophysics","525","13701414","0.0-3.0-1.256","","key","null","33.3448275862069","720","410","","","","","","","",""
"676","arrowleft","psychophysics","526","13702094","0.0-3.0-0.257","","key","arrowleft","33.31578947368421","720","410","258","10","-1","30","15","25","35","true"
"null","null","psychophysics","527","13703099","0.0-3.0-1.257","","key","null","33.310344827586206","720","410","","","","","","","",""
"1012","arrowleft","psychophysics","528","13704115","0.0-3.0-0.258","","key","arrowleft","33.333333333333336","720","410","259","10","-1","23","15","25","35","true"
"null","null","psychophysics","529","13705119","0.0-3.0-1.258","","key","null","33.3448275862069","720","410","","","","","","","",""
"707","arrowright","psychophysics","530","13705830","0.0-3.0-0.259","","key","arrowright","33.3","720","410","260","10","1","30","35","25","35","true"
"null","null","psychophysics","531","13706833","0.0-3.0-1.259","","key","null","33.3448275862069","720","410","","","","","","","",""
"613","arrowright","psychophysics","532","13707450","0.0-3.0-0.260","","key","arrowright","33.27777777777778","720","410","261","10","1","27","15","25","35","true"
"null","null","psychophysics","533","13708455","0.0-3.0-1.260","","key","null","33.3448275862069","720","410","","","","","","","",""
"703","arrowleft","psychophysics","534","13709160","0.0-3.0-0.261","","key","arrowleft","33.35","720","410","262","10","-1","23","15","25","35","true"
"null","null","psychophysics","535","13710164","0.0-3.0-1.261","","key","null","33.310344827586206","720","410","","","","","","","",""
"813","arrowright","psychophysics","536","13710981","0.0-3.0-0.262","","key","arrowright","33.375","720","410","263","10","1","26","15","25","35","true"
"null","null","psychophysics","537","13711984","0.0-3.0-1.262","","key","null","33.3448275862069","720","410","","","","","","","",""
"680","arrowleft","psychophysics","538","13712668","0.0-3.0-0.263","","key","arrowleft","33.36842105263158","720","410","264","10","-1","25","15","25","35","true"
"null","null","psychophysics","539","13713673","0.0-3.0-1.263","","key","null","33.333333333333336","720","410","","","","","","","",""
"876","arrowleft","psychophysics","540","13714552","0.0-3.0-0.264","","key","arrowleft","33.32","720","410","265","10","-1","26","15","25","35","true"
"null","null","psychophysics","541","13715555","0.0-3.0-1.264","","key","null","33.310344827586206","720","410","","","","","","","",""
"751.0000000009313","arrowright","psychophysics","542","13716309","0.0-3.0-0.265","","key","arrowright","33.31818181818182","720","410","266","10","1","30","35","25","35","true"
"null","null","psychophysics","543","13717312","0.0-3.0-1.265","","key","null","33.3448275862069","720","410","","","","","","","",""
"578.0000000009313","arrowleft","psychophysics","544","13717894","0.0-3.0-0.266","","key","arrowleft","33.375","720","410","267","10","1","20","15","25","35","false"
"null","null","psychophysics","545","13718898","0.0-3.0-1.266","","key","null","33.3448275862069","720","410","","","","","","","",""
"705","arrowright","psychophysics","546","13719606","0.0-3.0-0.267","","key","arrowright","33.38095238095238","720","410","268","10","1","25","35","25","35","true"
"null","null","psychophysics","547","13720608","0.0-3.0-1.267","","key","null","33.3448275862069","720","410","","","","","","","",""
"764","arrowleft","psychophysics","548","13721374","0.0-3.0-0.268","","key","arrowleft","33.36363636363637","720","410","269","10","-1","24","15","25","35","true"
"null","null","psychophysics","549","13722377","0.0-3.0-1.268","","key","null","33.3448275862069","720","410","","","","","","","",""
"733","arrowleft","psychophysics","550","13723113","0.0-3.0-0.269","","key","arrowleft","33.333333333333336","720","410","270","10","-1","26","35","25","35","true"
"null","null","psychophysics","551","13724117","0.0-3.0-1.269","","key","null","33.3448275862069","720","410","","","","","","","",""
"748","arrowleft","psychophysics","552","13724870","0.0-3.0-0.270","","key","arrowleft","33.333333333333336","720","410","271","10","-1","27","35","25","35","true"
"null","null","psychophysics","553","13725874","0.0-3.0-1.270","","key","null","33.2","720","410","","","","","","","",""
"1283","arrowleft","psychophysics","554","13727161","0.0-3.0-0.271","","key","arrowleft","33.32432432432432","720","410","272","10","1","20","15","25","35","false"
"null","null","psychophysics","555","13728164","0.0-3.0-1.271","","key","null","33.310344827586206","720","410","","","","","","","",""
"893","arrowleft","psychophysics","556","13729062","0.0-3.0-0.272","","key","arrowleft","33.30769230769231","720","410","273","10","-1","27","35","25","35","true"
"null","null","psychophysics","557","13730065","0.0-3.0-1.272","","key","null","33.310344827586206","720","410","","","","","","","",""
"867","arrowright","psychophysics","558","13730937","0.0-3.0-0.273","","key","arrowright","33.32","720","410","274","10","1","27","15","25","35","true"
"null","null","psychophysics","559","13731941","0.0-3.0-1.273","","key","null","33.166666666666664","720","410","","","","","","","",""
"1091","arrowleft","psychophysics","560","13733035","0.0-3.0-0.274","","key","arrowleft","33.32258064516129","720","410","275","10","1","25","15","25","35","false"
"null","null","psychophysics","561","13734040","0.0-3.0-1.274","","key","null","33.3","720","410","","","","","","","",""
"803","arrowright","psychophysics","562","13734845","0.0-3.0-0.275","","key","arrowright","33.30434782608695","720","410","276","10","-1","24","15","25","35","false"
"null","null","psychophysics","563","13735847","0.0-3.0-1.275","","key","null","33.3448275862069","720","410","","","","","","","",""
"701","arrowleft","psychophysics","564","13736551","0.0-3.0-0.276","","key","arrowleft","33.35","720","410","277","10","1","20","15","25","35","false"
"null","null","psychophysics","565","13737555","0.0-3.0-1.276","","key","null","33.3448275862069","720","410","","","","","","","",""
"745","arrowleft","psychophysics","566","13738303","0.0-3.0-0.277","","key","arrowleft","33.333333333333336","720","410","278","10","-1","30","15","25","35","true"
"null","null","psychophysics","567","13739307","0.0-3.0-1.277","","key","null","33.233333333333334","720","410","","","","","","","",""
"918.9999999990687","arrowright","psychophysics","568","13740228","0.0-3.0-0.278","","key","arrowright","33.30769230769231","720","410","279","10","1","20","15","25","35","true"
"null","null","psychophysics","569","13741234","0.0-3.0-1.278","","key","null","33.3448275862069","720","410","","","","","","","",""
"602","arrowleft","psychophysics","570","13741842","0.0-3.0-0.279","","key","arrowleft","33.22222222222222","720","410","280","11","-1","30","35","25","35","true"
"null","null","psychophysics","571","13742845","0.0-3.0-1.279","","key","null","33.3448275862069","720","410","","","","","","","",""
