"rt","response","trial_type","trial_index","time_elapsed","internal_node_id","stimulus","response_type","key_press","avg_frame_time","center_x","center_y","trial","block","test_pos","test_inner_radius","test_outer_radius","ref_inner_radius","ref_outer_radius","test_bigger"
"9646","{""p_id"":""3805"",""age"":""18"",""handedness"":""right"",""sex"":""female"",""other_sex"":""""}","survey-html-form","0","9648","0.0-0.0","","","","","","","","","","","","","",""
"10224"," ","html-keyboard-response","1","19875","0.0-1.0","<p style=""color: white"">Welcome to the Size Judgment Experiment. <br>There will be 10 blocks in this experiment. <br>There will be 28 trials in each block. <br>You will be given a chance to take a break between blocks. <br>Press any key to start the experiment.</p>","","","","","","","","","","","","",""
"8364"," ","psychophysics","2","28244","0.0-2.0","","key"," ","16.668662674650697","756","446.5","","","","","","","",""
"3062.9999999999927","arrowright","psychophysics","3","31311","0.0-3.0-0.0","","key","arrowright","16.683060109289617","756","446.5","1","1","1","30","15","25","35","true"
"null","null","psychophysics","4","32313","0.0-3.0-1.0","","key","null","16.677966101694917","756","446.5","","","","","","","",""
"3014","arrowleft","psychophysics","5","35333","0.0-3.0-0.1","","key","arrowleft","16.677777777777777","756","446.5","2","1","-1","26","35","25","35","true"
"null","null","psychophysics","6","36336","0.0-3.0-1.1","","key","null","16.677966101694917","756","446.5","","","","","","","",""
"945","arrowleft","psychophysics","7","37293","0.0-3.0-0.2","","key","arrowleft","16.63157894736842","756","446.5","3","1","1","20","15","25","35","false"
"null","null","psychophysics","8","38294","0.0-3.0-1.2","","key","null","16.728813559322035","756","446.5","","","","","","","",""
"1048","arrowleft","psychophysics","9","39344","0.0-3.0-0.3","","key","arrowleft","16.693548387096776","756","446.5","4","1","1","23","15","25","35","false"
"null","null","psychophysics","10","40346","0.0-3.0-1.3","","key","null","16.661016949152543","756","446.5","","","","","","","",""
"943","arrowleft","psychophysics","11","41295","0.0-3.0-0.4","","key","arrowleft","16.714285714285715","756","446.5","5","1","1","20","35","25","35","false"
"null","null","psychophysics","12","42299","0.0-3.0-1.4","","key","null","16.71186440677966","756","446.5","","","","","","","",""
"756","arrowright","psychophysics","13","43061","0.0-3.0-0.5","","key","arrowright","16.68888888888889","756","446.5","6","1","-1","20","35","25","35","false"
"null","null","psychophysics","14","44062","0.0-3.0-1.5","","key","null","16.71186440677966","756","446.5","","","","","","","",""
"1136","arrowright","psychophysics","15","45202","0.0-3.0-0.6","","key","arrowright","16.71641791044776","756","446.5","7","1","-1","20","15","25","35","false"
"null","null","psychophysics","16","46205","0.0-3.0-1.6","","key","null","16.64406779661017","756","446.5","","","","","","","",""
"936","arrowleft","psychophysics","17","47145","0.0-3.0-0.7","","key","arrowleft","16.607142857142858","756","446.5","8","1","1","20","35","25","35","false"
"null","null","psychophysics","18","48147","0.0-3.0-1.7","","key","null","16.728813559322035","756","446.5","","","","","","","",""
"1118","arrowleft","psychophysics","19","49269","0.0-3.0-0.8","","key","arrowleft","16.681818181818183","756","446.5","9","1","1","24","15","25","35","false"
"null","null","psychophysics","20","50272","0.0-3.0-1.8","","key","null","16.633333333333333","756","446.5","","","","","","","",""
"3651","arrowright","psychophysics","21","53927","0.0-3.0-0.9","","key","arrowright","16.68807339449541","756","446.5","10","1","-1","23","15","25","35","false"
"null","null","psychophysics","22","54929","0.0-3.0-1.9","","key","null","16.661016949152543","756","446.5","","","","","","","",""
"645.9999999999927","arrowright","psychophysics","23","55576","0.0-3.0-0.10","","key","arrowright","16.763157894736842","756","446.5","11","1","1","30","15","25","35","true"
"null","null","psychophysics","24","56579","0.0-3.0-1.10","","key","null","16.677966101694917","756","446.5","","","","","","","",""
"922","arrowleft","psychophysics","25","57504","0.0-3.0-0.11","","key","arrowleft","16.703703703703702","756","446.5","12","1","-1","30","35","25","35","true"
"null","null","psychophysics","26","58506","0.0-3.0-1.11","","key","null","16.65","756","446.5","","","","","","","",""
"1134","arrowright","psychophysics","27","59642","0.0-3.0-0.12","","key","arrowright","16.70149253731343","756","446.5","13","1","1","23","15","25","35","true"
"null","null","psychophysics","28","60644","0.0-3.0-1.12","","key","null","16.694915254237287","756","446.5","","","","","","","",""
"579.0000000000073","arrowright","psychophysics","29","61227","0.0-3.0-0.13","","key","arrowright","16.676470588235293","756","446.5","14","1","1","26","15","25","35","true"
"null","null","psychophysics","30","62229","0.0-3.0-1.13","","key","null","16.677966101694917","756","446.5","","","","","","","",""
"686.9999999999927","arrowright","psychophysics","31","62923","0.0-3.0-0.14","","key","arrowright","16.70731707317073","756","446.5","15","1","1","24","15","25","35","true"
"null","null","psychophysics","32","63924","0.0-3.0-1.14","","key","null","16.694915254237287","756","446.5","","","","","","","",""
"900.9999999999927","arrowleft","psychophysics","33","64828","0.0-3.0-0.15","","key","arrowleft","16.641509433962263","756","446.5","16","1","-1","25","15","25","35","true"
"null","null","psychophysics","34","65830","0.0-3.0-1.15","","key","null","16.677966101694917","756","446.5","","","","","","","",""
"856.9999999999854","arrowleft","psychophysics","35","66691","0.0-3.0-0.16","","key","arrowleft","16.725490196078432","756","446.5","17","1","-1","30","35","25","35","true"
"null","null","psychophysics","36","67693","0.0-3.0-1.16","","key","null","16.71186440677966","756","446.5","","","","","","","",""
"567.9999999999854","arrowright","psychophysics","37","68262","0.0-3.0-0.17","","key","arrowright","16.696969696969695","756","446.5","18","1","-1","24","35","25","35","false"
"null","null","psychophysics","38","69264","0.0-3.0-1.17","","key","null","16.677966101694917","756","446.5","","","","","","","",""
"748","arrowleft","psychophysics","39","70016","0.0-3.0-0.18","","key","arrowleft","16.65909090909091","756","446.5","19","1","1","20","35","25","35","false"
"null","null","psychophysics","40","71019","0.0-3.0-1.18","","key","null","16.71186440677966","756","446.5","","","","","","","",""
"555.0000000000146","arrowright","psychophysics","41","71578","0.0-3.0-0.19","","key","arrowright","16.666666666666668","756","446.5","20","1","-1","26","15","25","35","false"
"null","null","psychophysics","42","72581","0.0-3.0-1.19","","key","null","16.71186440677966","756","446.5","","","","","","","",""
"1180.9999999999854","arrowright","psychophysics","43","73766","0.0-3.0-0.20","","key","arrowright","16.771428571428572","756","446.5","21","1","1","26","15","25","35","true"
"null","null","psychophysics","44","74769","0.0-3.0-1.20","","key","null","16.694915254237287","756","446.5","","","","","","","",""
"2221","arrowleft","psychophysics","45","76994","0.0-3.0-0.21","","key","arrowleft","16.661654135338345","756","446.5","22","1","-1","25","15","25","35","true"
"null","null","psychophysics","46","77995","0.0-3.0-1.21","","key","null","16.661016949152543","756","446.5","","","","","","","",""
"530","arrowright","psychophysics","47","78528","0.0-3.0-0.22","","key","arrowright","16.870967741935484","756","446.5","23","1","-1","24","15","25","35","false"
"null","null","psychophysics","48","79530","0.0-3.0-1.22","","key","null","16.71186440677966","756","446.5","","","","","","","",""
"591","arrowleft","psychophysics","49","80125","0.0-3.0-0.23","","key","arrowleft","16.62857142857143","756","446.5","24","1","1","20","35","25","35","false"
"null","null","psychophysics","50","81127","0.0-3.0-1.23","","key","null","16.728813559322035","756","446.5","","","","","","","",""
"496","arrowright","psychophysics","51","81625","0.0-3.0-0.24","","key","arrowright","16.79310344827586","756","446.5","25","1","-1","20","35","25","35","false"
"null","null","psychophysics","52","82627","0.0-3.0-1.24","","key","null","16.694915254237287","756","446.5","","","","","","","",""
"769","arrowleft","psychophysics","53","83399","0.0-3.0-0.25","","key","arrowleft","16.733333333333334","756","446.5","26","1","-1","25","15","25","35","true"
"null","null","psychophysics","54","84402","0.0-3.0-1.25","","key","null","16.677966101694917","756","446.5","","","","","","","",""
"608","arrowright","psychophysics","55","85023","0.0-3.0-0.26","","key","arrowright","16.63888888888889","756","446.5","27","1","1","30","35","25","35","true"
"null","null","psychophysics","56","86026","0.0-3.0-1.26","","key","null","16.633333333333333","756","446.5","","","","","","","",""
"21105","arrowright","psychophysics","57","107132","0.0-3.0-0.27","","key","arrowright","16.672727272727272","756","446.5","28","2","1","26","35","25","35","true"
"null","null","psychophysics","58","108134","0.0-3.0-1.27","","key","null","16.71186440677966","756","446.5","","","","","","","",""
"10615"," ","html-keyboard-response","59","118750","0.0-3.0-2.27-0.27","<div style=""color: white; text-align: center; vertical-align: top; display: inline-block; width: 800px; margin: auto""><p>You have completed 10% of the trials. You are on block 2 of 10. <br>Good job! Take a break if you need to.</p><p>Press any key to continue the experiment.</p></div>","","","","","","","","","","","","",""
"779","arrowright","psychophysics","60","120536","0.0-3.0-0.28","","key","arrowright","16.822222222222223","756","446.5","29","2","-1","23","35","25","35","false"
"null","null","psychophysics","61","121538","0.0-3.0-1.28","","key","null","16.677966101694917","756","446.5","","","","","","","",""
"454","arrowright","psychophysics","62","121995","0.0-3.0-0.29","","key","arrowright","16.62962962962963","756","446.5","30","2","-1","24","35","25","35","false"
"null","null","psychophysics","63","122997","0.0-3.0-1.29","","key","null","16.661016949152543","756","446.5","","","","","","","",""
"485","arrowright","psychophysics","64","123484","0.0-3.0-0.30","","key","arrowright","16.821428571428573","756","446.5","31","2","-1","20","35","25","35","false"
"null","null","psychophysics","65","124488","0.0-3.0-1.30","","key","null","16.677966101694917","756","446.5","","","","","","","",""
"961","arrowright","psychophysics","66","125459","0.0-3.0-0.31","","key","arrowright","16.603448275862068","756","446.5","32","2","1","27","15","25","35","true"
"null","null","psychophysics","67","126461","0.0-3.0-1.31","","key","null","16.677966101694917","756","446.5","","","","","","","",""
"694.0000000000146","arrowleft","psychophysics","68","127158","0.0-3.0-0.32","","key","arrowleft","16.75609756097561","756","446.5","33","2","-1","25","15","25","35","true"
"null","null","psychophysics","69","128159","0.0-3.0-1.32","","key","null","16.728813559322035","756","446.5","","","","","","","",""
"973.0000000000146","arrowleft","psychophysics","70","129134","0.0-3.0-0.33","","key","arrowleft","16.68421052631579","756","446.5","34","2","-1","25","15","25","35","true"
"null","null","psychophysics","71","130138","0.0-3.0-1.33","","key","null","16.694915254237287","756","446.5","","","","","","","",""
"2385","arrowright","psychophysics","72","132527","0.0-3.0-0.34","","key","arrowright","16.65034965034965","756","446.5","35","2","-1","27","35","25","35","false"
"null","null","psychophysics","73","133530","0.0-3.0-1.34","","key","null","16.694915254237287","756","446.5","","","","","","","",""
"1085","arrowright","psychophysics","74","134618","0.0-3.0-0.35","","key","arrowright","16.734375","756","446.5","36","2","-1","23","35","25","35","false"
"null","null","psychophysics","75","135622","0.0-3.0-1.35","","key","null","16.610169491525422","756","446.5","","","","","","","",""
"777","arrowright","psychophysics","76","136410","0.0-3.0-0.36","","key","arrowright","16.574468085106382","756","446.5","37","2","1","26","15","25","35","true"
"null","null","psychophysics","77","137412","0.0-3.0-1.36","","key","null","16.71186440677966","756","446.5","","","","","","","",""
"688","arrowright","psychophysics","78","138102","0.0-3.0-0.37","","key","arrowright","16.675","756","446.5","38","2","1","27","15","25","35","true"
"null","null","psychophysics","79","139105","0.0-3.0-1.37","","key","null","16.610169491525422","756","446.5","","","","","","","",""
"1145","arrowleft","psychophysics","80","140254","0.0-3.0-0.38","","key","arrowleft","16.63235294117647","756","446.5","39","2","1","23","35","25","35","false"
"null","null","psychophysics","81","141257","0.0-3.0-1.38","","key","null","16.627118644067796","756","446.5","","","","","","","",""
"2706","arrowright","psychophysics","82","143973","0.0-3.0-0.39","","key","arrowright","16.635802469135804","756","446.5","40","2","1","24","15","25","35","true"
"null","null","psychophysics","83","144975","0.0-3.0-1.39","","key","null","16.74576271186441","756","446.5","","","","","","","",""
"1062","arrowright","psychophysics","84","146042","0.0-3.0-0.40","","key","arrowright","16.61904761904762","756","446.5","41","2","1","24","35","25","35","true"
"null","null","psychophysics","85","147044","0.0-3.0-1.40","","key","null","16.677966101694917","756","446.5","","","","","","","",""
"1281.999999999971","arrowleft","psychophysics","86","148333","0.0-3.0-0.41","","key","arrowleft","16.636363636363637","756","446.5","42","2","1","24","15","25","35","false"
"null","null","psychophysics","87","149334","0.0-3.0-1.41","","key","null","16.694915254237287","756","446.5","","","","","","","",""
"1879","arrowleft","psychophysics","88","151217","0.0-3.0-0.42","","key","arrowleft","16.6875","756","446.5","43","2","-1","26","35","25","35","true"
"null","null","psychophysics","89","152218","0.0-3.0-1.42","","key","null","16.728813559322035","756","446.5","","","","","","","",""
"3547","arrowright","psychophysics","90","155768","0.0-3.0-0.43","","key","arrowright","16.693396226415093","756","446.5","44","2","1","30","35","25","35","true"
"null","null","psychophysics","91","156770","0.0-3.0-1.43","","key","null","16.71186440677966","756","446.5","","","","","","","",""
"894","arrowleft","psychophysics","92","157667","0.0-3.0-0.44","","key","arrowleft","16.735849056603772","756","446.5","45","2","1","25","35","25","35","false"
"null","null","psychophysics","93","158668","0.0-3.0-1.44","","key","null","16.728813559322035","756","446.5","","","","","","","",""
"878","arrowright","psychophysics","94","159549","0.0-3.0-0.45","","key","arrowright","16.73076923076923","756","446.5","46","2","-1","25","35","25","35","false"
"null","null","psychophysics","95","160550","0.0-3.0-1.45","","key","null","16.728813559322035","756","446.5","","","","","","","",""
"1431","arrowright","psychophysics","96","161983","0.0-3.0-0.46","","key","arrowright","16.647058823529413","756","446.5","47","2","1","26","15","25","35","true"
"null","null","psychophysics","97","162984","0.0-3.0-1.46","","key","null","16.71186440677966","756","446.5","","","","","","","",""
"518","arrowright","psychophysics","98","163505","0.0-3.0-0.47","","key","arrowright","16.8","756","446.5","48","2","1","26","35","25","35","true"
"null","null","psychophysics","99","164508","0.0-3.0-1.47","","key","null","16.694915254237287","756","446.5","","","","","","","",""
"621","arrowleft","psychophysics","100","165135","0.0-3.0-0.48","","key","arrowleft","16.675675675675677","756","446.5","49","2","-1","30","15","25","35","true"
"null","null","psychophysics","101","166137","0.0-3.0-1.48","","key","null","16.728813559322035","756","446.5","","","","","","","",""
"686","arrowleft","psychophysics","102","166827","0.0-3.0-0.49","","key","arrowleft","16.7","756","446.5","50","2","-1","26","15","25","35","true"
"null","null","psychophysics","103","167830","0.0-3.0-1.49","","key","null","16.593220338983052","756","446.5","","","","","","","",""
"534","arrowright","psychophysics","104","168369","0.0-3.0-0.50","","key","arrowright","16.53125","756","446.5","51","2","1","27","35","25","35","true"
"null","null","psychophysics","105","169371","0.0-3.0-1.50","","key","null","16.71186440677966","756","446.5","","","","","","","",""
"526","arrowright","psychophysics","106","169901","0.0-3.0-0.51","","key","arrowright","16.677419354838708","756","446.5","52","2","-1","20","15","25","35","false"
"null","null","psychophysics","107","170904","0.0-3.0-1.51","","key","null","16.694915254237287","756","446.5","","","","","","","",""
"858","arrowleft","psychophysics","108","171767","0.0-3.0-0.52","","key","arrowleft","16.725490196078432","756","446.5","53","2","1","20","15","25","35","false"
"null","null","psychophysics","109","172768","0.0-3.0-1.52","","key","null","16.71186440677966","756","446.5","","","","","","","",""
"707","arrowleft","psychophysics","110","173477","0.0-3.0-0.53","","key","arrowleft","16.70731707317073","756","446.5","54","2","-1","27","35","25","35","true"
"null","null","psychophysics","111","174480","0.0-3.0-1.53","","key","null","16.610169491525422","756","446.5","","","","","","","",""
"561.0000000000291","arrowright","psychophysics","112","175045","0.0-3.0-0.54","","key","arrowright","16.575757575757574","756","446.5","55","2","1","30","35","25","35","true"
"null","null","psychophysics","113","176050","0.0-3.0-1.54","","key","null","16.683333333333334","756","446.5","","","","","","","",""
"1366","arrowleft","psychophysics","114","177417","0.0-3.0-0.55","","key","arrowleft","16.71604938271605","756","446.5","56","3","-1","24","15","25","35","true"
"null","null","psychophysics","115","178419","0.0-3.0-1.55","","key","null","16.677966101694917","756","446.5","","","","","","","",""
"14878"," ","html-keyboard-response","116","193299","0.0-3.0-2.55-0.55","<div style=""color: white; text-align: center; vertical-align: top; display: inline-block; width: 800px; margin: auto""><p>You have completed 20% of the trials. You are on block 3 of 10. <br>Good job! Take a break if you need to.</p><p>Press any key to continue the experiment.</p></div>","","","","","","","","","","","","",""
"1522","arrowright","psychophysics","117","195828","0.0-3.0-0.56","","key","arrowright","16.7","756","446.5","57","3","-1","24","35","25","35","false"
"null","null","psychophysics","118","196833","0.0-3.0-1.56","","key","null","16.666666666666668","756","446.5","","","","","","","",""
"624","arrowleft","psychophysics","119","197460","0.0-3.0-0.57","","key","arrowleft","16.72222222222222","756","446.5","58","3","1","26","15","25","35","false"
"null","null","psychophysics","120","198463","0.0-3.0-1.57","","key","null","16.627118644067796","756","446.5","","","","","","","",""
"1241","arrowright","psychophysics","121","199716","0.0-3.0-0.58","","key","arrowright","16.60810810810811","756","446.5","59","3","-1","25","35","25","35","false"
"null","null","psychophysics","122","200718","0.0-3.0-1.58","","key","null","16.583333333333332","756","446.5","","","","","","","",""
"981","arrowright","psychophysics","123","201701","0.0-3.0-0.59","","key","arrowright","16.70689655172414","756","446.5","60","3","1","24","35","25","35","true"
"null","null","psychophysics","124","202703","0.0-3.0-1.59","","key","null","16.694915254237287","756","446.5","","","","","","","",""
"973","arrowright","psychophysics","125","203680","0.0-3.0-0.60","","key","arrowright","16.736842105263158","756","446.5","61","3","-1","26","35","25","35","false"
"null","null","psychophysics","126","204684","0.0-3.0-1.60","","key","null","16.666666666666668","756","446.5","","","","","","","",""
"1033","arrowright","psychophysics","127","205719","0.0-3.0-0.61","","key","arrowright","16.704918032786885","756","446.5","62","3","1","25","15","25","35","true"
"null","null","psychophysics","128","206721","0.0-3.0-1.61","","key","null","16.661016949152543","756","446.5","","","","","","","",""
"777","arrowright","psychophysics","129","207499","0.0-3.0-0.62","","key","arrowright","16.717391304347824","756","446.5","63","3","1","27","15","25","35","true"
"null","null","psychophysics","130","208501","0.0-3.0-1.62","","key","null","16.71186440677966","756","446.5","","","","","","","",""
"1806","arrowleft","psychophysics","131","210310","0.0-3.0-0.63","","key","arrowleft","16.700934579439252","756","446.5","64","3","-1","23","15","25","35","true"
"null","null","psychophysics","132","211315","0.0-3.0-1.63","","key","null","16.566666666666666","756","446.5","","","","","","","",""
"870","arrowleft","psychophysics","133","212187","0.0-3.0-0.64","","key","arrowleft","16.745098039215687","756","446.5","65","3","1","23","35","25","35","false"
"null","null","psychophysics","134","213188","0.0-3.0-1.64","","key","null","16.71186440677966","756","446.5","","","","","","","",""
"1462","arrowright","psychophysics","135","214651","0.0-3.0-0.65","","key","arrowright","16.71264367816092","756","446.5","66","3","1","25","15","25","35","true"
"null","null","psychophysics","136","215653","0.0-3.0-1.65","","key","null","16.71186440677966","756","446.5","","","","","","","",""
"1253.000000000029","arrowleft","psychophysics","137","216909","0.0-3.0-0.66","","key","arrowleft","16.7027027027027","756","446.5","67","3","1","27","35","25","35","false"
"null","null","psychophysics","138","217912","0.0-3.0-1.66","","key","null","16.677966101694917","756","446.5","","","","","","","",""
"715","arrowright","psychophysics","139","218633","0.0-3.0-0.67","","key","arrowright","16.6046511627907","756","446.5","68","3","-1","23","35","25","35","false"
"null","null","psychophysics","140","219634","0.0-3.0-1.67","","key","null","16.728813559322035","756","446.5","","","","","","","",""
"762","arrowleft","psychophysics","141","220399","0.0-3.0-0.68","","key","arrowleft","16.68888888888889","756","446.5","69","3","-1","25","15","25","35","true"
"null","null","psychophysics","142","221400","0.0-3.0-1.68","","key","null","16.728813559322035","756","446.5","","","","","","","",""
"598.9999999999709","arrowleft","psychophysics","143","222001","0.0-3.0-0.69","","key","arrowleft","16.771428571428572","756","446.5","70","3","-1","30","35","25","35","true"
"null","null","psychophysics","144","223003","0.0-3.0-1.69","","key","null","16.694915254237287","756","446.5","","","","","","","",""
"1209","arrowright","psychophysics","145","224215","0.0-3.0-0.70","","key","arrowright","16.694444444444443","756","446.5","71","3","1","25","15","25","35","true"
"null","null","psychophysics","146","225217","0.0-3.0-1.70","","key","null","16.661016949152543","756","446.5","","","","","","","",""
"698","arrowleft","psychophysics","147","225917","0.0-3.0-0.71","","key","arrowleft","16.75609756097561","756","446.5","72","3","-1","26","15","25","35","true"
"null","null","psychophysics","148","226918","0.0-3.0-1.71","","key","null","16.728813559322035","756","446.5","","","","","","","",""
"505.0000000000291","arrowleft","psychophysics","149","227426","0.0-3.0-0.72","","key","arrowleft","16.79310344827586","756","446.5","73","3","1","20","15","25","35","false"
"null","null","psychophysics","150","228428","0.0-3.0-1.72","","key","null","16.6","756","446.5","","","","","","","",""
"507","arrowright","psychophysics","151","228937","0.0-3.0-0.73","","key","arrowright","16.82758620689655","756","446.5","74","3","-1","23","35","25","35","false"
"null","null","psychophysics","152","229938","0.0-3.0-1.73","","key","null","16.694915254237287","756","446.5","","","","","","","",""
"1226","arrowleft","psychophysics","153","231165","0.0-3.0-0.74","","key","arrowleft","16.680555555555557","756","446.5","75","3","1","24","15","25","35","false"
"null","null","psychophysics","154","232167","0.0-3.0-1.74","","key","null","16.6","756","446.5","","","","","","","",""
"730","arrowright","psychophysics","155","232899","0.0-3.0-0.75","","key","arrowright","16.69047619047619","756","446.5","76","3","1","26","15","25","35","true"
"null","null","psychophysics","156","233901","0.0-3.0-1.75","","key","null","16.616666666666667","756","446.5","","","","","","","",""
"763","arrowright","psychophysics","157","234666","0.0-3.0-0.76","","key","arrowright","16.733333333333334","756","446.5","77","3","-1","23","35","25","35","false"
"null","null","psychophysics","158","235668","0.0-3.0-1.76","","key","null","16.728813559322035","756","446.5","","","","","","","",""
"730.9999999999709","arrowleft","psychophysics","159","236401","0.0-3.0-0.77","","key","arrowleft","16.74418604651163","756","446.5","78","3","-1","25","15","25","35","true"
"null","null","psychophysics","160","237403","0.0-3.0-1.77","","key","null","16.728813559322035","756","446.5","","","","","","","",""
"606.0000000000291","arrowleft","psychophysics","161","238015","0.0-3.0-0.78","","key","arrowleft","16.72222222222222","756","446.5","79","3","-1","25","15","25","35","true"
"null","null","psychophysics","162","239016","0.0-3.0-1.78","","key","null","16.677966101694917","756","446.5","","","","","","","",""
"684","arrowleft","psychophysics","163","239702","0.0-3.0-0.79","","key","arrowleft","16.7","756","446.5","80","3","1","23","35","25","35","false"
"null","null","psychophysics","164","240704","0.0-3.0-1.79","","key","null","16.728813559322035","756","446.5","","","","","","","",""
"961","arrowright","psychophysics","165","241668","0.0-3.0-0.80","","key","arrowright","16.736842105263158","756","446.5","81","3","1","25","15","25","35","true"
"null","null","psychophysics","166","242670","0.0-3.0-1.80","","key","null","16.71186440677966","756","446.5","","","","","","","",""
"644","arrowleft","psychophysics","167","243316","0.0-3.0-0.81","","key","arrowleft","16.763157894736842","756","446.5","82","3","-1","23","15","25","35","true"
"null","null","psychophysics","168","244318","0.0-3.0-1.81","","key","null","16.694915254237287","756","446.5","","","","","","","",""
"494","arrowleft","psychophysics","169","244816","0.0-3.0-0.82","","key","arrowleft","16.79310344827586","756","446.5","83","3","1","23","15","25","35","false"
"null","null","psychophysics","170","245817","0.0-3.0-1.82","","key","null","16.661016949152543","756","446.5","","","","","","","",""
"662.9999999999709","arrowright","psychophysics","171","246482","0.0-3.0-0.83","","key","arrowright","16.666666666666668","756","446.5","84","4","1","27","35","25","35","true"
"null","null","psychophysics","172","247484","0.0-3.0-1.83","","key","null","16.71186440677966","756","446.5","","","","","","","",""
"14982"," ","html-keyboard-response","173","262467","0.0-3.0-2.83-0.83","<div style=""color: white; text-align: center; vertical-align: top; display: inline-block; width: 800px; margin: auto""><p>You have completed 30% of the trials. You are on block 4 of 10. <br>Good job! Take a break if you need to.</p><p>Press any key to continue the experiment.</p></div>","","","","","","","","","","","","",""
"911","arrowleft","psychophysics","174","264384","0.0-3.0-0.84","","key","arrowleft","16.74074074074074","756","446.5","85","4","-1","27","35","25","35","true"
"null","null","psychophysics","175","265386","0.0-3.0-1.84","","key","null","16.728813559322035","756","446.5","","","","","","","",""
"451.0000000000582","arrowright","psychophysics","176","265840","0.0-3.0-0.85","","key","arrowright","16.846153846153847","756","446.5","86","4","-1","24","35","25","35","false"
"null","null","psychophysics","177","266844","0.0-3.0-1.85","","key","null","16.677966101694917","756","446.5","","","","","","","",""
"740","arrowright","psychophysics","178","267597","0.0-3.0-0.86","","key","arrowright","16.613636363636363","756","446.5","87","4","1","25","35","25","35","true"
"null","null","psychophysics","179","268600","0.0-3.0-1.86","","key","null","16.65","756","446.5","","","","","","","",""
"1263.0000000000582","arrowleft","psychophysics","180","269864","0.0-3.0-0.87","","key","arrowleft","16.64864864864865","756","446.5","88","4","1","24","35","25","35","false"
"null","null","psychophysics","181","270866","0.0-3.0-1.87","","key","null","16.616666666666667","756","446.5","","","","","","","",""
"522","arrowright","psychophysics","182","271392","0.0-3.0-0.88","","key","arrowright","16.766666666666666","756","446.5","89","4","1","27","35","25","35","true"
"null","null","psychophysics","183","272396","0.0-3.0-1.88","","key","null","16.71186440677966","756","446.5","","","","","","","",""
"1167.9999999999418","arrowleft","psychophysics","184","273568","0.0-3.0-0.89","","key","arrowleft","16.62857142857143","756","446.5","90","4","1","24","35","25","35","false"
"null","null","psychophysics","185","274569","0.0-3.0-1.89","","key","null","16.71186440677966","756","446.5","","","","","","","",""
"715","arrowleft","psychophysics","186","275285","0.0-3.0-0.90","","key","arrowleft","16.69047619047619","756","446.5","91","4","-1","30","35","25","35","true"
"null","null","psychophysics","187","276287","0.0-3.0-1.90","","key","null","16.661016949152543","756","446.5","","","","","","","",""
"543","arrowright","psychophysics","188","276832","0.0-3.0-0.91","","key","arrowright","16.75","756","446.5","92","4","-1","25","35","25","35","false"
"null","null","psychophysics","189","277834","0.0-3.0-1.91","","key","null","16.728813559322035","756","446.5","","","","","","","",""
"574","arrowright","psychophysics","190","278410","0.0-3.0-0.92","","key","arrowright","16.757575757575758","756","446.5","93","4","1","30","15","25","35","true"
"null","null","psychophysics","191","279412","0.0-3.0-1.92","","key","null","16.627118644067796","756","446.5","","","","","","","",""
"510","arrowleft","psychophysics","192","279934","0.0-3.0-0.93","","key","arrowleft","16.580645161290324","756","446.5","94","4","1","20","15","25","35","false"
"null","null","psychophysics","193","280935","0.0-3.0-1.93","","key","null","16.71186440677966","756","446.5","","","","","","","",""
"595","arrowright","psychophysics","194","281534","0.0-3.0-0.94","","key","arrowright","16.771428571428572","756","446.5","95","4","1","25","35","25","35","true"
"null","null","psychophysics","195","282535","0.0-3.0-1.94","","key","null","16.728813559322035","756","446.5","","","","","","","",""
"1014","arrowleft","psychophysics","196","283551","0.0-3.0-0.95","","key","arrowleft","16.716666666666665","756","446.5","96","4","-1","23","15","25","35","true"
"null","null","psychophysics","197","284552","0.0-3.0-1.95","","key","null","16.677966101694917","756","446.5","","","","","","","",""
"623","arrowright","psychophysics","198","285179","0.0-3.0-0.96","","key","arrowright","16.694444444444443","756","446.5","97","4","1","27","15","25","35","true"
"null","null","psychophysics","199","286183","0.0-3.0-1.96","","key","null","16.666666666666668","756","446.5","","","","","","","",""
"795","arrowleft","psychophysics","200","286980","0.0-3.0-0.97","","key","arrowleft","16.695652173913043","756","446.5","98","4","1","24","15","25","35","false"
"null","null","psychophysics","201","287984","0.0-3.0-1.97","","key","null","16.666666666666668","756","446.5","","","","","","","",""
"745","arrowright","psychophysics","202","288731","0.0-3.0-0.98","","key","arrowright","16.697674418604652","756","446.5","99","4","1","25","35","25","35","true"
"null","null","psychophysics","203","289733","0.0-3.0-1.98","","key","null","16.6","756","446.5","","","","","","","",""
"717","arrowright","psychophysics","204","290452","0.0-3.0-0.99","","key","arrowright","16.761904761904763","756","446.5","100","4","-1","25","35","25","35","false"
"null","null","psychophysics","205","291453","0.0-3.0-1.99","","key","null","16.694915254237287","756","446.5","","","","","","","",""
"540","arrowright","psychophysics","206","291995","0.0-3.0-0.100","","key","arrowright","16.741935483870968","756","446.5","101","4","1","25","35","25","35","true"
"null","null","psychophysics","207","292998","0.0-3.0-1.100","","key","null","16.65","756","446.5","","","","","","","",""
"584","arrowright","psychophysics","208","293584","0.0-3.0-0.101","","key","arrowright","16.823529411764707","756","446.5","102","4","1","23","35","25","35","true"
"null","null","psychophysics","209","294585","0.0-3.0-1.101","","key","null","16.728813559322035","756","446.5","","","","","","","",""
"1015.0000000000582","arrowleft","psychophysics","210","295602","0.0-3.0-0.102","","key","arrowleft","16.733333333333334","756","446.5","103","4","1","23","35","25","35","false"
"null","null","psychophysics","211","296604","0.0-3.0-1.102","","key","null","16.71186440677966","756","446.5","","","","","","","",""
"658","arrowright","psychophysics","212","297265","0.0-3.0-0.103","","key","arrowright","16.743589743589745","756","446.5","104","4","1","27","15","25","35","true"
"null","null","psychophysics","213","298267","0.0-3.0-1.103","","key","null","16.661016949152543","756","446.5","","","","","","","",""
"663","arrowleft","psychophysics","214","298932","0.0-3.0-0.104","","key","arrowleft","16.71794871794872","756","446.5","105","4","1","24","15","25","35","false"
"null","null","psychophysics","215","299933","0.0-3.0-1.104","","key","null","16.677966101694917","756","446.5","","","","","","","",""
"652","arrowright","psychophysics","216","300588","0.0-3.0-0.105","","key","arrowright","16.736842105263158","756","446.5","106","4","-1","20","35","25","35","false"
"null","null","psychophysics","217","301590","0.0-3.0-1.105","","key","null","16.661016949152543","756","446.5","","","","","","","",""
"1402","arrowleft","psychophysics","218","302995","0.0-3.0-0.106","","key","arrowleft","16.674698795180724","756","446.5","107","4","1","27","15","25","35","false"
"null","null","psychophysics","219","304000","0.0-3.0-1.106","","key","null","16.666666666666668","756","446.5","","","","","","","",""
"898.0000000000582","arrowright","psychophysics","220","304900","0.0-3.0-0.107","","key","arrowright","16.754716981132077","756","446.5","108","4","1","30","15","25","35","true"
"null","null","psychophysics","221","305902","0.0-3.0-1.107","","key","null","16.677966101694917","756","446.5","","","","","","","",""
"811.0000000000582","arrowright","psychophysics","222","306715","0.0-3.0-0.108","","key","arrowright","16.72340425531915","756","446.5","109","4","1","30","35","25","35","true"
"null","null","psychophysics","223","307716","0.0-3.0-1.108","","key","null","16.616666666666667","756","446.5","","","","","","","",""
"929","arrowleft","psychophysics","224","308647","0.0-3.0-0.109","","key","arrowleft","16.72222222222222","756","446.5","110","4","-1","24","35","25","35","true"
"null","null","psychophysics","225","309649","0.0-3.0-1.109","","key","null","16.666666666666668","756","446.5","","","","","","","",""
"608","arrowright","psychophysics","226","310261","0.0-3.0-0.110","","key","arrowright","16.771428571428572","756","446.5","111","4","1","26","35","25","35","true"
"null","null","psychophysics","227","311264","0.0-3.0-1.110","","key","null","16.593220338983052","756","446.5","","","","","","","",""
"543","arrowleft","psychophysics","228","311819","0.0-3.0-0.111","","key","arrowleft","16.545454545454547","756","446.5","112","5","1","26","15","25","35","false"
"null","null","psychophysics","229","312821","0.0-3.0-1.111","","key","null","16.71186440677966","756","446.5","","","","","","","",""
"40935"," ","html-keyboard-response","230","353758","0.0-3.0-2.111-0.111","<div style=""color: white; text-align: center; vertical-align: top; display: inline-block; width: 800px; margin: auto""><p>You have completed 40% of the trials. You are on block 5 of 10. <br>Good job! Take a break if you need to.</p><p>Press any key to continue the experiment.</p></div>","","","","","","","","","","","","",""
"895","arrowleft","psychophysics","231","355661","0.0-3.0-0.112","","key","arrowleft","16.660377358490567","756","446.5","113","5","1","23","35","25","35","false"
"null","null","psychophysics","232","356663","0.0-3.0-1.112","","key","null","16.661016949152543","756","446.5","","","","","","","",""
"525","arrowright","psychophysics","233","357193","0.0-3.0-0.113","","key","arrowright","16.70967741935484","756","446.5","114","5","-1","25","35","25","35","false"
"null","null","psychophysics","234","358194","0.0-3.0-1.113","","key","null","16.728813559322035","756","446.5","","","","","","","",""
"478","arrowright","psychophysics","235","358676","0.0-3.0-0.114","","key","arrowright","16.785714285714285","756","446.5","115","5","-1","20","15","25","35","false"
"null","null","psychophysics","236","359677","0.0-3.0-1.114","","key","null","16.71186440677966","756","446.5","","","","","","","",""
"864.9999999999418","arrowright","psychophysics","237","360545","0.0-3.0-0.115","","key","arrowright","16.686274509803923","756","446.5","116","5","1","25","35","25","35","true"
"null","null","psychophysics","238","361548","0.0-3.0-1.115","","key","null","16.847457627118644","756","446.5","","","","","","","",""
"1099.0000000000582","arrowright","psychophysics","239","362650","0.0-3.0-0.116","","key","arrowright","16.73846153846154","756","446.5","117","5","-1","27","35","25","35","false"
"null","null","psychophysics","240","363652","0.0-3.0-1.116","","key","null","16.728813559322035","756","446.5","","","","","","","",""
"1022","arrowleft","psychophysics","241","364677","0.0-3.0-0.117","","key","arrowleft","16.683333333333334","756","446.5","118","5","-1","24","15","25","35","true"
"null","null","psychophysics","242","365680","0.0-3.0-1.117","","key","null","16.610169491525422","756","446.5","","","","","","","",""
"789.0000000000582","arrowleft","psychophysics","243","366478","0.0-3.0-0.118","","key","arrowleft","16.638297872340427","756","446.5","119","5","-1","26","15","25","35","true"
"null","null","psychophysics","244","367481","0.0-3.0-1.118","","key","null","16.65","756","446.5","","","","","","","",""
"674","arrowright","psychophysics","245","368159","0.0-3.0-0.119","","key","arrowright","16.76923076923077","756","446.5","120","5","1","30","15","25","35","true"
"null","null","psychophysics","246","369162","0.0-3.0-1.119","","key","null","16.661016949152543","756","446.5","","","","","","","",""
"915.9999999999418","arrowleft","psychophysics","247","370083","0.0-3.0-0.120","","key","arrowleft","16.6","756","446.5","121","5","-1","26","35","25","35","true"
"null","null","psychophysics","248","371084","0.0-3.0-1.120","","key","null","16.728813559322035","756","446.5","","","","","","","",""
"564.0000000000582","arrowright","psychophysics","249","371651","0.0-3.0-0.121","","key","arrowright","16.78787878787879","756","446.5","122","5","-1","23","35","25","35","false"
"null","null","psychophysics","250","372652","0.0-3.0-1.121","","key","null","16.71186440677966","756","446.5","","","","","","","",""
"677","arrowright","psychophysics","251","373332","0.0-3.0-0.122","","key","arrowright","16.641025641025642","756","446.5","123","5","-1","24","35","25","35","false"
"null","null","psychophysics","252","374335","0.0-3.0-1.122","","key","null","16.583333333333332","756","446.5","","","","","","","",""
"563","arrowleft","psychophysics","253","374902","0.0-3.0-0.123","","key","arrowleft","16.78787878787879","756","446.5","124","5","1","23","15","25","35","false"
"null","null","psychophysics","254","375903","0.0-3.0-1.123","","key","null","16.677966101694917","756","446.5","","","","","","","",""
"857","arrowleft","psychophysics","255","376766","0.0-3.0-0.124","","key","arrowleft","16.725490196078432","756","446.5","125","5","-1","24","15","25","35","true"
"null","null","psychophysics","256","377767","0.0-3.0-1.124","","key","null","16.728813559322035","756","446.5","","","","","","","",""
"528","arrowleft","psychophysics","257","378297","0.0-3.0-0.125","","key","arrowleft","16.666666666666668","756","446.5","126","5","1","25","15","25","35","false"
"null","null","psychophysics","258","379300","0.0-3.0-1.125","","key","null","16.633333333333333","756","446.5","","","","","","","",""
"928","arrowright","psychophysics","259","380230","0.0-3.0-0.126","","key","arrowright","16.685185185185187","756","446.5","127","5","1","27","15","25","35","true"
"null","null","psychophysics","260","381232","0.0-3.0-1.126","","key","null","16.65","756","446.5","","","","","","","",""
"712","arrowright","psychophysics","261","381947","0.0-3.0-0.127","","key","arrowright","16.75609756097561","756","446.5","128","5","1","30","15","25","35","true"
"null","null","psychophysics","262","382950","0.0-3.0-1.127","","key","null","16.616666666666667","756","446.5","","","","","","","",""
"626.0000000000582","arrowleft","psychophysics","263","383578","0.0-3.0-0.128","","key","arrowleft","16.694444444444443","756","446.5","129","5","-1","30","15","25","35","true"
"null","null","psychophysics","264","384582","0.0-3.0-1.128","","key","null","16.65","756","446.5","","","","","","","",""
"884","arrowleft","psychophysics","265","385468","0.0-3.0-0.129","","key","arrowleft","16.71153846153846","756","446.5","130","5","1","25","15","25","35","false"
"null","null","psychophysics","266","386469","0.0-3.0-1.129","","key","null","16.728813559322035","756","446.5","","","","","","","",""
"731","arrowleft","psychophysics","267","387202","0.0-3.0-0.130","","key","arrowleft","16.651162790697676","756","446.5","131","5","-1","23","15","25","35","true"
"null","null","psychophysics","268","388204","0.0-3.0-1.130","","key","null","16.71186440677966","756","446.5","","","","","","","",""
"1561","arrowright","psychophysics","269","389766","0.0-3.0-0.131","","key","arrowright","16.70967741935484","756","446.5","132","5","1","26","15","25","35","true"
"null","null","psychophysics","270","390767","0.0-3.0-1.131","","key","null","16.71186440677966","756","446.5","","","","","","","",""
"749","arrowleft","psychophysics","271","391520","0.0-3.0-0.132","","key","arrowleft","16.704545454545453","756","446.5","133","5","-1","26","15","25","35","true"
"null","null","psychophysics","272","392521","0.0-3.0-1.132","","key","null","16.677966101694917","756","446.5","","","","","","","",""
"740","arrowleft","psychophysics","273","393267","0.0-3.0-0.133","","key","arrowleft","16.681818181818183","756","446.5","134","5","-1","26","15","25","35","true"
"null","null","psychophysics","274","394268","0.0-3.0-1.133","","key","null","16.74576271186441","756","446.5","","","","","","","",""
"1031","arrowleft","psychophysics","275","395302","0.0-3.0-0.134","","key","arrowleft","16.737704918032787","756","446.5","135","5","1","25","35","25","35","false"
"null","null","psychophysics","276","396304","0.0-3.0-1.134","","key","null","16.71186440677966","756","446.5","","","","","","","",""
"658","arrowleft","psychophysics","277","396965","0.0-3.0-0.135","","key","arrowleft","16.736842105263158","756","446.5","136","5","-1","30","15","25","35","true"
"null","null","psychophysics","278","397967","0.0-3.0-1.135","","key","null","16.616666666666667","756","446.5","","","","","","","",""
"632","arrowleft","psychophysics","279","398601","0.0-3.0-0.136","","key","arrowleft","16.72972972972973","756","446.5","137","5","-1","27","15","25","35","true"
"null","null","psychophysics","280","399602","0.0-3.0-1.136","","key","null","16.71186440677966","756","446.5","","","","","","","",""
"929","arrowleft","psychophysics","281","400533","0.0-3.0-0.137","","key","arrowleft","16.70909090909091","756","446.5","138","5","-1","27","35","25","35","true"
"null","null","psychophysics","282","401535","0.0-3.0-1.137","","key","null","16.694915254237287","756","446.5","","","","","","","",""
"745","arrowleft","psychophysics","283","402283","0.0-3.0-0.138","","key","arrowleft","16.727272727272727","756","446.5","139","5","1","20","35","25","35","false"
"null","null","psychophysics","284","403285","0.0-3.0-1.138","","key","null","16.694915254237287","756","446.5","","","","","","","",""
"1031","arrowright","psychophysics","285","404318","0.0-3.0-0.139","","key","arrowright","16.65573770491803","756","446.5","140","6","-1","20","15","25","35","false"
"null","null","psychophysics","286","405319","0.0-3.0-1.139","","key","null","16.728813559322035","756","446.5","","","","","","","",""
"9567"," ","html-keyboard-response","287","414887","0.0-3.0-2.139-0.139","<div style=""color: white; text-align: center; vertical-align: top; display: inline-block; width: 800px; margin: auto""><p>You have completed 50% of the trials. You are on block 6 of 10. <br>Good job! Take a break if you need to.</p><p>Press any key to continue the experiment.</p></div>","","","","","","","","","","","","",""
"1249","arrowright","psychophysics","288","417142","0.0-3.0-0.140","","key","arrowright","16.72972972972973","756","446.5","141","6","1","23","15","25","35","true"
"null","null","psychophysics","289","418143","0.0-3.0-1.140","","key","null","16.694915254237287","756","446.5","","","","","","","",""
"512","arrowleft","psychophysics","290","418658","0.0-3.0-0.141","","key","arrowleft","16.733333333333334","756","446.5","142","6","1","20","35","25","35","false"
"null","null","psychophysics","291","419659","0.0-3.0-1.141","","key","null","16.71186440677966","756","446.5","","","","","","","",""
"682","arrowright","psychophysics","292","420344","0.0-3.0-0.142","","key","arrowright","16.75","756","446.5","143","6","1","27","35","25","35","true"
"null","null","psychophysics","293","421345","0.0-3.0-1.142","","key","null","16.728813559322035","756","446.5","","","","","","","",""
"553","arrowright","psychophysics","294","421901","0.0-3.0-0.143","","key","arrowright","16.75","756","446.5","144","6","1","27","35","25","35","true"
"null","null","psychophysics","295","422904","0.0-3.0-1.143","","key","null","16.64406779661017","756","446.5","","","","","","","",""
"458","arrowright","psychophysics","296","423375","0.0-3.0-0.144","","key","arrowright","16.607142857142858","756","446.5","145","6","-1","23","35","25","35","false"
"null","null","psychophysics","297","424376","0.0-3.0-1.144","","key","null","16.728813559322035","756","446.5","","","","","","","",""
"530","arrowright","psychophysics","298","424907","0.0-3.0-0.145","","key","arrowright","16.774193548387096","756","446.5","146","6","1","25","35","25","35","true"
"null","null","psychophysics","299","425909","0.0-3.0-1.145","","key","null","16.728813559322035","756","446.5","","","","","","","",""
"551","arrowleft","psychophysics","300","426462","0.0-3.0-0.146","","key","arrowleft","16.75","756","446.5","147","6","1","20","35","25","35","false"
"null","null","psychophysics","301","427466","0.0-3.0-1.146","","key","null","16.728813559322035","756","446.5","","","","","","","",""
"543","arrowright","psychophysics","302","428023","0.0-3.0-0.147","","key","arrowright","16.6875","756","446.5","148","6","1","30","35","25","35","true"
"null","null","psychophysics","303","429025","0.0-3.0-1.147","","key","null","16.583333333333332","756","446.5","","","","","","","",""
"743","arrowright","psychophysics","304","429771","0.0-3.0-0.148","","key","arrowright","16.74418604651163","756","446.5","149","6","1","25","35","25","35","true"
"null","null","psychophysics","305","430774","0.0-3.0-1.148","","key","null","16.666666666666668","756","446.5","","","","","","","",""
"663","arrowleft","psychophysics","306","431440","0.0-3.0-0.149","","key","arrowleft","16.710526315789473","756","446.5","150","6","-1","30","15","25","35","true"
"null","null","psychophysics","307","432442","0.0-3.0-1.149","","key","null","16.616666666666667","756","446.5","","","","","","","",""
"511","arrowright","psychophysics","308","432956","0.0-3.0-0.150","","key","arrowright","16.666666666666668","756","446.5","151","6","1","27","35","25","35","true"
"null","null","psychophysics","309","433957","0.0-3.0-1.150","","key","null","16.71186440677966","756","446.5","","","","","","","",""
"721.9999999999418","arrowleft","psychophysics","310","434683","0.0-3.0-0.151","","key","arrowleft","16.738095238095237","756","446.5","152","6","-1","27","15","25","35","true"
"null","null","psychophysics","311","435686","0.0-3.0-1.151","","key","null","16.694915254237287","756","446.5","","","","","","","",""
"545.9999999999418","arrowleft","psychophysics","312","436237","0.0-3.0-0.152","","key","arrowleft","16.625","756","446.5","153","6","-1","27","15","25","35","true"
"null","null","psychophysics","313","437241","0.0-3.0-1.152","","key","null","16.666666666666668","756","446.5","","","","","","","",""
"471","arrowleft","psychophysics","314","437713","0.0-3.0-0.153","","key","arrowleft","16.814814814814813","756","446.5","154","6","1","23","15","25","35","false"
"null","null","psychophysics","315","438716","0.0-3.0-1.153","","key","null","16.71186440677966","756","446.5","","","","","","","",""
"689","arrowright","psychophysics","316","439408","0.0-3.0-0.154","","key","arrowright","16.70731707317073","756","446.5","155","6","1","26","15","25","35","true"
"null","null","psychophysics","317","440409","0.0-3.0-1.154","","key","null","16.728813559322035","756","446.5","","","","","","","",""
"514.0000000000582","arrowright","psychophysics","318","440924","0.0-3.0-0.155","","key","arrowright","16.766666666666666","756","446.5","156","6","1","30","35","25","35","true"
"null","null","psychophysics","319","441925","0.0-3.0-1.155","","key","null","16.661016949152543","756","446.5","","","","","","","",""
"1232","arrowleft","psychophysics","320","443160","0.0-3.0-0.156","","key","arrowleft","16.726027397260275","756","446.5","157","6","1","24","35","25","35","false"
"null","null","psychophysics","321","444161","0.0-3.0-1.156","","key","null","16.71186440677966","756","446.5","","","","","","","",""
"626","arrowleft","psychophysics","322","444790","0.0-3.0-0.157","","key","arrowleft","16.694444444444443","756","446.5","158","6","-1","27","35","25","35","true"
"null","null","psychophysics","323","445791","0.0-3.0-1.157","","key","null","16.616666666666667","756","446.5","","","","","","","",""
"544","arrowright","psychophysics","324","446337","0.0-3.0-0.158","","key","arrowright","16.774193548387096","756","446.5","159","6","-1","23","35","25","35","false"
"null","null","psychophysics","325","447340","0.0-3.0-1.158","","key","null","16.666666666666668","756","446.5","","","","","","","",""
"525","arrowleft","psychophysics","326","447866","0.0-3.0-0.159","","key","arrowleft","16.766666666666666","756","446.5","160","6","1","20","15","25","35","false"
"null","null","psychophysics","327","448869","0.0-3.0-1.159","","key","null","16.677966101694917","756","446.5","","","","","","","",""
"592.0000000000582","arrowleft","psychophysics","328","449466","0.0-3.0-0.160","","key","arrowleft","16.65714285714286","756","446.5","161","6","-1","30","35","25","35","true"
"null","null","psychophysics","329","450470","0.0-3.0-1.160","","key","null","16.677966101694917","756","446.5","","","","","","","",""
"832","arrowleft","psychophysics","330","451308","0.0-3.0-0.161","","key","arrowleft","16.571428571428573","756","446.5","162","6","-1","27","35","25","35","true"
"null","null","psychophysics","331","452311","0.0-3.0-1.161","","key","null","16.55","756","446.5","","","","","","","",""
"1044","arrowright","psychophysics","332","453358","0.0-3.0-0.162","","key","arrowright","16.693548387096776","756","446.5","163","6","-1","20","15","25","35","false"
"null","null","psychophysics","333","454359","0.0-3.0-1.162","","key","null","16.71186440677966","756","446.5","","","","","","","",""
"507","arrowleft","psychophysics","334","454868","0.0-3.0-0.163","","key","arrowleft","16.689655172413794","756","446.5","164","6","1","23","15","25","35","false"
"null","null","psychophysics","335","455876","0.0-3.0-1.163","","key","null","16.583333333333332","756","446.5","","","","","","","",""
"1033","arrowleft","psychophysics","336","456912","0.0-3.0-0.164","","key","arrowleft","16.672131147540984","756","446.5","165","6","-1","25","35","25","35","true"
"null","null","psychophysics","337","457914","0.0-3.0-1.164","","key","null","16.71186440677966","756","446.5","","","","","","","",""
"823.9999999999418","arrowleft","psychophysics","338","458742","0.0-3.0-0.165","","key","arrowleft","16.73469387755102","756","446.5","166","6","1","24","15","25","35","false"
"null","null","psychophysics","339","459742","0.0-3.0-1.165","","key","null","16.728813559322035","756","446.5","","","","","","","",""
"618","arrowleft","psychophysics","340","460362","0.0-3.0-0.166","","key","arrowleft","16.805555555555557","756","446.5","167","6","-1","30","35","25","35","true"
"null","null","psychophysics","341","461363","0.0-3.0-1.166","","key","null","16.728813559322035","756","446.5","","","","","","","",""
"733","arrowleft","psychophysics","342","462100","0.0-3.0-0.167","","key","arrowleft","16.72093023255814","756","446.5","168","7","-1","27","15","25","35","true"
"null","null","psychophysics","343","463104","0.0-3.0-1.167","","key","null","16.677966101694917","756","446.5","","","","","","","",""
"3429.000000000058"," ","html-keyboard-response","344","466538","0.0-3.0-2.167-0.167","<div style=""color: white; text-align: center; vertical-align: top; display: inline-block; width: 800px; margin: auto""><p>You have completed 60% of the trials. You are on block 7 of 10. <br>Good job! Take a break if you need to.</p><p>Press any key to continue the experiment.</p></div>","","","","","","","","","","","","",""
"747","arrowleft","psychophysics","345","468294","0.0-3.0-0.168","","key","arrowleft","16.727272727272727","756","446.5","169","7","-1","26","15","25","35","true"
"null","null","psychophysics","346","469296","0.0-3.0-1.168","","key","null","16.694915254237287","756","446.5","","","","","","","",""
"544","arrowleft","psychophysics","347","469842","0.0-3.0-0.169","","key","arrowleft","16.8125","756","446.5","170","7","-1","26","15","25","35","true"
"null","null","psychophysics","348","470844","0.0-3.0-1.169","","key","null","16.71186440677966","756","446.5","","","","","","","",""
"779","arrowleft","psychophysics","349","471626","0.0-3.0-0.170","","key","arrowleft","16.76086956521739","756","446.5","171","7","-1","26","35","25","35","true"
"null","null","psychophysics","350","472628","0.0-3.0-1.170","","key","null","16.694915254237287","756","446.5","","","","","","","",""
"1488","arrowleft","psychophysics","351","474118","0.0-3.0-0.171","","key","arrowleft","16.681818181818183","756","446.5","172","7","-1","23","15","25","35","true"
"null","null","psychophysics","352","475121","0.0-3.0-1.171","","key","null","16.64406779661017","756","446.5","","","","","","","",""
"831","arrowright","psychophysics","353","475957","0.0-3.0-0.172","","key","arrowright","16.58","756","446.5","173","7","1","26","35","25","35","true"
"null","null","psychophysics","354","476959","0.0-3.0-1.172","","key","null","16.677966101694917","756","446.5","","","","","","","",""
"629.0000000000582","arrowright","psychophysics","355","477591","0.0-3.0-0.173","","key","arrowright","16.63888888888889","756","446.5","174","7","-1","24","35","25","35","false"
"null","null","psychophysics","356","478592","0.0-3.0-1.173","","key","null","16.583333333333332","756","446.5","","","","","","","",""
"724","arrowright","psychophysics","357","479319","0.0-3.0-0.174","","key","arrowright","16.714285714285715","756","446.5","175","7","1","26","35","25","35","true"
"null","null","psychophysics","358","480322","0.0-3.0-1.174","","key","null","16.661016949152543","756","446.5","","","","","","","",""
"533","arrowright","psychophysics","359","480859","0.0-3.0-0.175","","key","arrowright","16.59375","756","446.5","176","7","-1","23","35","25","35","false"
"null","null","psychophysics","360","481860","0.0-3.0-1.175","","key","null","16.728813559322035","756","446.5","","","","","","","",""
"1096","arrowright","psychophysics","361","482959","0.0-3.0-0.176","","key","arrowright","16.70769230769231","756","446.5","177","7","1","25","15","25","35","true"
"null","null","psychophysics","362","483960","0.0-3.0-1.176","","key","null","16.728813559322035","756","446.5","","","","","","","",""
"1112","arrowleft","psychophysics","363","485075","0.0-3.0-0.177","","key","arrowleft","16.727272727272727","756","446.5","178","7","1","27","15","25","35","false"
"null","null","psychophysics","364","486077","0.0-3.0-1.177","","key","null","16.71186440677966","756","446.5","","","","","","","",""
"1462.9999999999418","arrowright","psychophysics","365","487542","0.0-3.0-0.178","","key","arrowright","16.689655172413794","756","446.5","179","7","-1","20","15","25","35","false"
"null","null","psychophysics","366","488543","0.0-3.0-1.178","","key","null","16.728813559322035","756","446.5","","","","","","","",""
"3100","arrowright","psychophysics","367","491645","0.0-3.0-0.179","","key","arrowright","16.67027027027027","756","446.5","180","7","-1","25","35","25","35","false"
"null","null","psychophysics","368","492648","0.0-3.0-1.179","","key","null","16.728813559322035","756","446.5","","","","","","","",""
"886","arrowleft","psychophysics","369","493540","0.0-3.0-0.180","","key","arrowleft","16.673076923076923","756","446.5","181","7","-1","24","15","25","35","true"
"null","null","psychophysics","370","494542","0.0-3.0-1.180","","key","null","16.616666666666667","756","446.5","","","","","","","",""
"1332.0000000000582","arrowright","psychophysics","371","495877","0.0-3.0-0.181","","key","arrowright","16.72151898734177","756","446.5","182","7","1","30","15","25","35","true"
"null","null","psychophysics","372","496878","0.0-3.0-1.181","","key","null","16.694915254237287","756","446.5","","","","","","","",""
"608","arrowright","psychophysics","373","497488","0.0-3.0-0.182","","key","arrowright","16.685714285714287","756","446.5","183","7","1","30","35","25","35","true"
"null","null","psychophysics","374","498491","0.0-3.0-1.182","","key","null","16.65","756","446.5","","","","","","","",""
"552","arrowleft","psychophysics","375","499045","0.0-3.0-0.183","","key","arrowleft","16.8125","756","446.5","184","7","-1","30","15","25","35","true"
"null","null","psychophysics","376","500048","0.0-3.0-1.183","","key","null","16.694915254237287","756","446.5","","","","","","","",""
"486","arrowright","psychophysics","377","500539","0.0-3.0-0.184","","key","arrowright","16.724137931034484","756","446.5","185","7","1","30","15","25","35","true"
"null","null","psychophysics","378","501540","0.0-3.0-1.184","","key","null","16.71186440677966","756","446.5","","","","","","","",""
"483","arrowleft","psychophysics","379","502026","0.0-3.0-0.185","","key","arrowleft","16.821428571428573","756","446.5","186","7","1","20","15","25","35","false"
"null","null","psychophysics","380","503027","0.0-3.0-1.185","","key","null","16.728813559322035","756","446.5","","","","","","","",""
"524","arrowright","psychophysics","381","503553","0.0-3.0-0.186","","key","arrowright","16.733333333333334","756","446.5","187","7","-1","26","35","25","35","false"
"null","null","psychophysics","382","504558","0.0-3.0-1.186","","key","null","16.666666666666668","756","446.5","","","","","","","",""
"831","arrowleft","psychophysics","383","505391","0.0-3.0-0.187","","key","arrowleft","16.693877551020407","756","446.5","188","7","1","23","35","25","35","false"
"null","null","psychophysics","384","506392","0.0-3.0-1.187","","key","null","16.728813559322035","756","446.5","","","","","","","",""
"2149","arrowleft","psychophysics","385","508544","0.0-3.0-0.188","","key","arrowleft","16.703125","756","446.5","189","7","1","26","35","25","35","false"
"null","null","psychophysics","386","509546","0.0-3.0-1.188","","key","null","16.728813559322035","756","446.5","","","","","","","",""
"613.9999999999418","arrowleft","psychophysics","387","510164","0.0-3.0-0.189","","key","arrowleft","16.805555555555557","756","446.5","190","7","1","23","15","25","35","false"
"null","null","psychophysics","388","511167","0.0-3.0-1.189","","key","null","16.71186440677966","756","446.5","","","","","","","",""
"2120","arrowleft","psychophysics","389","513292","0.0-3.0-0.190","","key","arrowleft","16.68503937007874","756","446.5","191","7","1","24","35","25","35","false"
"null","null","psychophysics","390","514294","0.0-3.0-1.190","","key","null","16.694915254237287","756","446.5","","","","","","","",""
"803.9999999999418","arrowleft","psychophysics","391","515101","0.0-3.0-0.191","","key","arrowleft","16.70212765957447","756","446.5","192","7","1","26","35","25","35","false"
"null","null","psychophysics","392","516106","0.0-3.0-1.191","","key","null","16.583333333333332","756","446.5","","","","","","","",""
"918","arrowleft","psychophysics","393","517027","0.0-3.0-0.192","","key","arrowleft","16.666666666666668","756","446.5","193","7","-1","30","15","25","35","true"
"null","null","psychophysics","394","518029","0.0-3.0-1.192","","key","null","16.728813559322035","756","446.5","","","","","","","",""
"663.9999999999418","arrowleft","psychophysics","395","518697","0.0-3.0-0.193","","key","arrowleft","16.76923076923077","756","446.5","194","7","1","25","15","25","35","false"
"null","null","psychophysics","396","519700","0.0-3.0-1.193","","key","null","16.71186440677966","756","446.5","","","","","","","",""
"1375.9999999999418","arrowleft","psychophysics","397","521082","0.0-3.0-0.194","","key","arrowleft","16.670731707317074","756","446.5","195","7","-1","27","15","25","35","true"
"null","null","psychophysics","398","522085","0.0-3.0-1.194","","key","null","16.627118644067796","756","446.5","","","","","","","",""
"867.9999999998836","arrowleft","psychophysics","399","522959","0.0-3.0-0.195","","key","arrowleft","16.73076923076923","756","446.5","196","8","-1","26","15","25","35","true"
"null","null","psychophysics","400","523961","0.0-3.0-1.195","","key","null","16.71186440677966","756","446.5","","","","","","","",""
"2520"," ","html-keyboard-response","401","526482","0.0-3.0-2.195-0.195","<div style=""color: white; text-align: center; vertical-align: top; display: inline-block; width: 800px; margin: auto""><p>You have completed 70% of the trials. You are on block 8 of 10. <br>Good job! Take a break if you need to.</p><p>Press any key to continue the experiment.</p></div>","","","","","","","","","","","","",""
"741.0000000001164","arrowright","psychophysics","402","528229","0.0-3.0-0.196","","key","arrowright","16.704545454545453","756","446.5","197","8","1","30","15","25","35","true"
"null","null","psychophysics","403","529231","0.0-3.0-1.196","","key","null","16.694915254237287","756","446.5","","","","","","","",""
"472","arrowright","psychophysics","404","529707","0.0-3.0-0.197","","key","arrowright","16.75","756","446.5","198","8","1","26","35","25","35","true"
"null","null","psychophysics","405","530708","0.0-3.0-1.197","","key","null","16.71186440677966","756","446.5","","","","","","","",""
"813","arrowright","psychophysics","406","531525","0.0-3.0-0.198","","key","arrowright","16.729166666666668","756","446.5","199","8","-1","24","35","25","35","false"
"null","null","psychophysics","407","532527","0.0-3.0-1.198","","key","null","16.694915254237287","756","446.5","","","","","","","",""
"909","arrowleft","psychophysics","408","533438","0.0-3.0-0.199","","key","arrowleft","16.660377358490567","756","446.5","200","8","-1","25","15","25","35","true"
"null","null","psychophysics","409","534440","0.0-3.0-1.199","","key","null","16.616666666666667","756","446.5","","","","","","","",""
"1342","arrowleft","psychophysics","410","535785","0.0-3.0-0.200","","key","arrowleft","16.70886075949367","756","446.5","201","8","-1","26","35","25","35","true"
"null","null","psychophysics","411","536788","0.0-3.0-1.200","","key","null","16.627118644067796","756","446.5","","","","","","","",""
"1064","arrowleft","psychophysics","412","537857","0.0-3.0-0.201","","key","arrowleft","16.61904761904762","756","446.5","202","8","-1","27","35","25","35","true"
"null","null","psychophysics","413","538859","0.0-3.0-1.201","","key","null","16.6","756","446.5","","","","","","","",""
"748","arrowleft","psychophysics","414","539610","0.0-3.0-0.202","","key","arrowleft","16.681818181818183","756","446.5","203","8","1","20","35","25","35","false"
"null","null","psychophysics","415","540613","0.0-3.0-1.202","","key","null","16.677966101694917","756","446.5","","","","","","","",""
"1134","arrowleft","psychophysics","416","541749","0.0-3.0-0.203","","key","arrowleft","16.671641791044777","756","446.5","204","8","-1","24","15","25","35","true"
"null","null","psychophysics","417","542751","0.0-3.0-1.203","","key","null","16.677966101694917","756","446.5","","","","","","","",""
"1548","arrowleft","psychophysics","418","544304","0.0-3.0-0.204","","key","arrowleft","16.66304347826087","756","446.5","205","8","1","24","35","25","35","false"
"null","null","psychophysics","419","545309","0.0-3.0-1.204","","key","null","16.65","756","446.5","","","","","","","",""
"996.9999999998836","arrowright","psychophysics","420","546308","0.0-3.0-0.205","","key","arrowright","16.74576271186441","756","446.5","206","8","-1","20","15","25","35","false"
"null","null","psychophysics","421","547311","0.0-3.0-1.205","","key","null","16.694915254237287","756","446.5","","","","","","","",""
"2308","arrowright","psychophysics","422","549624","0.0-3.0-0.206","","key","arrowright","16.686131386861312","756","446.5","207","8","-1","25","15","25","35","false"
"null","null","psychophysics","423","550626","0.0-3.0-1.206","","key","null","16.55","756","446.5","","","","","","","",""
"672","arrowleft","psychophysics","424","551302","0.0-3.0-0.207","","key","arrowleft","16.71794871794872","756","446.5","208","8","-1","30","35","25","35","true"
"null","null","psychophysics","425","552305","0.0-3.0-1.207","","key","null","16.627118644067796","756","446.5","","","","","","","",""
"824.0000000001164","arrowleft","psychophysics","426","553133","0.0-3.0-0.208","","key","arrowleft","16.612244897959183","756","446.5","209","8","-1","27","15","25","35","true"
"null","null","psychophysics","427","554136","0.0-3.0-1.208","","key","null","16.627118644067796","756","446.5","","","","","","","",""
"683","arrowright","psychophysics","428","554826","0.0-3.0-0.209","","key","arrowright","16.75609756097561","756","446.5","210","8","1","27","35","25","35","true"
"null","null","psychophysics","429","555829","0.0-3.0-1.209","","key","null","16.694915254237287","756","446.5","","","","","","","",""
"2058","arrowleft","psychophysics","430","557891","0.0-3.0-0.210","","key","arrowleft","16.691056910569106","756","446.5","211","8","-1","24","15","25","35","true"
"null","null","psychophysics","431","558892","0.0-3.0-1.210","","key","null","16.64406779661017","756","446.5","","","","","","","",""
"710","arrowright","psychophysics","432","559605","0.0-3.0-0.211","","key","arrowright","16.658536585365855","756","446.5","212","8","1","24","15","25","35","true"
"null","null","psychophysics","433","560608","0.0-3.0-1.211","","key","null","16.65","756","446.5","","","","","","","",""
"539","arrowright","psychophysics","434","561149","0.0-3.0-0.212","","key","arrowright","16.838709677419356","756","446.5","213","8","1","30","35","25","35","true"
"null","null","psychophysics","435","562150","0.0-3.0-1.212","","key","null","16.627118644067796","756","446.5","","","","","","","",""
"1090","arrowleft","psychophysics","436","563243","0.0-3.0-0.213","","key","arrowleft","16.753846153846155","756","446.5","214","8","-1","24","15","25","35","true"
"null","null","psychophysics","437","564245","0.0-3.0-1.213","","key","null","16.71186440677966","756","446.5","","","","","","","",""
"511","arrowright","psychophysics","438","564757","0.0-3.0-0.214","","key","arrowright","16.7","756","446.5","215","8","-1","20","15","25","35","false"
"null","null","psychophysics","439","565759","0.0-3.0-1.214","","key","null","16.694915254237287","756","446.5","","","","","","","",""
"594","arrowleft","psychophysics","440","566355","0.0-3.0-0.215","","key","arrowleft","16.647058823529413","756","446.5","216","8","-1","30","35","25","35","true"
"null","null","psychophysics","441","567360","0.0-3.0-1.215","","key","null","16.65","756","446.5","","","","","","","",""
"936","arrowleft","psychophysics","442","568298","0.0-3.0-0.216","","key","arrowleft","16.727272727272727","756","446.5","217","8","-1","27","15","25","35","true"
"null","null","psychophysics","443","569301","0.0-3.0-1.216","","key","null","16.71186440677966","756","446.5","","","","","","","",""
"570","arrowright","psychophysics","444","569874","0.0-3.0-0.217","","key","arrowright","16.735294117647058","756","446.5","218","8","1","26","35","25","35","true"
"null","null","psychophysics","445","570877","0.0-3.0-1.217","","key","null","16.694915254237287","756","446.5","","","","","","","",""
"566","arrowright","psychophysics","446","571446","0.0-3.0-0.218","","key","arrowright","16.78787878787879","756","446.5","219","8","1","27","35","25","35","true"
"null","null","psychophysics","447","572449","0.0-3.0-1.218","","key","null","16.694915254237287","756","446.5","","","","","","","",""
"515","arrowright","psychophysics","448","572969","0.0-3.0-0.219","","key","arrowright","16.766666666666666","756","446.5","220","8","1","30","35","25","35","true"
"null","null","psychophysics","449","573971","0.0-3.0-1.219","","key","null","16.593220338983052","756","446.5","","","","","","","",""
"735.0000000001164","arrowleft","psychophysics","450","574710","0.0-3.0-0.220","","key","arrowleft","16.636363636363637","756","446.5","221","8","-1","27","35","25","35","true"
"null","null","psychophysics","451","575712","0.0-3.0-1.220","","key","null","16.71186440677966","756","446.5","","","","","","","",""
"578","arrowright","psychophysics","452","576292","0.0-3.0-0.221","","key","arrowright","16.735294117647058","756","446.5","222","8","-1","20","35","25","35","false"
"null","null","psychophysics","453","577293","0.0-3.0-1.221","","key","null","16.71186440677966","756","446.5","","","","","","","",""
"594","arrowleft","psychophysics","454","577890","0.0-3.0-0.222","","key","arrowleft","16.735294117647058","756","446.5","223","8","1","23","35","25","35","false"
"null","null","psychophysics","455","578892","0.0-3.0-1.222","","key","null","16.633333333333333","756","446.5","","","","","","","",""
"524","arrowright","psychophysics","456","579420","0.0-3.0-0.223","","key","arrowright","16.766666666666666","756","446.5","224","9","1","30","15","25","35","true"
"null","null","psychophysics","457","580425","0.0-3.0-1.223","","key","null","16.666666666666668","756","446.5","","","","","","","",""
"4107.999999999884"," ","html-keyboard-response","458","584534","0.0-3.0-2.223-0.223","<div style=""color: white; text-align: center; vertical-align: top; display: inline-block; width: 800px; margin: auto""><p>You have completed 80% of the trials. You are on block 9 of 10. <br>Good job! Take a break if you need to.</p><p>Press any key to continue the experiment.</p></div>","","","","","","","","","","","","",""
"770","arrowright","psychophysics","459","586310","0.0-3.0-0.224","","key","arrowright","16.866666666666667","756","446.5","225","9","1","23","35","25","35","true"
"null","null","psychophysics","460","587312","0.0-3.0-1.224","","key","null","16.728813559322035","756","446.5","","","","","","","",""
"546","arrowright","psychophysics","461","587860","0.0-3.0-0.225","","key","arrowright","16.625","756","446.5","226","9","-1","20","35","25","35","false"
"null","null","psychophysics","462","588862","0.0-3.0-1.225","","key","null","16.71186440677966","756","446.5","","","","","","","",""
"660","arrowright","psychophysics","463","589524","0.0-3.0-0.226","","key","arrowright","16.743589743589745","756","446.5","227","9","-1","25","35","25","35","false"
"null","null","psychophysics","464","590526","0.0-3.0-1.226","","key","null","16.728813559322035","756","446.5","","","","","","","",""
"564","arrowleft","psychophysics","465","591092","0.0-3.0-0.227","","key","arrowleft","16.818181818181817","756","446.5","228","9","1","23","15","25","35","false"
"null","null","psychophysics","466","592094","0.0-3.0-1.227","","key","null","16.677966101694917","756","446.5","","","","","","","",""
"565","arrowleft","psychophysics","467","592662","0.0-3.0-0.228","","key","arrowleft","16.727272727272727","756","446.5","229","9","-1","30","15","25","35","true"
"null","null","psychophysics","468","593664","0.0-3.0-1.228","","key","null","16.71186440677966","756","446.5","","","","","","","",""
"499","arrowright","psychophysics","469","594168","0.0-3.0-0.229","","key","arrowright","16.79310344827586","756","446.5","230","9","-1","23","15","25","35","false"
"null","null","psychophysics","470","595172","0.0-3.0-1.229","","key","null","16.677966101694917","756","446.5","","","","","","","",""
"715","arrowleft","psychophysics","471","595892","0.0-3.0-0.230","","key","arrowleft","16.58139534883721","756","446.5","231","9","1","23","35","25","35","false"
"null","null","psychophysics","472","596893","0.0-3.0-1.230","","key","null","16.677966101694917","756","446.5","","","","","","","",""
"647","arrowright","psychophysics","473","597543","0.0-3.0-0.231","","key","arrowright","16.736842105263158","756","446.5","232","9","-1","25","35","25","35","false"
"null","null","psychophysics","474","598545","0.0-3.0-1.231","","key","null","16.71186440677966","756","446.5","","","","","","","",""
"680","arrowleft","psychophysics","475","599227","0.0-3.0-0.232","","key","arrowleft","16.8","756","446.5","233","9","-1","27","15","25","35","true"
"null","null","psychophysics","476","600228","0.0-3.0-1.232","","key","null","16.677966101694917","756","446.5","","","","","","","",""
"1094.0000000001164","arrowleft","psychophysics","477","601325","0.0-3.0-0.233","","key","arrowleft","16.723076923076924","756","446.5","234","9","-1","26","35","25","35","true"
"null","null","psychophysics","478","602328","0.0-3.0-1.233","","key","null","16.728813559322035","756","446.5","","","","","","","",""
"1762","arrowright","psychophysics","479","604094","0.0-3.0-0.234","","key","arrowright","16.685714285714287","756","446.5","235","9","-1","20","15","25","35","false"
"null","null","psychophysics","480","605096","0.0-3.0-1.234","","key","null","16.694915254237287","756","446.5","","","","","","","",""
"562","arrowleft","psychophysics","481","605661","0.0-3.0-0.235","","key","arrowleft","16.727272727272727","756","446.5","236","9","-1","30","15","25","35","true"
"null","null","psychophysics","482","606662","0.0-3.0-1.235","","key","null","16.728813559322035","756","446.5","","","","","","","",""
"904","arrowright","psychophysics","483","607570","0.0-3.0-0.236","","key","arrowright","16.735849056603772","756","446.5","237","9","1","27","15","25","35","true"
"null","null","psychophysics","484","608574","0.0-3.0-1.236","","key","null","16.65","756","446.5","","","","","","","",""
"641","arrowleft","psychophysics","485","609218","0.0-3.0-0.237","","key","arrowleft","16.756756756756758","756","446.5","238","9","-1","26","15","25","35","true"
"null","null","psychophysics","486","610223","0.0-3.0-1.237","","key","null","16.616666666666667","756","446.5","","","","","","","",""
"1650","arrowleft","psychophysics","487","611877","0.0-3.0-0.238","","key","arrowleft","16.693877551020407","756","446.5","239","9","-1","23","15","25","35","true"
"null","null","psychophysics","488","612879","0.0-3.0-1.238","","key","null","16.694915254237287","756","446.5","","","","","","","",""
"707.9999999998836","arrowleft","psychophysics","489","613591","0.0-3.0-0.239","","key","arrowleft","16.761904761904763","756","446.5","240","9","1","24","35","25","35","false"
"null","null","psychophysics","490","614592","0.0-3.0-1.239","","key","null","16.71186440677966","756","446.5","","","","","","","",""
"1230.0000000001164","arrowright","psychophysics","491","615825","0.0-3.0-0.240","","key","arrowright","16.684931506849313","756","446.5","241","9","1","24","15","25","35","true"
"null","null","psychophysics","492","616826","0.0-3.0-1.240","","key","null","16.728813559322035","756","446.5","","","","","","","",""
"1604","arrowright","psychophysics","493","618433","0.0-3.0-0.241","","key","arrowright","16.694736842105264","756","446.5","242","9","1","24","35","25","35","true"
"null","null","psychophysics","494","619436","0.0-3.0-1.241","","key","null","16.71186440677966","756","446.5","","","","","","","",""
"543","arrowleft","psychophysics","495","619986","0.0-3.0-0.242","","key","arrowleft","16.59375","756","446.5","243","9","1","27","15","25","35","false"
"null","null","psychophysics","496","620989","0.0-3.0-1.242","","key","null","16.583333333333332","756","446.5","","","","","","","",""
"2065","arrowleft","psychophysics","497","623057","0.0-3.0-0.243","","key","arrowleft","16.691056910569106","756","446.5","244","9","1","25","35","25","35","false"
"null","null","psychophysics","498","624062","0.0-3.0-1.243","","key","null","16.689655172413794","756","446.5","","","","","","","",""
"928","arrowleft","psychophysics","499","624997","0.0-3.0-0.244","","key","arrowleft","16.553571428571427","756","446.5","245","9","1","20","15","25","35","false"
"null","null","psychophysics","500","625999","0.0-3.0-1.244","","key","null","16.728813559322035","756","446.5","","","","","","","",""
"768","arrowleft","psychophysics","501","626774","0.0-3.0-0.245","","key","arrowleft","16.652173913043477","756","446.5","246","9","-1","20","35","25","35","true"
"null","null","psychophysics","502","627775","0.0-3.0-1.245","","key","null","16.71186440677966","756","446.5","","","","","","","",""
"663","arrowleft","psychophysics","503","628441","0.0-3.0-0.246","","key","arrowleft","16.71794871794872","756","446.5","247","9","1","24","35","25","35","false"
"null","null","psychophysics","504","629442","0.0-3.0-1.246","","key","null","16.694915254237287","756","446.5","","","","","","","",""
"780","arrowleft","psychophysics","505","630224","0.0-3.0-0.247","","key","arrowleft","16.717391304347824","756","446.5","248","9","-1","25","35","25","35","true"
"null","null","psychophysics","506","631226","0.0-3.0-1.247","","key","null","16.677966101694917","756","446.5","","","","","","","",""
"596","arrowleft","psychophysics","507","631826","0.0-3.0-0.248","","key","arrowleft","16.771428571428572","756","446.5","249","9","-1","26","35","25","35","true"
"null","null","psychophysics","508","632828","0.0-3.0-1.248","","key","null","16.677966101694917","756","446.5","","","","","","","",""
"775","arrowright","psychophysics","509","633607","0.0-3.0-0.249","","key","arrowright","16.695652173913043","756","446.5","250","9","-1","26","35","25","35","false"
"null","null","psychophysics","510","634609","0.0-3.0-1.249","","key","null","16.74576271186441","756","446.5","","","","","","","",""
"926","arrowleft","psychophysics","511","635537","0.0-3.0-0.250","","key","arrowleft","16.74074074074074","756","446.5","251","9","1","25","15","25","35","false"
"null","null","psychophysics","512","636540","0.0-3.0-1.250","","key","null","16.661016949152543","756","446.5","","","","","","","",""
"565","arrowleft","psychophysics","513","637108","0.0-3.0-0.251","","key","arrowleft","16.558823529411764","756","446.5","252","10","-1","20","15","25","35","true"
"null","null","psychophysics","514","638109","0.0-3.0-1.251","","key","null","16.728813559322035","756","446.5","","","","","","","",""
"1819"," ","html-keyboard-response","515","639929","0.0-3.0-2.251-0.251","<div style=""color: white; text-align: center; vertical-align: top; display: inline-block; width: 800px; margin: auto""><p>You have completed 90% of the trials. You are on block 10 of 10. <br>Good job! Take a break if you need to.</p><p>Press any key to continue the experiment.</p></div>","","","","","","","","","","","","",""
"847.9999999998836","arrowright","psychophysics","516","641784","0.0-3.0-0.252","","key","arrowright","16.74","756","446.5","253","10","-1","24","35","25","35","false"
"null","null","psychophysics","517","642787","0.0-3.0-1.252","","key","null","16.71186440677966","756","446.5","","","","","","","",""
"605","arrowleft","psychophysics","518","643394","0.0-3.0-0.253","","key","arrowleft","16.742857142857144","756","446.5","254","10","1","20","35","25","35","false"
"null","null","psychophysics","519","644397","0.0-3.0-1.253","","key","null","16.74576271186441","756","446.5","","","","","","","",""
"651.9999999998836","arrowleft","psychophysics","520","645054","0.0-3.0-0.254","","key","arrowleft","16.710526315789473","756","446.5","255","10","-1","30","35","25","35","true"
"null","null","psychophysics","521","646058","0.0-3.0-1.254","","key","null","16.65","756","446.5","","","","","","","",""
"645.0000000001164","arrowleft","psychophysics","522","646705","0.0-3.0-0.255","","key","arrowleft","16.72972972972973","756","446.5","256","10","-1","30","35","25","35","true"
"null","null","psychophysics","523","647707","0.0-3.0-1.255","","key","null","16.6","756","446.5","","","","","","","",""
"1482","arrowright","psychophysics","524","649193","0.0-3.0-0.256","","key","arrowright","16.704545454545453","756","446.5","257","10","-1","24","15","25","35","false"
"null","null","psychophysics","525","650195","0.0-3.0-1.256","","key","null","16.728813559322035","756","446.5","","","","","","","",""
"634","arrowright","psychophysics","526","650832","0.0-3.0-0.257","","key","arrowright","16.72972972972973","756","446.5","258","10","-1","23","35","25","35","false"
"null","null","psychophysics","527","651834","0.0-3.0-1.257","","key","null","16.71186440677966","756","446.5","","","","","","","",""
"772","arrowright","psychophysics","528","652611","0.0-3.0-0.258","","key","arrowright","16.652173913043477","756","446.5","259","10","-1","20","35","25","35","false"
"null","null","psychophysics","529","653612","0.0-3.0-1.258","","key","null","16.728813559322035","756","446.5","","","","","","","",""
"529","arrowright","psychophysics","530","654146","0.0-3.0-0.259","","key","arrowright","16.838709677419356","756","446.5","260","10","-1","24","35","25","35","false"
"null","null","psychophysics","531","655149","0.0-3.0-1.259","","key","null","16.661016949152543","756","446.5","","","","","","","",""
"814","arrowleft","psychophysics","532","655969","0.0-3.0-0.260","","key","arrowleft","16.666666666666668","756","446.5","261","10","-1","23","15","25","35","true"
"null","null","psychophysics","533","656972","0.0-3.0-1.260","","key","null","16.627118644067796","756","446.5","","","","","","","",""
"501","arrowleft","psychophysics","534","657477","0.0-3.0-0.261","","key","arrowleft","16.5","756","446.5","262","10","1","20","15","25","35","false"
"null","null","psychophysics","535","658478","0.0-3.0-1.261","","key","null","16.71186440677966","756","446.5","","","","","","","",""
"1275","arrowright","psychophysics","536","659756","0.0-3.0-0.262","","key","arrowright","16.68421052631579","756","446.5","263","10","-1","23","15","25","35","false"
"null","null","psychophysics","537","660758","0.0-3.0-1.262","","key","null","16.728813559322035","756","446.5","","","","","","","",""
"698","arrowleft","psychophysics","538","661457","0.0-3.0-0.263","","key","arrowleft","16.73170731707317","756","446.5","264","10","-1","27","35","25","35","true"
"null","null","psychophysics","539","662458","0.0-3.0-1.263","","key","null","16.71186440677966","756","446.5","","","","","","","",""
"564","arrowleft","psychophysics","540","663026","0.0-3.0-0.264","","key","arrowleft","16.727272727272727","756","446.5","265","10","-1","30","15","25","35","true"
"null","null","psychophysics","541","664028","0.0-3.0-1.264","","key","null","16.677966101694917","756","446.5","","","","","","","",""
"824.0000000001164","arrowright","psychophysics","542","664854","0.0-3.0-0.265","","key","arrowright","16.708333333333332","756","446.5","266","10","-1","24","15","25","35","false"
"null","null","psychophysics","543","665857","0.0-3.0-1.265","","key","null","16.633333333333333","756","446.5","","","","","","","",""
"530","arrowleft","psychophysics","544","666391","0.0-3.0-0.266","","key","arrowleft","16.741935483870968","756","446.5","267","10","1","25","15","25","35","false"
"null","null","psychophysics","545","667392","0.0-3.0-1.266","","key","null","16.694915254237287","756","446.5","","","","","","","",""
"571","arrowright","psychophysics","546","667966","0.0-3.0-0.267","","key","arrowright","16.757575757575758","756","446.5","268","10","1","26","35","25","35","true"
"null","null","psychophysics","547","668969","0.0-3.0-1.267","","key","null","16.71186440677966","756","446.5","","","","","","","",""
"509","arrowleft","psychophysics","548","669491","0.0-3.0-0.268","","key","arrowleft","16.580645161290324","756","446.5","269","10","1","23","15","25","35","false"
"null","null","psychophysics","549","670493","0.0-3.0-1.268","","key","null","16.728813559322035","756","446.5","","","","","","","",""
"693","arrowright","psychophysics","550","671189","0.0-3.0-0.269","","key","arrowright","16.675","756","446.5","270","10","-1","20","35","25","35","false"
"null","null","psychophysics","551","672191","0.0-3.0-1.269","","key","null","16.65","756","446.5","","","","","","","",""
"692","arrowleft","psychophysics","552","672886","0.0-3.0-0.270","","key","arrowleft","16.725","756","446.5","271","10","1","20","35","25","35","false"
"null","null","psychophysics","553","673890","0.0-3.0-1.270","","key","null","16.694915254237287","756","446.5","","","","","","","",""
"496","arrowleft","psychophysics","554","674389","0.0-3.0-0.271","","key","arrowleft","16.517241379310345","756","446.5","272","10","1","26","15","25","35","false"
"null","null","psychophysics","555","675392","0.0-3.0-1.271","","key","null","16.6","756","446.5","","","","","","","",""
"548","arrowleft","psychophysics","556","675942","0.0-3.0-0.272","","key","arrowleft","16.6875","756","446.5","273","10","1","20","15","25","35","false"
"null","null","psychophysics","557","676943","0.0-3.0-1.272","","key","null","16.728813559322035","756","446.5","","","","","","","",""
"632","arrowleft","psychophysics","558","677577","0.0-3.0-0.273","","key","arrowleft","16.756756756756758","756","446.5","274","10","-1","27","15","25","35","true"
"null","null","psychophysics","559","678578","0.0-3.0-1.273","","key","null","16.71186440677966","756","446.5","","","","","","","",""
"646.9999999998836","arrowleft","psychophysics","560","679228","0.0-3.0-0.274","","key","arrowleft","16.736842105263158","756","446.5","275","10","-1","27","15","25","35","true"
"null","null","psychophysics","561","680229","0.0-3.0-1.274","","key","null","16.71186440677966","756","446.5","","","","","","","",""
"560","arrowleft","psychophysics","562","680793","0.0-3.0-0.275","","key","arrowleft","16.696969696969695","756","446.5","276","10","-1","30","15","25","35","true"
"null","null","psychophysics","563","681795","0.0-3.0-1.275","","key","null","16.728813559322035","756","446.5","","","","","","","",""
"550","arrowright","psychophysics","564","682346","0.0-3.0-0.276","","key","arrowright","16.8125","756","446.5","277","10","-1","20","35","25","35","false"
"null","null","psychophysics","565","683348","0.0-3.0-1.276","","key","null","16.694915254237287","756","446.5","","","","","","","",""
"542","arrowright","psychophysics","566","683892","0.0-3.0-0.277","","key","arrowright","16.78125","756","446.5","278","10","1","30","35","25","35","true"
"null","null","psychophysics","567","684893","0.0-3.0-1.277","","key","null","16.694915254237287","756","446.5","","","","","","","",""
"565.0000000001164","arrowright","psychophysics","568","685460","0.0-3.0-0.278","","key","arrowright","16.666666666666668","756","446.5","279","10","1","27","35","25","35","true"
"null","null","psychophysics","569","686462","0.0-3.0-1.278","","key","null","16.71186440677966","756","446.5","","","","","","","",""
"479","arrowleft","psychophysics","570","686945","0.0-3.0-0.279","","key","arrowleft","16.75","756","446.5","280","11","1","20","15","25","35","false"
"null","null","psychophysics","571","687946","0.0-3.0-1.279","","key","null","16.677966101694917","756","446.5","","","","","","","",""
