rt,response,trial_type,trial_index,time_elapsed,internal_node_id,stimulus,response_type,key_press,avg_frame_time,center_x,center_y,trial,block,test_pos,test_inner_radius,test_outer_radius,ref_inner_radius,ref_outer_radius,test_bigger
177254.3,"{""p_id"":""8147"",""age"":""19"",""handedness"":""right"",""sex"":""male"",""other_sex"":""""}",survey-html-form,0,177257,0.0-0.0,,,,,,,,,,,,,,
9838.5, ,html-keyboard-response,1,187096,0.0-1.0,"<p style=""color: white"">Welcome to the Size Judgment Experiment. <br>There will be 10 blocks in this experiment. <br>There will be 28 trials in each block. <br>You will be given a chance to take a break between blocks. <br>Press any key to start the experiment.</p>",,,,,,,,,,,,,
21269, ,psychophysics,2,208379,0.0-2.0,,key, ,16.66769514,1280,664.5,,,,,,,,
3632.7,arrowright,psychophysics,3,212025,0.0-3.0-0.0,,key,arrowright,16.66786239,1280,664.5,1,1,1,25,35,25,35,TRUE
null,null,psychophysics,4,213030,0.0-3.0-1.0,,key,null,16.66901695,1280,664.5,,,,,,,,
1415.6,arrowleft,psychophysics,5,214458,0.0-3.0-0.1,,key,arrowleft,16.67292941,1280,664.5,2,1,-1,30,35,25,35,TRUE
null,null,psychophysics,6,215461,0.0-3.0-1.1,,key,null,16.66911864,1280,664.5,,,,,,,,
1055.6,arrowright,psychophysics,7,216522,0.0-3.0-0.2,,key,arrowright,16.66792063,1280,664.5,3,1,-1,26,35,25,35,FALSE
null,null,psychophysics,8,217526,0.0-3.0-1.2,,key,null,16.66889831,1280,664.5,,,,,,,,
702.4,arrowright,psychophysics,9,218233,0.0-3.0-0.3,,key,arrowright,16.66647619,1280,664.5,4,1,1,27,15,25,35,TRUE
null,null,psychophysics,10,219238,0.0-3.0-1.3,,key,null,16.66501695,1280,664.5,,,,,,,,
3120.3,arrowleft,psychophysics,11,222361,0.0-3.0-0.4,,key,arrowleft,16.66898387,1280,664.5,5,1,-1,25,35,25,35,TRUE
null,null,psychophysics,12,223365,0.0-3.0-1.4,,key,null,16.667,1280,664.5,,,,,,,,
3642,arrowleft,psychophysics,13,227018,0.0-3.0-0.5,,key,arrowleft,16.6673653,1280,664.5,6,1,1,24,35,25,35,FALSE
null,null,psychophysics,14,228022,0.0-3.0-1.5,,key,null,16.66762712,1280,664.5,,,,,,,,
1119.8,arrowright,psychophysics,15,229146,0.0-3.0-0.6,,key,arrowright,16.6670303,1280,664.5,7,1,-1,20,35,25,35,FALSE
null,null,psychophysics,16,230149,0.0-3.0-1.6,,key,null,16.66844068,1280,664.5,,,,,,,,
1498.2,arrowleft,psychophysics,17,231657,0.0-3.0-0.7,,key,arrowleft,16.66893333,1280,664.5,8,1,1,23,15,25,35,FALSE
null,null,psychophysics,18,232662,0.0-3.0-1.7,,key,null,16.6700678,1280,664.5,,,,,,,,
3871.1,arrowleft,psychophysics,19,236538,0.0-3.0-0.8,,key,arrowleft,16.66796983,1280,664.5,9,1,-1,25,15,25,35,TRUE
null,null,psychophysics,20,237541,0.0-3.0-1.8,,key,null,16.66833898,1280,664.5,,,,,,,,
689.6,arrowright,psychophysics,21,238235,0.0-3.0-0.9,,key,arrowright,16.66390244,1280,664.5,10,1,-1,20,15,25,35,FALSE
null,null,psychophysics,22,239246,0.0-3.0-1.9,,key,null,16.67016949,1280,664.5,,,,,,,,
662.6,arrowleft,psychophysics,23,239913,0.0-3.0-0.10,,key,arrowleft,16.66874359,1280,664.5,11,1,-1,27,15,25,35,TRUE
null,null,psychophysics,24,240916,0.0-3.0-1.10,,key,null,16.6660339,1280,664.5,,,,,,,,
1661.4,arrowleft,psychophysics,25,242585,0.0-3.0-0.11,,key,arrowleft,16.66828,1280,664.5,12,1,1,26,35,25,35,FALSE
null,null,psychophysics,26,243590,0.0-3.0-1.11,,key,null,16.667,1280,664.5,,,,,,,,
2684.9,arrowright,psychophysics,27,246280,0.0-3.0-0.12,,key,arrowright,16.6657125,1280,664.5,13,1,-1,23,15,25,35,FALSE
null,null,psychophysics,28,247283,0.0-3.0-1.12,,key,null,16.66964407,1280,664.5,,,,,,,,
1904.2,arrowright,psychophysics,29,249193,0.0-3.0-0.13,,key,arrowright,16.66635088,1280,664.5,14,1,1,26,35,25,35,TRUE
null,null,psychophysics,30,250198,0.0-3.0-1.13,,key,null,16.66686441,1280,664.5,,,,,,,,
2446.4,arrowright,psychophysics,31,252649,0.0-3.0-0.14,,key,arrowright,16.66764384,1280,664.5,15,1,1,27,35,25,35,TRUE
null,null,psychophysics,32,253652,0.0-3.0-1.14,,key,null,16.6696,1280,664.5,,,,,,,,
3217.2,arrowright,psychophysics,33,256874,0.0-3.0-0.15,,key,arrowright,16.66766667,1280,664.5,16,1,-1,24,35,25,35,FALSE
null,null,psychophysics,34,257877,0.0-3.0-1.15,,key,null,16.67477966,1280,664.5,,,,,,,,
1568.1,arrowright,psychophysics,35,259449,0.0-3.0-0.16,,key,arrowright,16.66587097,1280,664.5,17,1,1,30,15,25,35,TRUE
null,null,psychophysics,36,260452,0.0-3.0-1.16,,key,null,16.6725,1280,664.5,,,,,,,,
1039.7,arrowleft,psychophysics,37,261497,0.0-3.0-0.17,,key,arrowleft,16.6674918,1280,664.5,18,1,1,24,15,25,35,FALSE
null,null,psychophysics,38,262501,0.0-3.0-1.17,,key,null,16.66681356,1280,664.5,,,,,,,,
1770.6,arrowright,psychophysics,39,264281,0.0-3.0-0.18,,key,arrowright,16.66633019,1280,664.5,19,1,1,30,35,25,35,TRUE
null,null,psychophysics,40,265284,0.0-3.0-1.18,,key,null,16.67522034,1280,664.5,,,,,,,,
1179.2,arrowleft,psychophysics,41,266474,0.0-3.0-0.19,,key,arrowleft,16.66412676,1280,664.5,20,1,-1,24,35,25,35,TRUE
null,null,psychophysics,42,267478,0.0-3.0-1.19,,key,null,16.67125424,1280,664.5,,,,,,,,
721.3,arrowleft,psychophysics,43,268203,0.0-3.0-0.20,,key,arrowleft,16.66597674,1280,664.5,21,1,-1,30,15,25,35,TRUE
null,null,psychophysics,44,269213,0.0-3.0-1.20,,key,null,16.66644068,1280,664.5,,,,,,,,
742.4,arrowright,psychophysics,45,269960,0.0-3.0-0.21,,key,arrowright,16.66781818,1280,664.5,22,1,1,27,15,25,35,TRUE
null,null,psychophysics,46,270966,0.0-3.0-1.21,,key,null,16.66857627,1280,664.5,,,,,,,,
993.7,arrowright,psychophysics,47,271961,0.0-3.0-0.22,,key,arrowright,16.66964407,1280,664.5,23,1,1,26,15,25,35,TRUE
null,null,psychophysics,48,272965,0.0-3.0-1.22,,key,null,16.67027119,1280,664.5,,,,,,,,
1361.9,arrowleft,psychophysics,49,274328,0.0-3.0-0.23,,key,arrowleft,16.66732099,1280,664.5,24,1,-1,26,35,25,35,TRUE
null,null,psychophysics,50,275333,0.0-3.0-1.23,,key,null,16.66815254,1280,664.5,,,,,,,,
4664.2,arrowleft,psychophysics,51,280009,0.0-3.0-0.24,,key,arrowleft,16.66846071,1280,664.5,25,1,-1,25,35,25,35,TRUE
null,null,psychophysics,52,281014,0.0-3.0-1.24,,key,null,16.66530508,1280,664.5,,,,,,,,
1391.4,arrowleft,psychophysics,53,282409,0.0-3.0-0.25,,key,arrowleft,16.66824096,1280,664.5,26,1,-1,27,35,25,35,TRUE
null,null,psychophysics,54,283413,0.0-3.0-1.25,,key,null,16.66633898,1280,664.5,,,,,,,,
4114.1,arrowleft,psychophysics,55,287529,0.0-3.0-0.26,,key,arrowleft,16.6676748,1280,664.5,27,1,-1,26,35,25,35,TRUE
null,null,psychophysics,56,288533,0.0-3.0-1.26,,key,null,16.66789831,1280,664.5,,,,,,,,
1135.3,arrowright,psychophysics,57,289672,0.0-3.0-0.27,,key,arrowright,16.66629412,1280,664.5,28,2,-1,23,15,25,35,FALSE
null,null,psychophysics,58,290678,0.0-3.0-1.27,,key,null,16.67320339,1280,664.5,,,,,,,,
3521.9, ,html-keyboard-response,59,294189,0.0-3.0-2.27-0.27,"<div style=""color: white; text-align: center; vertical-align: top; display: inline-block; width: 800px; margin: auto""><p>You have completed 10% of the trials. You are on block 2 of 10. <br>Good job! Take a break if you need to.</p><p>Press any key to continue the experiment.</p></div>",,,,,,,,,,,,,
2976.4,arrowleft,psychophysics,60,298189,0.0-3.0-0.28,,key,arrowleft,16.76202247,1280,664.5,29,2,-1,25,35,25,35,TRUE
null,null,psychophysics,61,299191,0.0-3.0-1.28,,key,null,16.6729661,1280,664.5,,,,,,,,
890.3,arrowleft,psychophysics,62,300093,0.0-3.0-0.29,,key,arrowleft,16.66518519,1280,664.5,30,2,1,24,15,25,35,FALSE
null,null,psychophysics,63,301103,0.0-3.0-1.29,,key,null,16.66691525,1280,664.5,,,,,,,,
2075,arrowright,psychophysics,64,303182,0.0-3.0-0.30,,key,arrowright,16.66849194,1280,664.5,31,2,-1,24,15,25,35,FALSE
null,null,psychophysics,65,304191,0.0-3.0-1.30,,key,null,16.66567797,1280,664.5,,,,,,,,
801.7,arrowleft,psychophysics,66,305005,0.0-3.0-0.31,,key,arrowleft,16.67129167,1280,664.5,32,2,-1,26,35,25,35,TRUE
null,null,psychophysics,67,306008,0.0-3.0-1.31,,key,null,16.6730339,1280,664.5,,,,,,,,
617.5,arrowleft,psychophysics,68,306637,0.0-3.0-0.32,,key,arrowleft,16.66502703,1280,664.5,33,2,1,20,15,25,35,FALSE
null,null,psychophysics,69,307641,0.0-3.0-1.32,,key,null,16.66866102,1280,664.5,,,,,,,,
566.7,arrowright,psychophysics,70,308221,0.0-3.0-0.33,,key,arrowright,16.66638235,1280,664.5,34,2,-1,20,15,25,35,FALSE
null,null,psychophysics,71,309224,0.0-3.0-1.33,,key,null,16.66781356,1280,664.5,,,,,,,,
1034.4,arrowright,psychophysics,72,310269,0.0-3.0-0.34,,key,arrowright,16.6726129,1280,664.5,35,2,1,26,15,25,35,TRUE
null,null,psychophysics,73,311275,0.0-3.0-1.34,,key,null,16.67374576,1280,664.5,,,,,,,,
695.8,arrowright,psychophysics,74,311979,0.0-3.0-0.35,,key,arrowright,16.66188095,1280,664.5,36,2,-1,20,35,25,35,FALSE
null,null,psychophysics,75,312992,0.0-3.0-1.35,,key,null,16.67627119,1280,664.5,,,,,,,,
1154.1,arrowright,psychophysics,76,314156,0.0-3.0-0.36,,key,arrowright,16.66750725,1280,664.5,37,2,1,25,15,25,35,TRUE
null,null,psychophysics,77,315158,0.0-3.0-1.36,,key,null,16.67169492,1280,664.5,,,,,,,,
1149.9,arrowleft,psychophysics,78,316318,0.0-3.0-0.37,,key,arrowleft,16.66982609,1280,664.5,38,2,-1,24,35,25,35,TRUE
null,null,psychophysics,79,317323,0.0-3.0-1.37,,key,null,16.66557627,1280,664.5,,,,,,,,
720.6,arrowleft,psychophysics,80,318045,0.0-3.0-0.38,,key,arrowleft,16.67451163,1280,664.5,39,2,1,20,35,25,35,FALSE
null,null,psychophysics,81,319059,0.0-3.0-1.38,,key,null,16.66454237,1280,664.5,,,,,,,,
1695.6,arrowright,psychophysics,82,320765,0.0-3.0-0.39,,key,arrowright,16.66643137,1280,664.5,40,2,-1,23,15,25,35,FALSE
null,null,psychophysics,83,321776,0.0-3.0-1.39,,key,null,16.67205085,1280,664.5,,,,,,,,
1713.4,arrowright,psychophysics,84,323501,0.0-3.0-0.40,,key,arrowright,16.66443689,1280,664.5,41,2,1,24,35,25,35,TRUE
null,null,psychophysics,85,324509,0.0-3.0-1.40,,key,null,16.66535593,1280,664.5,,,,,,,,
726.1,arrowright,psychophysics,86,325244,0.0-3.0-0.41,,key,arrowright,16.67143182,1280,664.5,42,2,1,27,15,25,35,TRUE
null,null,psychophysics,87,326259,0.0-3.0-1.41,,key,null,16.66537288,1280,664.5,,,,,,,,
911.8,arrowleft,psychophysics,88,327182,0.0-3.0-0.42,,key,arrowleft,16.66876364,1280,664.5,43,2,-1,26,15,25,35,TRUE
null,null,psychophysics,89,328192,0.0-3.0-1.42,,key,null,16.66959322,1280,664.5,,,,,,,,
1504.2,arrowright,psychophysics,90,329709,0.0-3.0-0.43,,key,arrowright,16.66985556,1280,664.5,44,2,1,25,15,25,35,TRUE
null,null,psychophysics,91,330716,0.0-3.0-1.43,,key,null,16.67121667,1280,664.5,,,,,,,,
892.7,arrowright,psychophysics,92,331613,0.0-3.0-0.44,,key,arrowright,16.66590566,1280,664.5,45,2,1,30,15,25,35,TRUE
null,null,psychophysics,93,332626,0.0-3.0-1.44,,key,null,16.66450847,1280,664.5,,,,,,,,
766.7,arrowleft,psychophysics,94,333404,0.0-3.0-0.45,,key,arrowleft,16.66004348,1280,664.5,46,2,-1,27,15,25,35,TRUE
null,null,psychophysics,95,334409,0.0-3.0-1.45,,key,null,16.67189831,1280,664.5,,,,,,,,
1015.6,arrowright,psychophysics,96,335436,0.0-3.0-0.46,,key,arrowright,16.66590164,1280,664.5,47,2,1,26,35,25,35,TRUE
null,null,psychophysics,97,336442,0.0-3.0-1.46,,key,null,16.66737288,1280,664.5,,,,,,,,
9276.7,arrowright,psychophysics,98,345726,0.0-3.0-0.47,,key,arrowright,16.66748561,1280,664.5,48,2,1,23,15,25,35,TRUE
null,null,psychophysics,99,346727,0.0-3.0-1.47,,key,null,16.67148333,1280,664.5,,,,,,,,
2979.3,arrowright,psychophysics,100,349709,0.0-3.0-0.48,,key,arrowright,16.66846328,1280,664.5,49,2,1,27,35,25,35,TRUE
null,null,psychophysics,101,350712,0.0-3.0-1.48,,key,null,16.6696,1280,664.5,,,,,,,,
720.4,arrowleft,psychophysics,102,351437,0.0-3.0-0.49,,key,arrowleft,16.66866667,1280,664.5,50,2,-1,30,15,25,35,TRUE
null,null,psychophysics,103,352444,0.0-3.0-1.49,,key,null,16.66501695,1280,664.5,,,,,,,,
1319.5,arrowright,psychophysics,104,353773,0.0-3.0-0.50,,key,arrowright,16.6701519,1280,664.5,51,2,-1,24,35,25,35,FALSE
null,null,psychophysics,105,354789,0.0-3.0-1.50,,key,null,16.66859322,1280,664.5,,,,,,,,
649.9,arrowright,psychophysics,106,355448,0.0-3.0-0.51,,key,arrowright,16.66089744,1280,664.5,52,2,-1,20,35,25,35,FALSE
null,null,psychophysics,107,356456,0.0-3.0-1.51,,key,null,16.67625424,1280,664.5,,,,,,,,
1285.4,arrowleft,psychophysics,108,357753,0.0-3.0-0.52,,key,arrowleft,16.66566234,1280,664.5,53,2,-1,26,35,25,35,TRUE
null,null,psychophysics,109,358756,0.0-3.0-1.52,,key,null,16.67006667,1280,664.5,,,,,,,,
1073,arrowleft,psychophysics,110,359831,0.0-3.0-0.53,,key,arrowleft,16.66125397,1280,664.5,54,2,1,25,35,25,35,FALSE
null,null,psychophysics,111,360839,0.0-3.0-1.53,,key,null,16.66749153,1280,664.5,,,,,,,,
1960.9,arrowleft,psychophysics,112,362808,0.0-3.0-0.54,,key,arrowleft,16.66809322,1280,664.5,55,2,-1,24,15,25,35,TRUE
null,null,psychophysics,113,363823,0.0-3.0-1.54,,key,null,16.66718644,1280,664.5,,,,,,,,
591.1,arrowleft,psychophysics,114,364425,0.0-3.0-0.55,,key,arrowleft,16.66752778,1280,664.5,56,3,-1,30,35,25,35,TRUE
null,null,psychophysics,115,365435,0.0-3.0-1.55,,key,null,16.66718644,1280,664.5,,,,,,,,
1339.5,arrowleft,html-keyboard-response,116,366775,0.0-3.0-2.55-0.55,"<div style=""color: white; text-align: center; vertical-align: top; display: inline-block; width: 800px; margin: auto""><p>You have completed 20% of the trials. You are on block 3 of 10. <br>Good job! Take a break if you need to.</p><p>Press any key to continue the experiment.</p></div>",,,,,,,,,,,,,
1254,arrowleft,psychophysics,117,369048,0.0-3.0-0.56,,key,arrowleft,16.66769333,1280,664.5,57,3,-1,25,35,25,35,TRUE
null,null,psychophysics,118,370054,0.0-3.0-1.56,,key,null,16.66715254,1280,664.5,,,,,,,,
848.4,arrowright,psychophysics,119,370903,0.0-3.0-0.57,,key,arrowright,16.66834,1280,664.5,58,3,1,26,35,25,35,TRUE
null,null,psychophysics,120,371906,0.0-3.0-1.57,,key,null,16.66735593,1280,664.5,,,,,,,,
1739.6,arrowright,psychophysics,121,373655,0.0-3.0-0.58,,key,arrowright,16.66775962,1280,664.5,59,3,1,26,35,25,35,TRUE
null,null,psychophysics,122,374657,0.0-3.0-1.58,,key,null,16.66781356,1280,664.5,,,,,,,,
750.6,arrowleft,psychophysics,123,375416,0.0-3.0-0.59,,key,arrowleft,16.66724444,1280,664.5,60,3,1,23,35,25,35,FALSE
null,null,psychophysics,124,376422,0.0-3.0-1.59,,key,null,16.66791525,1280,664.5,,,,,,,,
1023.9,arrowright,psychophysics,125,377447,0.0-3.0-0.60,,key,arrowright,16.66614754,1280,664.5,61,3,1,27,15,25,35,TRUE
null,null,psychophysics,126,378453,0.0-3.0-1.60,,key,null,16.66794915,1280,664.5,,,,,,,,
1010.5,arrowleft,psychophysics,127,379465,0.0-3.0-0.61,,key,arrowleft,16.66723333,1280,664.5,62,3,-1,24,15,25,35,TRUE
null,null,psychophysics,128,380470,0.0-3.0-1.61,,key,null,16.66762712,1280,664.5,,,,,,,,
911.5,arrowright,psychophysics,129,381383,0.0-3.0-0.62,,key,arrowright,16.66683333,1280,664.5,63,3,1,23,35,25,35,TRUE
null,null,psychophysics,130,382390,0.0-3.0-1.62,,key,null,16.66762712,1280,664.5,,,,,,,,
967.2,arrowright,psychophysics,131,383367,0.0-3.0-0.63,,key,arrowright,16.667,1280,664.5,64,3,1,27,15,25,35,TRUE
null,null,psychophysics,132,384374,0.0-3.0-1.63,,key,null,16.66808475,1280,664.5,,,,,,,,
714.1,arrowright,psychophysics,133,385095,0.0-3.0-0.64,,key,arrowright,16.66753488,1280,664.5,65,3,1,27,35,25,35,TRUE
null,null,psychophysics,134,386102,0.0-3.0-1.64,,key,null,16.66755932,1280,664.5,,,,,,,,
718.4,arrowleft,psychophysics,135,386822,0.0-3.0-0.65,,key,arrowleft,16.6672381,1280,664.5,66,3,1,20,15,25,35,FALSE
null,null,psychophysics,136,387824,0.0-3.0-1.65,,key,null,16.66791525,1280,664.5,,,,,,,,
589.4,arrowright,psychophysics,137,388423,0.0-3.0-0.66,,key,arrowright,16.66917143,1280,664.5,67,3,1,30,35,25,35,TRUE
null,null,psychophysics,138,389425,0.0-3.0-1.66,,key,null,16.66701667,1280,664.5,,,,,,,,
832.9,arrowright,psychophysics,139,390264,0.0-3.0-0.67,,key,arrowright,16.66795918,1280,664.5,68,3,1,25,15,25,35,TRUE
null,null,psychophysics,140,391270,0.0-3.0-1.67,,key,null,16.66679661,1280,664.5,,,,,,,,
641,arrowleft,psychophysics,141,391912,0.0-3.0-0.68,,key,arrowleft,16.66897368,1280,664.5,69,3,-1,25,15,25,35,TRUE
null,null,psychophysics,142,392918,0.0-3.0-1.68,,key,null,16.66762712,1280,664.5,,,,,,,,
2144.9,arrowleft,psychophysics,143,395064,0.0-3.0-0.69,,key,arrowleft,16.66758594,1280,664.5,70,3,-1,24,35,25,35,TRUE
null,null,psychophysics,144,396070,0.0-3.0-1.69,,key,null,16.66749153,1280,664.5,,,,,,,,
1455.4,arrowright,psychophysics,145,397527,0.0-3.0-0.70,,key,arrowright,16.66765517,1280,664.5,71,3,1,25,15,25,35,TRUE
null,null,psychophysics,146,398534,0.0-3.0-1.70,,key,null,16.66740678,1280,664.5,,,,,,,,
1455.4,arrowright,psychophysics,147,399991,0.0-3.0-0.71,,key,arrowright,16.66772093,1280,664.5,72,3,-1,23,35,25,35,FALSE
null,null,psychophysics,148,400992,0.0-3.0-1.71,,key,null,16.6664,1280,664.5,,,,,,,,
2532.9,arrowright,psychophysics,149,403528,0.0-3.0-0.72,,key,arrowright,16.66758278,1280,664.5,73,3,-1,23,15,25,35,FALSE
null,null,psychophysics,150,404534,0.0-3.0-1.72,,key,null,16.66659322,1280,664.5,,,,,,,,
959.9,arrowright,psychophysics,151,405496,0.0-3.0-0.73,,key,arrowright,16.66768421,1280,664.5,74,3,-1,20,35,25,35,FALSE
null,null,psychophysics,152,406502,0.0-3.0-1.73,,key,null,16.66861017,1280,664.5,,,,,,,,
687.5,arrowleft,psychophysics,153,407191,0.0-3.0-0.74,,key,arrowleft,16.666225,1280,664.5,75,3,1,20,15,25,35,FALSE
null,null,psychophysics,154,408192,0.0-3.0-1.74,,key,null,16.66837288,1280,664.5,,,,,,,,
1283.7,arrowright,psychophysics,155,409481,0.0-3.0-0.75,,key,arrowright,16.67407792,1280,664.5,76,3,1,24,35,25,35,TRUE
null,null,psychophysics,156,410485,0.0-3.0-1.75,,key,null,16.67189831,1280,664.5,,,,,,,,
2497.5,arrowright,psychophysics,157,412985,0.0-3.0-0.76,,key,arrowright,16.66769799,1280,664.5,77,3,1,23,15,25,35,TRUE
null,null,psychophysics,158,413989,0.0-3.0-1.76,,key,null,16.67081356,1280,664.5,,,,,,,,
2398.6,arrowright,psychophysics,159,416391,0.0-3.0-0.77,,key,arrowright,16.66691608,1280,664.5,78,3,-1,25,35,25,35,FALSE
null,null,psychophysics,160,417392,0.0-3.0-1.77,,key,null,16.66951667,1280,664.5,,,,,,,,
5396.7,arrowright,psychophysics,161,422791,0.0-3.0-0.78,,key,arrowright,16.66796273,1280,664.5,79,3,-1,24,15,25,35,FALSE
null,null,psychophysics,162,423793,0.0-3.0-1.78,,key,null,16.6668,1280,664.5,,,,,,,,
5396.8,arrowright,psychophysics,163,429192,0.0-3.0-0.79,,key,arrowright,16.66912112,1280,664.5,80,3,-1,26,15,25,35,FALSE
null,null,psychophysics,164,430195,0.0-3.0-1.79,,key,null,16.66905,1280,664.5,,,,,,,,
1089,arrowleft,psychophysics,165,431289,0.0-3.0-0.80,,key,arrowleft,16.67323437,1280,664.5,81,3,-1,27,15,25,35,TRUE
null,null,psychophysics,166,432293,0.0-3.0-1.80,,key,null,16.66779661,1280,664.5,,,,,,,,
1112.6,arrowleft,psychophysics,167,433416,0.0-3.0-0.81,,key,arrowleft,16.67168657,1280,664.5,82,3,1,25,35,25,35,FALSE
null,null,psychophysics,168,434421,0.0-3.0-1.81,,key,null,16.66655932,1280,664.5,,,,,,,,
879.9,arrowleft,psychophysics,169,435303,0.0-3.0-0.82,,key,arrowleft,16.66455769,1280,664.5,83,3,1,23,35,25,35,FALSE
null,null,psychophysics,170,436308,0.0-3.0-1.82,,key,null,16.67032203,1280,664.5,,,,,,,,
984.6,arrowleft,psychophysics,171,437304,0.0-3.0-0.83,,key,arrowleft,16.67413559,1280,664.5,84,4,1,25,35,25,35,FALSE
null,null,psychophysics,172,438308,0.0-3.0-1.83,,key,null,16.66328814,1280,664.5,,,,,,,,
962.4,arrowleft,html-keyboard-response,173,439273,0.0-3.0-2.83-0.83,"<div style=""color: white; text-align: center; vertical-align: top; display: inline-block; width: 800px; margin: auto""><p>You have completed 30% of the trials. You are on block 4 of 10. <br>Good job! Take a break if you need to.</p><p>Press any key to continue the experiment.</p></div>",,,,,,,,,,,,,
1335.6,arrowright,psychophysics,174,441623,0.0-3.0-0.84,,key,arrowright,16.6672625,1280,664.5,85,4,1,30,15,25,35,TRUE
null,null,psychophysics,175,442627,0.0-3.0-1.84,,key,null,16.67138983,1280,664.5,,,,,,,,
1051.3,arrowright,psychophysics,176,443687,0.0-3.0-0.85,,key,arrowright,16.66584127,1280,664.5,86,4,-1,20,15,25,35,FALSE
null,null,psychophysics,177,444692,0.0-3.0-1.85,,key,null,16.66484746,1280,664.5,,,,,,,,
2738.8,arrowright,psychophysics,178,447432,0.0-3.0-0.86,,key,arrowright,16.66856098,1280,664.5,87,4,1,23,15,25,35,TRUE
null,null,psychophysics,179,448436,0.0-3.0-1.86,,key,null,16.67101695,1280,664.5,,,,,,,,
2047.6,arrowright,psychophysics,180,450487,0.0-3.0-0.87,,key,arrowright,16.66782787,1280,664.5,88,4,1,26,15,25,35,TRUE
null,null,psychophysics,181,451493,0.0-3.0-1.87,,key,null,16.66723729,1280,664.5,,,,,,,,
1145.2,arrowleft,psychophysics,182,452648,0.0-3.0-0.88,,key,arrowleft,16.66752174,1280,664.5,89,4,1,20,15,25,35,FALSE
null,null,psychophysics,183,453653,0.0-3.0-1.88,,key,null,16.6680678,1280,664.5,,,,,,,,
799.2,arrowright,psychophysics,184,454456,0.0-3.0-0.89,,key,arrowright,16.67402128,1280,664.5,90,4,-1,23,35,25,35,FALSE
null,null,psychophysics,185,455460,0.0-3.0-1.89,,key,null,16.66483051,1280,664.5,,,,,,,,
924.2,arrowleft,psychophysics,186,456392,0.0-3.0-0.90,,key,arrowleft,16.67410909,1280,664.5,91,4,-1,30,35,25,35,TRUE
null,null,psychophysics,187,457394,0.0-3.0-1.90,,key,null,16.66781356,1280,664.5,,,,,,,,
987.2,arrowright,psychophysics,188,458392,0.0-3.0-0.91,,key,arrowright,16.66830508,1280,664.5,92,4,1,27,35,25,35,TRUE
null,null,psychophysics,189,459395,0.0-3.0-1.91,,key,null,16.67111864,1280,664.5,,,,,,,,
875,arrowright,psychophysics,190,460281,0.0-3.0-0.92,,key,arrowright,16.66477358,1280,664.5,93,4,-1,20,35,25,35,FALSE
null,null,psychophysics,191,461284,0.0-3.0-1.92,,key,null,16.6659322,1280,664.5,,,,,,,,
1389.8,arrowleft,psychophysics,192,462678,0.0-3.0-0.93,,key,arrowleft,16.66460241,1280,664.5,94,4,1,23,35,25,35,FALSE
null,null,psychophysics,193,463685,0.0-3.0-1.93,,key,null,16.66852542,1280,664.5,,,,,,,,
1296.7,arrowright,psychophysics,194,464983,0.0-3.0-0.94,,key,arrowright,16.66744156,1280,664.5,95,4,-1,23,35,25,35,FALSE
null,null,psychophysics,195,465989,0.0-3.0-1.94,,key,null,16.66716949,1280,664.5,,,,,,,,
3523.7,arrowright,psychophysics,196,469514,0.0-3.0-0.95,,key,arrowright,16.66821327,1280,664.5,96,4,-1,24,35,25,35,FALSE
null,null,psychophysics,197,470525,0.0-3.0-1.95,,key,null,16.66455932,1280,664.5,,,,,,,,
759.4,arrowright,psychophysics,198,471288,0.0-3.0-0.96,,key,arrowright,16.66768889,1280,664.5,97,4,-1,23,15,25,35,FALSE
null,null,psychophysics,199,472293,0.0-3.0-1.96,,key,null,16.67152542,1280,664.5,,,,,,,,
1855.5,arrowleft,psychophysics,200,474152,0.0-3.0-0.97,,key,arrowleft,16.66736937,1280,664.5,98,4,1,20,35,25,35,FALSE
null,null,psychophysics,201,475157,0.0-3.0-1.97,,key,null,16.66908475,1280,664.5,,,,,,,,
1678.6,arrowright,psychophysics,202,476840,0.0-3.0-0.98,,key,arrowright,16.6668,1280,664.5,99,4,-1,27,35,25,35,FALSE
null,null,psychophysics,203,477845,0.0-3.0-1.98,,key,null,16.67077966,1280,664.5,,,,,,,,
3288.5,arrowleft,psychophysics,204,481145,0.0-3.0-0.99,,key,arrowleft,16.66881726,1280,664.5,100,4,1,23,15,25,35,FALSE
null,null,psychophysics,205,482148,0.0-3.0-1.99,,key,null,16.67038333,1280,664.5,,,,,,,,
1135.8,arrowright,psychophysics,206,483288,0.0-3.0-0.100,,key,arrowright,16.66550746,1280,664.5,101,4,1,30,35,25,35,TRUE
null,null,psychophysics,207,484293,0.0-3.0-1.100,,key,null,16.66871186,1280,664.5,,,,,,,,
818.6,arrowleft,psychophysics,208,485115,0.0-3.0-0.101,,key,arrowleft,16.66677551,1280,664.5,102,4,-1,30,35,25,35,TRUE
null,null,psychophysics,209,486125,0.0-3.0-1.101,,key,null,16.67181356,1280,664.5,,,,,,,,
1046.5,arrowright,psychophysics,210,487175,0.0-3.0-0.102,,key,arrowright,16.66835484,1280,664.5,103,4,-1,24,15,25,35,FALSE
null,null,psychophysics,211,488180,0.0-3.0-1.102,,key,null,16.668,1280,664.5,,,,,,,,
1400.6,arrowleft,psychophysics,212,489591,0.0-3.0-0.103,,key,arrowleft,16.66640476,1280,664.5,104,4,-1,30,35,25,35,TRUE
null,null,psychophysics,213,490596,0.0-3.0-1.103,,key,null,16.66877966,1280,664.5,,,,,,,,
2526.3,arrowright,psychophysics,214,493129,0.0-3.0-0.104,,key,arrowright,16.67084106,1280,664.5,105,4,1,26,35,25,35,TRUE
null,null,psychophysics,215,494131,0.0-3.0-1.104,,key,null,16.66805,1280,664.5,,,,,,,,
1088.2,arrowright,psychophysics,216,495225,0.0-3.0-0.105,,key,arrowright,16.66615625,1280,664.5,106,4,1,24,15,25,35,TRUE
null,null,psychophysics,217,496229,0.0-3.0-1.105,,key,null,16.67076271,1280,664.5,,,,,,,,
1190.1,arrowright,psychophysics,218,497431,0.0-3.0-0.106,,key,arrowright,16.66626389,1280,664.5,107,4,1,23,15,25,35,TRUE
null,null,psychophysics,219,498433,0.0-3.0-1.106,,key,null,16.66676271,1280,664.5,,,,,,,,
916,arrowleft,psychophysics,220,499353,0.0-3.0-0.107,,key,arrowleft,16.66872222,1280,664.5,108,4,-1,24,15,25,35,TRUE
null,null,psychophysics,221,500357,0.0-3.0-1.107,,key,null,16.66674576,1280,664.5,,,,,,,,
2543.6,arrowright,psychophysics,222,502905,0.0-3.0-0.108,,key,arrowright,16.667875,1280,664.5,109,4,1,27,35,25,35,TRUE
null,null,psychophysics,223,503909,0.0-3.0-1.108,,key,null,16.66783051,1280,664.5,,,,,,,,
1538.4,arrowleft,psychophysics,224,505450,0.0-3.0-0.109,,key,arrowleft,16.66559783,1280,664.5,110,4,1,26,35,25,35,FALSE
null,null,psychophysics,225,506453,0.0-3.0-1.109,,key,null,16.66488136,1280,664.5,,,,,,,,
3054.9,arrowleft,psychophysics,226,509513,0.0-3.0-0.110,,key,arrowleft,16.66874725,1280,664.5,111,4,-1,25,35,25,35,TRUE
null,null,psychophysics,227,510516,0.0-3.0-1.110,,key,null,16.67008333,1280,664.5,,,,,,,,
751.6,arrowright,psychophysics,228,511273,0.0-3.0-0.111,,key,arrowright,16.65927273,1280,664.5,112,5,1,30,15,25,35,TRUE
null,null,psychophysics,229,512277,0.0-3.0-1.111,,key,null,16.67011864,1280,664.5,,,,,,,,
785.9,arrowright,html-keyboard-response,230,513065,0.0-3.0-2.111-0.111,"<div style=""color: white; text-align: center; vertical-align: top; display: inline-block; width: 800px; margin: auto""><p>You have completed 40% of the trials. You are on block 5 of 10. <br>Good job! Take a break if you need to.</p><p>Press any key to continue the experiment.</p></div>",,,,,,,,,,,,,
1029.5,arrowright,psychophysics,231,515113,0.0-3.0-0.112,,key,arrowright,16.66770968,1280,664.5,113,5,-1,20,15,25,35,FALSE
null,null,psychophysics,232,516115,0.0-3.0-1.112,,key,null,16.67425424,1280,664.5,,,,,,,,
715.6,arrowright,psychophysics,233,516841,0.0-3.0-0.113,,key,arrowright,16.65986047,1280,664.5,114,5,1,27,15,25,35,TRUE
null,null,psychophysics,234,517848,0.0-3.0-1.113,,key,null,16.67074576,1280,664.5,,,,,,,,
916.4,arrowright,psychophysics,235,518777,0.0-3.0-0.114,,key,arrowright,16.66934545,1280,664.5,115,5,1,27,35,25,35,TRUE
null,null,psychophysics,236,519782,0.0-3.0-1.114,,key,null,16.66979661,1280,664.5,,,,,,,,
1384,arrowleft,psychophysics,237,521177,0.0-3.0-0.115,,key,arrowleft,16.66963855,1280,664.5,116,5,1,23,15,25,35,FALSE
null,null,psychophysics,238,522182,0.0-3.0-1.115,,key,null,16.66779661,1280,664.5,,,,,,,,
2503.3,arrowleft,psychophysics,239,524697,0.0-3.0-0.116,,key,arrowleft,16.66476667,1280,664.5,117,5,1,23,35,25,35,FALSE
null,null,psychophysics,240,525699,0.0-3.0-1.116,,key,null,16.66646667,1280,664.5,,,,,,,,
4866.6,arrowright,psychophysics,241,530568,0.0-3.0-0.117,,key,arrowright,16.66757045,1280,664.5,118,5,-1,25,15,25,35,FALSE
null,null,psychophysics,242,531582,0.0-3.0-1.117,,key,null,16.67411864,1280,664.5,,,,,,,,
3007.7,arrowright,psychophysics,243,534601,0.0-3.0-0.118,,key,arrowright,16.66651934,1280,664.5,119,5,-1,23,35,25,35,FALSE
null,null,psychophysics,244,535616,0.0-3.0-1.118,,key,null,16.66054237,1280,664.5,,,,,,,,
3149.6,arrowleft,psychophysics,245,538777,0.0-3.0-0.119,,key,arrowleft,16.66683598,1280,664.5,120,5,1,20,35,25,35,FALSE
null,null,psychophysics,246,539783,0.0-3.0-1.119,,key,null,16.6719322,1280,664.5,,,,,,,,
903.1,arrowright,psychophysics,247,540696,0.0-3.0-0.120,,key,arrowright,16.66948148,1280,664.5,121,5,1,26,15,25,35,TRUE
null,null,psychophysics,248,541699,0.0-3.0-1.120,,key,null,16.6719661,1280,664.5,,,,,,,,
777,arrowright,psychophysics,249,542488,0.0-3.0-0.121,,key,arrowright,16.66138298,1280,664.5,122,5,1,30,35,25,35,TRUE
null,null,psychophysics,250,543500,0.0-3.0-1.121,,key,null,16.67332203,1280,664.5,,,,,,,,
1569.6,arrowleft,psychophysics,251,545080,0.0-3.0-0.122,,key,arrowleft,16.66809574,1280,664.5,123,5,1,24,35,25,35,FALSE
null,null,psychophysics,252,546083,0.0-3.0-1.122,,key,null,16.67383051,1280,664.5,,,,,,,,
5642.4,arrowright,psychophysics,253,551737,0.0-3.0-0.123,,key,arrowright,16.66746313,1280,664.5,124,5,1,26,35,25,35,TRUE
null,null,psychophysics,254,552750,0.0-3.0-1.123,,key,null,16.66777966,1280,664.5,,,,,,,,
1631.5,arrowright,psychophysics,255,554393,0.0-3.0-0.124,,key,arrowright,16.66382653,1280,664.5,125,5,-1,23,15,25,35,FALSE
null,null,psychophysics,256,555397,0.0-3.0-1.124,,key,null,16.66950847,1280,664.5,,,,,,,,
2495.5,arrowleft,psychophysics,257,557896,0.0-3.0-0.125,,key,arrowleft,16.66948322,1280,664.5,126,5,1,23,15,25,35,FALSE
null,null,psychophysics,258,558901,0.0-3.0-1.125,,key,null,16.67420339,1280,664.5,,,,,,,,
1209.8,arrowright,psychophysics,259,560121,0.0-3.0-0.126,,key,arrowright,16.66771233,1280,664.5,127,5,1,25,35,25,35,TRUE
null,null,psychophysics,260,561125,0.0-3.0-1.126,,key,null,16.6610339,1280,664.5,,,,,,,,
769.7,arrowleft,psychophysics,261,561896,0.0-3.0-0.127,,key,arrowleft,16.67631111,1280,664.5,128,5,1,20,35,25,35,FALSE
null,null,psychophysics,262,562901,0.0-3.0-1.127,,key,null,16.67016949,1280,664.5,,,,,,,,
873.8,arrowright,psychophysics,263,563786,0.0-3.0-0.128,,key,arrowright,16.65964151,1280,664.5,129,5,-1,23,15,25,35,FALSE
null,null,psychophysics,264,564791,0.0-3.0-1.128,,key,null,16.66971186,1280,664.5,,,,,,,,
733,arrowleft,psychophysics,265,565529,0.0-3.0-0.129,,key,arrowleft,16.66537209,1280,664.5,130,5,-1,27,35,25,35,TRUE
null,null,psychophysics,266,566535,0.0-3.0-1.129,,key,null,16.66927119,1280,664.5,,,,,,,,
1241.4,arrowleft,psychophysics,267,567786,0.0-3.0-0.130,,key,arrowleft,16.66168,1280,664.5,131,5,1,20,35,25,35,FALSE
null,null,psychophysics,268,568801,0.0-3.0-1.130,,key,null,16.66715254,1280,664.5,,,,,,,,
1182.4,arrowleft,psychophysics,269,569993,0.0-3.0-0.131,,key,arrowleft,16.66723944,1280,664.5,132,5,1,23,35,25,35,FALSE
null,null,psychophysics,270,570997,0.0-3.0-1.131,,key,null,16.66466102,1280,664.5,,,,,,,,
704.3,arrowright,psychophysics,271,571705,0.0-3.0-0.132,,key,arrowright,16.67140476,1280,664.5,133,5,1,30,35,25,35,TRUE
null,null,psychophysics,272,572718,0.0-3.0-1.132,,key,null,16.66545763,1280,664.5,,,,,,,,
993.1,arrowright,psychophysics,273,573721,0.0-3.0-0.133,,key,arrowright,16.66611667,1280,664.5,134,5,1,24,15,25,35,TRUE
null,null,psychophysics,274,574735,0.0-3.0-1.133,,key,null,16.66718644,1280,664.5,,,,,,,,
930.2,arrowleft,psychophysics,275,575674,0.0-3.0-0.134,,key,arrowleft,16.66776786,1280,664.5,135,5,1,20,15,25,35,FALSE
null,null,psychophysics,276,576680,0.0-3.0-1.134,,key,null,16.66386441,1280,664.5,,,,,,,,
700.7,arrowright,psychophysics,277,577385,0.0-3.0-0.135,,key,arrowright,16.6714878,1280,664.5,136,5,-1,23,35,25,35,FALSE
null,null,psychophysics,278,578389,0.0-3.0-1.135,,key,null,16.67275,1280,664.5,,,,,,,,
543.2,arrowright,psychophysics,279,578937,0.0-3.0-0.136,,key,arrowright,16.661875,1280,664.5,137,5,-1,20,15,25,35,FALSE
null,null,psychophysics,280,579952,0.0-3.0-1.136,,key,null,16.66425424,1280,664.5,,,,,,,,
847.1,arrowright,psychophysics,281,580809,0.0-3.0-0.137,,key,arrowright,16.66923529,1280,664.5,138,5,1,24,15,25,35,TRUE
null,null,psychophysics,282,581819,0.0-3.0-1.137,,key,null,16.66566102,1280,664.5,,,,,,,,
930.4,arrowright,psychophysics,283,582761,0.0-3.0-0.138,,key,arrowright,16.66155357,1280,664.5,139,5,1,30,35,25,35,TRUE
null,null,psychophysics,284,583769,0.0-3.0-1.138,,key,null,16.66537288,1280,664.5,,,,,,,,
1849,arrowleft,psychophysics,285,585626,0.0-3.0-0.139,,key,arrowleft,16.66982883,1280,664.5,140,6,1,24,35,25,35,FALSE
null,null,psychophysics,286,586635,0.0-3.0-1.139,,key,null,16.66550847,1280,664.5,,,,,,,,
121642.1, ,html-keyboard-response,287,708281,0.0-3.0-2.139-0.139,"<div style=""color: white; text-align: center; vertical-align: top; display: inline-block; width: 800px; margin: auto""><p>You have completed 50% of the trials. You are on block 6 of 10. <br>Good job! Take a break if you need to.</p><p>Press any key to continue the experiment.</p></div>",,,,,,,,,,,,,
1029.5,arrowright,psychophysics,288,710331,0.0-3.0-0.140,,key,arrowright,16.6601129,1280,664.5,141,6,1,25,15,25,35,TRUE
null,null,psychophysics,289,711335,0.0-3.0-1.140,,key,null,16.66737288,1280,664.5,,,,,,,,
848.5,arrowleft,psychophysics,290,712185,0.0-3.0-0.141,,key,arrowleft,16.65862,1280,664.5,142,6,-1,26,35,25,35,TRUE
null,null,psychophysics,291,713191,0.0-3.0-1.141,,key,null,16.66871186,1280,664.5,,,,,,,,
799.3,arrowright,psychophysics,292,713994,0.0-3.0-0.142,,key,arrowright,16.66655319,1280,664.5,143,6,-1,24,35,25,35,FALSE
null,null,psychophysics,293,714997,0.0-3.0-1.142,,key,null,16.66783333,1280,664.5,,,,,,,,
799.2,arrowleft,psychophysics,294,715801,0.0-3.0-0.143,,key,arrowleft,16.66417021,1280,664.5,144,6,1,23,35,25,35,FALSE
null,null,psychophysics,295,716806,0.0-3.0-1.143,,key,null,16.67077966,1280,664.5,,,,,,,,
911.8,arrowright,psychophysics,296,717721,0.0-3.0-0.144,,key,arrowright,16.6682963,1280,664.5,145,6,1,25,35,25,35,TRUE
null,null,psychophysics,297,718727,0.0-3.0-1.144,,key,null,16.6679322,1280,664.5,,,,,,,,
1019.9,arrowleft,psychophysics,298,719754,0.0-3.0-0.145,,key,arrowleft,16.66832787,1280,664.5,146,6,-1,27,35,25,35,TRUE
null,null,psychophysics,299,720759,0.0-3.0-1.145,,key,null,16.65672881,1280,664.5,,,,,,,,
1103.1,arrowleft,psychophysics,300,721867,0.0-3.0-0.146,,key,arrowleft,16.66737879,1280,664.5,147,6,-1,26,15,25,35,TRUE
null,null,psychophysics,301,722871,0.0-3.0-1.146,,key,null,16.66532203,1280,664.5,,,,,,,,
847.2,arrowright,psychophysics,302,723722,0.0-3.0-0.147,,key,arrowright,16.66746,1280,664.5,148,6,1,26,15,25,35,TRUE
null,null,psychophysics,303,724727,0.0-3.0-1.147,,key,null,16.67030508,1280,664.5,,,,,,,,
699.2,arrowleft,psychophysics,304,725434,0.0-3.0-0.148,,key,arrowleft,16.67271429,1280,664.5,149,6,-1,30,15,25,35,TRUE
null,null,psychophysics,305,726439,0.0-3.0-1.148,,key,null,16.67074576,1280,664.5,,,,,,,,
609,arrowright,psychophysics,306,727051,0.0-3.0-0.149,,key,arrowright,16.67305556,1280,664.5,150,6,-1,20,15,25,35,FALSE
null,null,psychophysics,307,728055,0.0-3.0-1.149,,key,null,16.66044068,1280,664.5,,,,,,,,
623.5,arrowleft,psychophysics,308,728682,0.0-3.0-0.150,,key,arrowleft,16.67513514,1280,664.5,151,6,-1,30,15,25,35,TRUE
null,null,psychophysics,309,729687,0.0-3.0-1.150,,key,null,16.66488136,1280,664.5,,,,,,,,
960.3,arrowright,psychophysics,310,730651,0.0-3.0-0.151,,key,arrowright,16.66533333,1280,664.5,152,6,-1,24,35,25,35,FALSE
null,null,psychophysics,311,731654,0.0-3.0-1.151,,key,null,16.665,1280,664.5,,,,,,,,
1473.6,arrowright,psychophysics,312,733132,0.0-3.0-0.152,,key,arrowright,16.66725,1280,664.5,153,6,-1,20,15,25,35,FALSE
null,null,psychophysics,313,734143,0.0-3.0-1.152,,key,null,16.66932203,1280,664.5,,,,,,,,
1031.8,arrowleft,psychophysics,314,735179,0.0-3.0-0.153,,key,arrowleft,16.67019672,1280,664.5,154,6,1,23,35,25,35,FALSE
null,null,psychophysics,315,736181,0.0-3.0-1.153,,key,null,16.67538333,1280,664.5,,,,,,,,
1328,arrowleft,psychophysics,316,737514,0.0-3.0-0.154,,key,arrowleft,16.66505063,1280,664.5,155,6,1,23,15,25,35,FALSE
null,null,psychophysics,317,738518,0.0-3.0-1.154,,key,null,16.66438983,1280,664.5,,,,,,,,
1427.5,arrowright,psychophysics,318,739948,0.0-3.0-0.155,,key,arrowright,16.66472941,1280,664.5,156,6,-1,23,35,25,35,FALSE
null,null,psychophysics,319,740952,0.0-3.0-1.155,,key,null,16.67288136,1280,664.5,,,,,,,,
1054.8,arrowright,psychophysics,320,742011,0.0-3.0-0.156,,key,arrowright,16.66633871,1280,664.5,157,6,-1,20,35,25,35,FALSE
null,null,psychophysics,321,743014,0.0-3.0-1.156,,key,null,16.67145,1280,664.5,,,,,,,,
863.6,arrowright,psychophysics,322,743883,0.0-3.0-0.157,,key,arrowright,16.66360784,1280,664.5,158,6,1,30,15,25,35,TRUE
null,null,psychophysics,323,744887,0.0-3.0-1.157,,key,null,16.66662712,1280,664.5,,,,,,,,
2063.4,arrowright,psychophysics,324,746954,0.0-3.0-0.158,,key,arrowright,16.6665935,1280,664.5,159,6,1,27,35,25,35,TRUE
null,null,psychophysics,325,747959,0.0-3.0-1.158,,key,null,16.66854237,1280,664.5,,,,,,,,
1520,arrowright,psychophysics,326,749483,0.0-3.0-0.159,,key,arrowright,16.66848352,1280,664.5,160,6,1,25,15,25,35,TRUE
null,null,psychophysics,327,750487,0.0-3.0-1.159,,key,null,16.67222034,1280,664.5,,,,,,,,
1023.8,arrowright,psychophysics,328,751515,0.0-3.0-0.160,,key,arrowright,16.66440984,1280,664.5,161,6,1,26,15,25,35,TRUE
null,null,psychophysics,329,752519,0.0-3.0-1.160,,key,null,16.66855932,1280,664.5,,,,,,,,
1278.4,arrowright,psychophysics,330,753802,0.0-3.0-0.161,,key,arrowright,16.67019737,1280,664.5,162,6,1,27,15,25,35,TRUE
null,null,psychophysics,331,754806,0.0-3.0-1.161,,key,null,16.66644068,1280,664.5,,,,,,,,
3935.9,arrowright,psychophysics,332,758746,0.0-3.0-0.162,,key,arrowright,16.66727234,1280,664.5,163,6,-1,20,15,25,35,FALSE
null,null,psychophysics,333,759748,0.0-3.0-1.162,,key,null,16.6691,1280,664.5,,,,,,,,
1345.8,arrowright,psychophysics,334,761099,0.0-3.0-0.163,,key,arrowright,16.666875,1280,664.5,164,6,-1,27,35,25,35,FALSE
null,null,psychophysics,335,762103,0.0-3.0-1.163,,key,null,16.66525424,1280,664.5,,,,,,,,
3646.5,arrowright,psychophysics,336,765754,0.0-3.0-0.164,,key,arrowright,16.66711468,1280,664.5,165,6,1,25,15,25,35,TRUE
null,null,psychophysics,337,766759,0.0-3.0-1.164,,key,null,16.66859322,1280,664.5,,,,,,,,
879.5,arrowleft,psychophysics,338,767643,0.0-3.0-0.165,,key,arrowleft,16.66775,1280,664.5,166,6,-1,30,15,25,35,TRUE
null,null,psychophysics,339,768647,0.0-3.0-1.165,,key,null,16.66777966,1280,664.5,,,,,,,,
843.6,arrowleft,psychophysics,340,769500,0.0-3.0-0.166,,key,arrowleft,16.66521569,1280,664.5,167,6,-1,30,15,25,35,TRUE
null,null,psychophysics,341,770504,0.0-3.0-1.166,,key,null,16.67040678,1280,664.5,,,,,,,,
959.5,arrowleft,psychophysics,342,771467,0.0-3.0-0.167,,key,arrowleft,16.66789474,1280,664.5,168,7,1,20,35,25,35,FALSE
null,null,psychophysics,343,772471,0.0-3.0-1.167,,key,null,16.66833898,1280,664.5,,,,,,,,
801.7,arrowleft,html-keyboard-response,344,773275,0.0-3.0-2.167-0.167,"<div style=""color: white; text-align: center; vertical-align: top; display: inline-block; width: 800px; margin: auto""><p>You have completed 60% of the trials. You are on block 7 of 10. <br>Good job! Take a break if you need to.</p><p>Press any key to continue the experiment.</p></div>",,,,,,,,,,,,,
2046.3,arrowright,psychophysics,345,776346,0.0-3.0-0.168,,key,arrowright,16.6704065,1280,664.5,169,7,-1,24,35,25,35,FALSE
null,null,psychophysics,346,777348,0.0-3.0-1.168,,key,null,16.66913559,1280,664.5,,,,,,,,
893.2,arrowright,psychophysics,347,778251,0.0-3.0-0.169,,key,arrowright,16.67074074,1280,664.5,170,7,1,26,15,25,35,TRUE
null,null,psychophysics,348,779256,0.0-3.0-1.169,,key,null,16.66420339,1280,664.5,,,,,,,,
913,arrowleft,psychophysics,349,780172,0.0-3.0-0.170,,key,arrowleft,16.66468519,1280,664.5,171,7,-1,26,15,25,35,TRUE
null,null,psychophysics,350,781182,0.0-3.0-1.170,,key,null,16.66738983,1280,664.5,,,,,,,,
835.3,arrowleft,psychophysics,351,782026,0.0-3.0-0.171,,key,arrowleft,16.66486,1280,664.5,172,7,1,23,35,25,35,FALSE
null,null,psychophysics,352,783032,0.0-3.0-1.171,,key,null,16.66881356,1280,664.5,,,,,,,,
811.7,arrowleft,psychophysics,353,783851,0.0-3.0-0.172,,key,arrowleft,16.66863265,1280,664.5,173,7,-1,24,15,25,35,TRUE
null,null,psychophysics,354,784861,0.0-3.0-1.172,,key,null,16.67437288,1280,664.5,,,,,,,,
696.9,arrowleft,psychophysics,355,785562,0.0-3.0-0.173,,key,arrowleft,16.66734146,1280,664.5,174,7,-1,24,15,25,35,TRUE
null,null,psychophysics,356,786566,0.0-3.0-1.173,,key,null,16.67071186,1280,664.5,,,,,,,,
652.9,arrowright,psychophysics,357,787227,0.0-3.0-0.174,,key,arrowright,16.65994872,1280,664.5,175,7,-1,20,35,25,35,FALSE
null,null,psychophysics,358,788232,0.0-3.0-1.174,,key,null,16.67188136,1280,664.5,,,,,,,,
781.6,arrowright,psychophysics,359,789019,0.0-3.0-0.175,,key,arrowright,16.67617021,1280,664.5,176,7,1,26,15,25,35,TRUE
null,null,psychophysics,360,790032,0.0-3.0-1.175,,key,null,16.66462712,1280,664.5,,,,,,,,
690.8,arrowleft,psychophysics,361,790731,0.0-3.0-0.176,,key,arrowleft,16.67265854,1280,664.5,177,7,1,20,15,25,35,FALSE
null,null,psychophysics,362,791734,0.0-3.0-1.176,,key,null,16.66973333,1280,664.5,,,,,,,,
703.3,arrowright,psychophysics,363,792442,0.0-3.0-0.177,,key,arrowright,16.66814634,1280,664.5,178,7,1,30,15,25,35,TRUE
null,null,psychophysics,364,793447,0.0-3.0-1.177,,key,null,16.66066102,1280,664.5,,,,,,,,
2063.9,arrowleft,psychophysics,365,795515,0.0-3.0-0.178,,key,arrowleft,16.67087805,1280,664.5,179,7,-1,26,15,25,35,TRUE
null,null,psychophysics,366,796518,0.0-3.0-1.178,,key,null,16.67468333,1280,664.5,,,,,,,,
735.9,arrowright,psychophysics,367,797259,0.0-3.0-0.179,,key,arrowright,16.66169767,1280,664.5,180,7,-1,20,35,25,35,FALSE
null,null,psychophysics,368,798266,0.0-3.0-1.179,,key,null,16.66486441,1280,664.5,,,,,,,,
568.8,arrowleft,psychophysics,369,798843,0.0-3.0-0.180,,key,arrowleft,16.67217647,1280,664.5,181,7,-1,30,35,25,35,TRUE
null,null,psychophysics,370,799850,0.0-3.0-1.180,,key,null,16.66218644,1280,664.5,,,,,,,,
697.6,arrowleft,psychophysics,371,800556,0.0-3.0-0.181,,key,arrowleft,16.67204762,1280,664.5,182,7,-1,26,15,25,35,TRUE
null,null,psychophysics,372,801565,0.0-3.0-1.181,,key,null,16.66764407,1280,664.5,,,,,,,,
2501.8,arrowright,psychophysics,373,804075,0.0-3.0-0.182,,key,arrowright,16.66924667,1280,664.5,183,7,-1,25,35,25,35,FALSE
null,null,psychophysics,374,805083,0.0-3.0-1.182,,key,null,16.66489831,1280,664.5,,,,,,,,
1222.8,arrowright,psychophysics,375,806315,0.0-3.0-0.183,,key,arrowright,16.67030137,1280,664.5,184,7,-1,23,35,25,35,FALSE
null,null,psychophysics,376,807317,0.0-3.0-1.183,,key,null,16.67008475,1280,664.5,,,,,,,,
1552.8,arrowleft,psychophysics,377,808875,0.0-3.0-0.184,,key,arrowleft,16.67096774,1280,664.5,185,7,-1,26,35,25,35,TRUE
null,null,psychophysics,378,809884,0.0-3.0-1.184,,key,null,16.6649322,1280,664.5,,,,,,,,
966.3,arrowleft,psychophysics,379,810859,0.0-3.0-0.185,,key,arrowleft,16.66551724,1280,664.5,186,7,-1,27,35,25,35,TRUE
null,null,psychophysics,380,811867,0.0-3.0-1.185,,key,null,16.66781356,1280,664.5,,,,,,,,
1047.8,arrowright,psychophysics,381,812922,0.0-3.0-0.186,,key,arrowright,16.66947619,1280,664.5,187,7,1,26,15,25,35,TRUE
null,null,psychophysics,382,813934,0.0-3.0-1.186,,key,null,16.66438983,1280,664.5,,,,,,,,
870.3,arrowright,psychophysics,383,814811,0.0-3.0-0.187,,key,arrowright,16.67067308,1280,664.5,188,7,-1,25,35,25,35,FALSE
null,null,psychophysics,384,815817,0.0-3.0-1.187,,key,null,16.66050847,1280,664.5,,,,,,,,
921,arrowright,psychophysics,385,816747,0.0-3.0-0.188,,key,arrowright,16.67063636,1280,664.5,189,7,1,30,15,25,35,TRUE
null,null,psychophysics,386,817751,0.0-3.0-1.188,,key,null,16.67133898,1280,664.5,,,,,,,,
907.6,arrowleft,psychophysics,387,818667,0.0-3.0-0.189,,key,arrowleft,16.67075926,1280,664.5,190,7,-1,30,15,25,35,TRUE
null,null,psychophysics,388,819669,0.0-3.0-1.189,,key,null,16.67101667,1280,664.5,,,,,,,,
946.1,arrowright,psychophysics,389,820620,0.0-3.0-0.190,,key,arrowright,16.661125,1280,664.5,191,7,-1,20,35,25,35,FALSE
null,null,psychophysics,390,821630,0.0-3.0-1.190,,key,null,16.66657627,1280,664.5,,,,,,,,
1849.1,arrowright,psychophysics,391,823483,0.0-3.0-0.191,,key,arrowright,16.67061818,1280,664.5,192,7,-1,26,35,25,35,FALSE
null,null,psychophysics,392,824487,0.0-3.0-1.191,,key,null,16.67125,1280,664.5,,,,,,,,
1104.8,arrowright,psychophysics,393,825597,0.0-3.0-0.192,,key,arrowright,16.66518462,1280,664.5,193,7,1,27,35,25,35,TRUE
null,null,psychophysics,394,826603,0.0-3.0-1.192,,key,null,16.66569492,1280,664.5,,,,,,,,
666.2,arrowleft,psychophysics,395,827276,0.0-3.0-0.193,,key,arrowleft,16.670175,1280,664.5,194,7,-1,27,15,25,35,TRUE
null,null,psychophysics,396,828286,0.0-3.0-1.193,,key,null,16.66845763,1280,664.5,,,,,,,,
1144.3,arrowleft,psychophysics,397,829438,0.0-3.0-0.194,,key,arrowleft,16.66110145,1280,664.5,195,7,-1,27,15,25,35,TRUE
null,null,psychophysics,398,830453,0.0-3.0-1.194,,key,null,16.67050847,1280,664.5,,,,,,,,
2047.2,arrowleft,psychophysics,399,832508,0.0-3.0-0.195,,key,arrowleft,16.66968293,1280,664.5,196,8,1,25,35,25,35,FALSE
null,null,psychophysics,400,833518,0.0-3.0-1.195,,key,null,16.66679661,1280,664.5,,,,,,,,
32733.1,control,html-keyboard-response,401,866253,0.0-3.0-2.195-0.195,"<div style=""color: white; text-align: center; vertical-align: top; display: inline-block; width: 800px; margin: auto""><p>You have completed 70% of the trials. You are on block 8 of 10. <br>Good job! Take a break if you need to.</p><p>Press any key to continue the experiment.</p></div>",,,,,,,,,,,,,
204241.6,arrowleft,psychophysics,402,1071644,0.0-3.0-0.196,,key,arrowleft,16.66948031,1280,664.5,197,8,-1,26,15,25,35,TRUE
null,null,psychophysics,403,1072650,0.0-3.0-1.196,,key,null,16.67176271,1280,664.5,,,,,,,,
1140.3,arrowleft,psychophysics,404,1073804,0.0-3.0-0.197,,key,arrowleft,16.66436232,1280,664.5,198,8,-1,27,35,25,35,TRUE
null,null,psychophysics,405,1074817,0.0-3.0-1.197,,key,null,16.67262712,1280,664.5,,,,,,,,
721.4,arrowleft,psychophysics,406,1075548,0.0-3.0-0.198,,key,arrowleft,16.66367442,1280,664.5,199,8,-1,30,15,25,35,TRUE
null,null,psychophysics,407,1076550,0.0-3.0-1.198,,key,null,16.6769322,1280,664.5,,,,,,,,
697.4,arrowleft,psychophysics,408,1077259,0.0-3.0-0.199,,key,arrowleft,16.66740476,1280,664.5,200,8,1,20,35,25,35,FALSE
null,null,psychophysics,409,1078265,0.0-3.0-1.199,,key,null,16.66562712,1280,664.5,,,,,,,,
734,arrowleft,psychophysics,410,1079004,0.0-3.0-0.200,,key,arrowleft,16.66754545,1280,664.5,201,8,1,20,35,25,35,FALSE
null,null,psychophysics,411,1080017,0.0-3.0-1.200,,key,null,16.67181356,1280,664.5,,,,,,,,
544.5,arrowright,psychophysics,412,1080573,0.0-3.0-0.201,,key,arrowright,16.65563636,1280,664.5,202,8,1,27,15,25,35,TRUE
null,null,psychophysics,413,1081584,0.0-3.0-1.201,,key,null,16.66901695,1280,664.5,,,,,,,,
640.9,arrowright,psychophysics,414,1082236,0.0-3.0-0.202,,key,arrowright,16.67169231,1280,664.5,203,8,-1,23,35,25,35,FALSE
null,null,psychophysics,415,1083249,0.0-3.0-1.202,,key,null,16.6680678,1280,664.5,,,,,,,,
2017,arrowright,psychophysics,416,1085277,0.0-3.0-0.203,,key,arrowright,16.6697686,1280,664.5,204,8,1,24,15,25,35,TRUE
null,null,psychophysics,417,1086284,0.0-3.0-1.203,,key,null,16.66728814,1280,664.5,,,,,,,,
1797,arrowleft,psychophysics,418,1088092,0.0-3.0-0.204,,key,arrowleft,16.6695463,1280,664.5,205,8,-1,20,15,25,35,TRUE
null,null,psychophysics,419,1089101,0.0-3.0-1.204,,key,null,16.66861017,1280,664.5,,,,,,,,
1219.7,arrowright,psychophysics,420,1090332,0.0-3.0-0.205,,key,arrowright,16.66478082,1280,664.5,206,8,-1,25,35,25,35,FALSE
null,null,psychophysics,421,1091335,0.0-3.0-1.205,,key,null,16.67161017,1280,664.5,,,,,,,,
2107.7,arrowright,psychophysics,422,1093453,0.0-3.0-0.206,,key,arrowright,16.66451969,1280,664.5,207,8,1,24,35,25,35,TRUE
null,null,psychophysics,423,1094464,0.0-3.0-1.206,,key,null,16.66572881,1280,664.5,,,,,,,,
742.1,arrowright,psychophysics,424,1095210,0.0-3.0-0.207,,key,arrowright,16.66581818,1280,664.5,208,8,1,27,15,25,35,TRUE
null,null,psychophysics,425,1096218,0.0-3.0-1.207,,key,null,16.67347458,1280,664.5,,,,,,,,
711.6,arrowright,psychophysics,426,1096940,0.0-3.0-0.208,,key,arrowright,16.66762791,1280,664.5,209,8,1,30,35,25,35,TRUE
null,null,psychophysics,427,1097949,0.0-3.0-1.208,,key,null,16.66047458,1280,664.5,,,,,,,,
700.4,arrowleft,psychophysics,428,1098653,0.0-3.0-0.209,,key,arrowleft,16.66740476,1280,664.5,210,8,1,20,15,25,35,FALSE
null,null,psychophysics,429,1099668,0.0-3.0-1.209,,key,null,16.66533898,1280,664.5,,,,,,,,
2333,arrowleft,psychophysics,430,1102012,0.0-3.0-0.210,,key,arrowleft,16.66723571,1280,664.5,211,8,1,20,15,25,35,FALSE
null,null,psychophysics,431,1103018,0.0-3.0-1.210,,key,null,16.66569492,1280,664.5,,,,,,,,
807.6,arrowleft,psychophysics,432,1103837,0.0-3.0-0.211,,key,arrowleft,16.66216327,1280,664.5,212,8,-1,26,35,25,35,TRUE
null,null,psychophysics,433,1104845,0.0-3.0-1.211,,key,null,16.67081356,1280,664.5,,,,,,,,
715.4,arrowleft,psychophysics,434,1105564,0.0-3.0-0.212,,key,arrowleft,16.6637381,1280,664.5,213,8,-1,30,35,25,35,TRUE
null,null,psychophysics,435,1106569,0.0-3.0-1.212,,key,null,16.6709322,1280,664.5,,,,,,,,
1880.2,arrowleft,psychophysics,436,1108460,0.0-3.0-0.213,,key,arrowleft,16.66787611,1280,664.5,214,8,1,25,35,25,35,FALSE
null,null,psychophysics,437,1109468,0.0-3.0-1.213,,key,null,16.67033898,1280,664.5,,,,,,,,
1092.3,arrowleft,psychophysics,438,1110573,0.0-3.0-0.214,,key,arrowleft,16.66810606,1280,664.5,215,8,-1,25,15,25,35,TRUE
null,null,psychophysics,439,1111586,0.0-3.0-1.214,,key,null,16.66733898,1280,664.5,,,,,,,,
941.9,arrowright,psychophysics,440,1112539,0.0-3.0-0.215,,key,arrowright,16.65884211,1280,664.5,216,8,1,26,35,25,35,TRUE
null,null,psychophysics,441,1113548,0.0-3.0-1.215,,key,null,16.67328814,1280,664.5,,,,,,,,
780.2,arrowleft,psychophysics,442,1114332,0.0-3.0-0.216,,key,arrowleft,16.67263043,1280,664.5,217,8,-1,24,15,25,35,TRUE
null,null,psychophysics,443,1115336,0.0-3.0-1.216,,key,null,16.67408475,1280,664.5,,,,,,,,
584.2,arrowright,psychophysics,444,1115932,0.0-3.0-0.217,,key,arrowright,16.66277143,1280,664.5,218,8,1,30,15,25,35,TRUE
null,null,psychophysics,445,1116936,0.0-3.0-1.217,,key,null,16.66533898,1280,664.5,,,,,,,,
794.9,arrowright,psychophysics,446,1117740,0.0-3.0-0.218,,key,arrowright,16.66435417,1280,664.5,219,8,1,25,15,25,35,TRUE
null,null,psychophysics,447,1118753,0.0-3.0-1.218,,key,null,16.67567797,1280,664.5,,,,,,,,
703.8,arrowright,psychophysics,448,1119468,0.0-3.0-0.219,,key,arrowright,16.66821429,1280,664.5,220,8,1,24,15,25,35,TRUE
null,null,psychophysics,449,1120471,0.0-3.0-1.219,,key,null,16.6699,1280,664.5,,,,,,,,
1793.1,arrowleft,psychophysics,450,1122269,0.0-3.0-0.220,,key,arrowleft,16.6655283,1280,664.5,221,8,1,25,35,25,35,FALSE
null,null,psychophysics,451,1123271,0.0-3.0-1.220,,key,null,16.67468333,1280,664.5,,,,,,,,
622.2,arrowright,psychophysics,452,1123899,0.0-3.0-0.221,,key,arrowright,16.66358333,1280,664.5,222,8,1,24,15,25,35,TRUE
null,null,psychophysics,453,1124903,0.0-3.0-1.221,,key,null,16.67284746,1280,664.5,,,,,,,,
651.4,arrowleft,psychophysics,454,1125564,0.0-3.0-0.222,,key,arrowleft,16.66784615,1280,664.5,223,8,-1,27,35,25,35,TRUE
null,null,psychophysics,455,1126570,0.0-3.0-1.222,,key,null,16.66089831,1280,664.5,,,,,,,,
728.3,arrowright,psychophysics,456,1127309,0.0-3.0-0.223,,key,arrowright,16.66629545,1280,664.5,224,9,1,24,35,25,35,TRUE
null,null,psychophysics,457,1128320,0.0-3.0-1.223,,key,null,16.6689322,1280,664.5,,,,,,,,
938.1,arrowright,html-keyboard-response,458,1129260,0.0-3.0-2.223-0.223,"<div style=""color: white; text-align: center; vertical-align: top; display: inline-block; width: 800px; margin: auto""><p>You have completed 80% of the trials. You are on block 9 of 10. <br>Good job! Take a break if you need to.</p><p>Press any key to continue the experiment.</p></div>",,,,,,,,,,,,,
1209,arrowleft,psychophysics,459,1131499,0.0-3.0-0.224,,key,arrowleft,16.67013699,1280,664.5,225,9,-1,25,15,25,35,TRUE
null,null,psychophysics,460,1132504,0.0-3.0-1.224,,key,null,16.67988136,1280,664.5,,,,,,,,
633.2,arrowright,psychophysics,461,1133148,0.0-3.0-0.225,,key,arrowright,16.67176316,1280,664.5,226,9,-1,25,35,25,35,FALSE
null,null,psychophysics,462,1134154,0.0-3.0-1.225,,key,null,16.67140678,1280,664.5,,,,,,,,
711.8,arrowright,psychophysics,463,1134877,0.0-3.0-0.226,,key,arrowright,16.66532558,1280,664.5,227,9,1,24,15,25,35,TRUE
null,null,psychophysics,464,1135889,0.0-3.0-1.226,,key,null,16.67105,1280,664.5,,,,,,,,
1831.3,arrowleft,psychophysics,465,1137725,0.0-3.0-0.227,,key,arrowleft,16.66731193,1280,664.5,228,9,-1,27,15,25,35,TRUE
null,null,psychophysics,466,1138731,0.0-3.0-1.227,,key,null,16.67027119,1280,664.5,,,,,,,,
716.2,arrowleft,psychophysics,467,1139452,0.0-3.0-0.228,,key,arrowleft,16.67080952,1280,664.5,229,9,-1,30,35,25,35,TRUE
null,null,psychophysics,468,1140455,0.0-3.0-1.228,,key,null,16.67313559,1280,664.5,,,,,,,,
1149,arrowleft,psychophysics,469,1141613,0.0-3.0-0.229,,key,arrowleft,16.66494203,1280,664.5,230,9,-1,26,35,25,35,TRUE
null,null,psychophysics,470,1142621,0.0-3.0-1.229,,key,null,16.66423729,1280,664.5,,,,,,,,
1652,arrowleft,psychophysics,471,1144285,0.0-3.0-0.230,,key,arrowleft,16.66373737,1280,664.5,231,9,-1,25,15,25,35,TRUE
null,null,psychophysics,472,1145288,0.0-3.0-1.230,,key,null,16.67479661,1280,664.5,,,,,,,,
682.9,arrowright,psychophysics,473,1145981,0.0-3.0-0.231,,key,arrowright,16.66760976,1280,664.5,232,9,1,27,15,25,35,TRUE
null,null,psychophysics,474,1146986,0.0-3.0-1.231,,key,null,16.66872881,1280,664.5,,,,,,,,
1438.4,arrowright,psychophysics,475,1148428,0.0-3.0-0.232,,key,arrowright,16.67040698,1280,664.5,233,9,-1,23,15,25,35,FALSE
null,null,psychophysics,476,1149438,0.0-3.0-1.232,,key,null,16.66459322,1280,664.5,,,,,,,,
1077.5,arrowright,psychophysics,477,1150525,0.0-3.0-0.233,,key,arrowright,16.66609231,1280,664.5,234,9,1,24,35,25,35,TRUE
null,null,psychophysics,478,1151538,0.0-3.0-1.233,,key,null,16.668,1280,664.5,,,,,,,,
606.2,arrowleft,psychophysics,479,1152156,0.0-3.0-0.234,,key,arrowleft,16.66372973,1280,664.5,235,9,-1,30,15,25,35,TRUE
null,null,psychophysics,480,1153172,0.0-3.0-1.234,,key,null,16.66813559,1280,664.5,,,,,,,,
669.7,arrowright,psychophysics,481,1153852,0.0-3.0-0.235,,key,arrowright,16.67225,1280,664.5,236,9,1,24,35,25,35,TRUE
null,null,psychophysics,482,1154855,0.0-3.0-1.235,,key,null,16.66733898,1280,664.5,,,,,,,,
632,arrowright,psychophysics,483,1155499,0.0-3.0-0.236,,key,arrowright,16.66334211,1280,664.5,237,9,1,25,15,25,35,TRUE
null,null,psychophysics,484,1156505,0.0-3.0-1.236,,key,null,16.67816949,1280,664.5,,,,,,,,
1688,arrowleft,psychophysics,485,1158205,0.0-3.0-0.237,,key,arrowleft,16.66724752,1280,664.5,238,9,1,27,35,25,35,FALSE
null,null,psychophysics,486,1159207,0.0-3.0-1.237,,key,null,16.67406667,1280,664.5,,,,,,,,
687.2,arrowright,psychophysics,487,1159900,0.0-3.0-0.238,,key,arrowright,16.667575,1280,664.5,239,9,-1,23,35,25,35,FALSE
null,null,psychophysics,488,1160906,0.0-3.0-1.238,,key,null,16.66357627,1280,664.5,,,,,,,,
1432.6,arrowleft,psychophysics,489,1162349,0.0-3.0-0.239,,key,arrowleft,16.66417442,1280,664.5,240,9,-1,27,35,25,35,TRUE
null,null,psychophysics,490,1163356,0.0-3.0-1.239,,key,null,16.66955932,1280,664.5,,,,,,,,
884.2,arrowleft,psychophysics,491,1164253,0.0-3.0-0.240,,key,arrowleft,16.66815094,1280,664.5,241,9,-1,27,15,25,35,TRUE
null,null,psychophysics,492,1165256,0.0-3.0-1.240,,key,null,16.67452542,1280,664.5,,,,,,,,
875.5,arrowleft,psychophysics,493,1166141,0.0-3.0-0.241,,key,arrowleft,16.66375472,1280,664.5,242,9,-1,26,15,25,35,TRUE
null,null,psychophysics,494,1167156,0.0-3.0-1.241,,key,null,16.66772881,1280,664.5,,,,,,,,
1133.7,arrowleft,psychophysics,495,1168300,0.0-3.0-0.242,,key,arrowleft,16.66152941,1280,664.5,243,9,1,20,15,25,35,FALSE
null,null,psychophysics,496,1169306,0.0-3.0-1.242,,key,null,16.66627119,1280,664.5,,,,,,,,
1369.6,arrowleft,psychophysics,497,1170685,0.0-3.0-0.243,,key,arrowleft,16.66504878,1280,664.5,244,9,1,20,15,25,35,FALSE
null,null,psychophysics,498,1171689,0.0-3.0-1.243,,key,null,16.67118644,1280,664.5,,,,,,,,
859,arrowleft,psychophysics,499,1172558,0.0-3.0-0.244,,key,arrowleft,16.66338462,1280,664.5,245,9,1,20,35,25,35,FALSE
null,null,psychophysics,500,1173563,0.0-3.0-1.244,,key,null,16.66671186,1280,664.5,,,,,,,,
1182.3,arrowleft,psychophysics,501,1174749,0.0-3.0-0.245,,key,arrowleft,16.66732857,1280,664.5,246,9,1,23,35,25,35,FALSE
null,null,psychophysics,502,1175756,0.0-3.0-1.245,,key,null,16.66433898,1280,664.5,,,,,,,,
1367.4,arrowright,psychophysics,503,1177133,0.0-3.0-0.246,,key,arrowright,16.6674878,1280,664.5,247,9,1,27,35,25,35,TRUE
null,null,psychophysics,504,1178140,0.0-3.0-1.246,,key,null,16.65974576,1280,664.5,,,,,,,,
678.5,arrowright,psychophysics,505,1178829,0.0-3.0-0.247,,key,arrowright,16.66797561,1280,664.5,248,9,1,30,35,25,35,TRUE
null,null,psychophysics,506,1179834,0.0-3.0-1.247,,key,null,16.66967797,1280,664.5,,,,,,,,
1006.5,arrowleft,psychophysics,507,1180844,0.0-3.0-0.248,,key,arrowleft,16.67075,1280,664.5,249,9,-1,25,15,25,35,TRUE
null,null,psychophysics,508,1181857,0.0-3.0-1.248,,key,null,16.66972881,1280,664.5,,,,,,,,
879.9,arrowleft,psychophysics,509,1182749,0.0-3.0-0.249,,key,arrowleft,16.66590566,1280,664.5,250,9,-1,25,15,25,35,TRUE
null,null,psychophysics,510,1183757,0.0-3.0-1.249,,key,null,16.66644068,1280,664.5,,,,,,,,
707.9,arrowleft,psychophysics,511,1184476,0.0-3.0-0.250,,key,arrowleft,16.67362791,1280,664.5,251,9,-1,25,15,25,35,TRUE
null,null,psychophysics,512,1185490,0.0-3.0-1.250,,key,null,16.66384746,1280,664.5,,,,,,,,
1443,arrowright,psychophysics,513,1186942,0.0-3.0-0.251,,key,arrowright,16.66672414,1280,664.5,252,10,-1,23,35,25,35,FALSE
null,null,psychophysics,514,1187957,0.0-3.0-1.251,,key,null,16.67155932,1280,664.5,,,,,,,,
710.2,arrowright,html-keyboard-response,515,1188669,0.0-3.0-2.251-0.251,"<div style=""color: white; text-align: center; vertical-align: top; display: inline-block; width: 800px; margin: auto""><p>You have completed 90% of the trials. You are on block 10 of 10. <br>Good job! Take a break if you need to.</p><p>Press any key to continue the experiment.</p></div>",,,,,,,,,,,,,
1454.1,arrowright,psychophysics,516,1191149,0.0-3.0-0.252,,key,arrowright,16.85467816,1280,664.5,253,10,1,23,15,25,35,TRUE
null,null,psychophysics,517,1192157,0.0-3.0-1.252,,key,null,16.66959322,1280,664.5,,,,,,,,
851.8,arrowleft,psychophysics,518,1193020,0.0-3.0-0.253,,key,arrowleft,16.66990196,1280,664.5,254,10,-1,27,15,25,35,TRUE
null,null,psychophysics,519,1194024,0.0-3.0-1.253,,key,null,16.67213559,1280,664.5,,,,,,,,
651.7,arrowleft,psychophysics,520,1194685,0.0-3.0-0.254,,key,arrowleft,16.67010256,1280,664.5,255,10,-1,26,15,25,35,TRUE
null,null,psychophysics,521,1195691,0.0-3.0-1.254,,key,null,16.66764407,1280,664.5,,,,,,,,
597.3,arrowleft,psychophysics,522,1196300,0.0-3.0-0.255,,key,arrowleft,16.66486111,1280,664.5,256,10,-1,25,15,25,35,TRUE
null,null,psychophysics,523,1197307,0.0-3.0-1.255,,key,null,16.66150847,1280,664.5,,,,,,,,
1254.5,arrowleft,psychophysics,524,1198573,0.0-3.0-0.256,,key,arrowleft,16.66894667,1280,664.5,257,10,-1,23,15,25,35,TRUE
null,null,psychophysics,525,1199575,0.0-3.0-1.256,,key,null,16.66698333,1280,664.5,,,,,,,,
832.2,arrowright,psychophysics,526,1200413,0.0-3.0-0.257,,key,arrowright,16.66255102,1280,664.5,258,10,-1,20,35,25,35,FALSE
null,null,psychophysics,527,1201424,0.0-3.0-1.257,,key,null,16.66747458,1280,664.5,,,,,,,,
591.7,arrowleft,psychophysics,528,1202028,0.0-3.0-0.258,,key,arrowleft,16.66686111,1280,664.5,259,10,-1,27,15,25,35,TRUE
null,null,psychophysics,529,1203041,0.0-3.0-1.258,,key,null,16.67016949,1280,664.5,,,,,,,,
607.3,arrowright,psychophysics,530,1203659,0.0-3.0-0.259,,key,arrowright,16.67121622,1280,664.5,260,10,1,30,35,25,35,TRUE
null,null,psychophysics,531,1204671,0.0-3.0-1.259,,key,null,16.66766102,1280,664.5,,,,,,,,
694.3,arrowleft,psychophysics,532,1205370,0.0-3.0-0.260,,key,arrowleft,16.66436585,1280,664.5,261,10,1,25,35,25,35,FALSE
null,null,psychophysics,533,1206374,0.0-3.0-1.260,,key,null,16.67728814,1280,664.5,,,,,,,,
764.1,arrowright,psychophysics,534,1207149,0.0-3.0-0.261,,key,arrowright,16.66808696,1280,664.5,262,10,1,26,15,25,35,TRUE
null,null,psychophysics,535,1208158,0.0-3.0-1.261,,key,null,16.66623729,1280,664.5,,,,,,,,
613,arrowleft,psychophysics,536,1208781,0.0-3.0-0.262,,key,arrowleft,16.66435135,1280,664.5,263,10,-1,30,15,25,35,TRUE
null,null,psychophysics,537,1209791,0.0-3.0-1.262,,key,null,16.67244068,1280,664.5,,,,,,,,
785,arrowright,psychophysics,538,1210589,0.0-3.0-0.263,,key,arrowright,16.66755319,1280,664.5,264,10,-1,20,15,25,35,FALSE
null,null,psychophysics,539,1211591,0.0-3.0-1.263,,key,null,16.66959322,1280,664.5,,,,,,,,
602.3,arrowleft,psychophysics,540,1212204,0.0-3.0-0.264,,key,arrowleft,16.67863889,1280,664.5,265,10,-1,30,35,25,35,TRUE
null,null,psychophysics,541,1213209,0.0-3.0-1.264,,key,null,16.67320339,1280,664.5,,,,,,,,
663.3,arrowleft,psychophysics,542,1213885,0.0-3.0-0.265,,key,arrowleft,16.669475,1280,664.5,266,10,-1,27,15,25,35,TRUE
null,null,psychophysics,543,1214892,0.0-3.0-1.265,,key,null,16.67335593,1280,664.5,,,,,,,,
676.4,arrowright,psychophysics,544,1215581,0.0-3.0-0.266,,key,arrowright,16.66590244,1280,664.5,267,10,1,30,15,25,35,TRUE
null,null,psychophysics,545,1216592,0.0-3.0-1.266,,key,null,16.67213559,1280,664.5,,,,,,,,
674.8,arrowleft,psychophysics,546,1217277,0.0-3.0-0.267,,key,arrowleft,16.66153659,1280,664.5,268,10,-1,24,15,25,35,TRUE
null,null,psychophysics,547,1218287,0.0-3.0-1.267,,key,null,16.66386441,1280,664.5,,,,,,,,
634,arrowleft,psychophysics,548,1218925,0.0-3.0-0.268,,key,arrowleft,16.67040541,1280,664.5,269,10,-1,26,15,25,35,TRUE
null,null,psychophysics,549,1219939,0.0-3.0-1.268,,key,null,16.67051667,1280,664.5,,,,,,,,
2454.4,arrowright,psychophysics,550,1222397,0.0-3.0-0.269,,key,arrowright,16.67034014,1280,664.5,270,10,1,26,35,25,35,TRUE
null,null,psychophysics,551,1223402,0.0-3.0-1.269,,key,null,16.67061017,1280,664.5,,,,,,,,
766,arrowleft,psychophysics,552,1224172,0.0-3.0-0.270,,key,arrowleft,16.66242222,1280,664.5,271,10,-1,27,35,25,35,TRUE
null,null,psychophysics,553,1225175,0.0-3.0-1.270,,key,null,16.67164407,1280,664.5,,,,,,,,
763.8,arrowleft,psychophysics,554,1225950,0.0-3.0-0.271,,key,arrowleft,16.67365217,1280,664.5,272,10,-1,23,15,25,35,TRUE
null,null,psychophysics,555,1226959,0.0-3.0-1.271,,key,null,16.66572881,1280,664.5,,,,,,,,
1009.7,arrowright,psychophysics,556,1227982,0.0-3.0-0.272,,key,arrowright,16.66709836,1280,664.5,273,10,-1,24,35,25,35,FALSE
null,null,psychophysics,557,1228990,0.0-3.0-1.272,,key,null,16.66438983,1280,664.5,,,,,,,,
586.5,arrowright,psychophysics,558,1229580,0.0-3.0-0.273,,key,arrowright,16.68685714,1280,664.5,274,10,1,30,35,25,35,TRUE
null,null,psychophysics,559,1230593,0.0-3.0-1.273,,key,null,16.66432203,1280,664.5,,,,,,,,
704.1,arrowright,psychophysics,560,1231308,0.0-3.0-0.274,,key,arrowright,16.67021429,1280,664.5,275,10,1,25,15,25,35,TRUE
null,null,psychophysics,561,1232311,0.0-3.0-1.274,,key,null,16.67431667,1280,664.5,,,,,,,,
641.9,arrowleft,psychophysics,562,1232957,0.0-3.0-0.275,,key,arrowleft,16.65824324,1280,664.5,276,10,1,20,35,25,35,FALSE
null,null,psychophysics,563,1233960,0.0-3.0-1.275,,key,null,16.66991525,1280,664.5,,,,,,,,
601.4,arrowleft,psychophysics,564,1234572,0.0-3.0-0.276,,key,arrowleft,16.66866667,1280,664.5,277,10,-1,30,35,25,35,TRUE
null,null,psychophysics,565,1235576,0.0-3.0-1.276,,key,null,16.67150847,1280,664.5,,,,,,,,
1416.4,arrowright,psychophysics,566,1237004,0.0-3.0-0.277,,key,arrowright,16.66744706,1280,664.5,278,10,1,30,15,25,35,TRUE
null,null,psychophysics,567,1238011,0.0-3.0-1.277,,key,null,16.66235593,1280,664.5,,,,,,,,
839.8,arrowright,psychophysics,568,1238862,0.0-3.0-0.278,,key,arrowright,16.65962745,1280,664.5,279,10,1,24,15,25,35,TRUE
null,null,psychophysics,569,1239871,0.0-3.0-1.278,,key,null,16.67055932,1280,664.5,,,,,,,,
954.1,arrowright,psychophysics,570,1240829,0.0-3.0-0.279,,key,arrowright,16.67231579,1280,664.5,280,11,1,24,35,25,35,TRUE
null,null,psychophysics,571,1241843,0.0-3.0-1.279,,key,null,16.66442373,1280,664.5,,,,,,,,
