"rt","response","trial_type","trial_index","time_elapsed","internal_node_id","stimulus","response_type","key_press","avg_frame_time","center_x","center_y","trial","block","test_pos","test_inner_radius","test_outer_radius","ref_inner_radius","ref_outer_radius","test_bigger"
"22215.19999998808","{""p_id"":""0759"",""age"":""19"",""handedness"":""right"",""sex"":""female"",""other_sex"":""""}","survey-html-form","0","22219","0.0-0.0","","","","","","","","","","","","","",""
"8137.899999976158"," ","html-keyboard-response","1","30358","0.0-1.0","<p style=""color: white"">Welcome to the Size Judgment Experiment. <br>There will be 10 blocks in this experiment. <br>There will be 28 trials in each block. <br>You will be given a chance to take a break between blocks. <br>Press any key to start the experiment.</p>","","","","","","","","","","","","",""
"6798.600000023842"," ","psychophysics","2","37175","0.0-2.0","","key"," ","16.685475490196087","640","344.5","","","","","","","",""
"1224","arrowleft","psychophysics","3","38402","0.0-3.0-0.0","","key","arrowleft","16.673999999999964","640","344.5","1","1","-1","25","35","25","35","true"
"null","null","psychophysics","4","39403","0.0-3.0-1.0","","key","null","16.674000000000056","640","344.5","","","","","","","",""
"1463.699999988079","arrowleft","psychophysics","5","40870","0.0-3.0-0.1","","key","arrowleft","16.67399999999999","640","344.5","2","1","-1","24","15","25","35","true"
"null","null","psychophysics","6","41871","0.0-3.0-1.1","","key","null","16.674000000000056","640","344.5","","","","","","","",""
"2052.899999976158","arrowleft","psychophysics","7","43927","0.0-3.0-0.2","","key","arrowleft","16.673999999999964","640","344.5","3","1","-1","25","15","25","35","true"
"null","null","psychophysics","8","44932","0.0-3.0-1.2","","key","null","16.673999999999918","640","344.5","","","","","","","",""
"1023","arrowright","psychophysics","9","45959","0.0-3.0-0.3","","key","arrowright","16.67400000000004","640","344.5","4","1","1","26","15","25","35","true"
"null","null","psychophysics","10","46965","0.0-3.0-1.3","","key","null","16.674000000000056","640","344.5","","","","","","","",""
"885.6000000238419","arrowleft","psychophysics","11","47856","0.0-3.0-0.4","","key","arrowleft","16.674000000000028","640","344.5","5","1","1","20","15","25","35","false"
"null","null","psychophysics","12","48860","0.0-3.0-1.4","","key","null","16.673999999999932","640","344.5","","","","","","","",""
"960.8999999761581","arrowright","psychophysics","13","49824","0.0-3.0-0.5","","key","arrowright","16.67400000000009","640","344.5","6","1","1","27","35","25","35","true"
"null","null","psychophysics","14","50825","0.0-3.0-1.5","","key","null","16.754033898305043","640","344.5","","","","","","","",""
"1290.199999988079","arrowleft","psychophysics","15","52118","0.0-3.0-0.6","","key","arrowleft","16.674000000000024","640","344.5","7","1","-1","26","35","25","35","true"
"null","null","psychophysics","16","53122","0.0-3.0-1.6","","key","null","16.674000000000056","640","344.5","","","","","","","",""
"1067.6000000238419","arrowleft","psychophysics","17","54194","0.0-3.0-0.7","","key","arrowleft","16.673999999999978","640","344.5","8","1","1","23","35","25","35","false"
"null","null","psychophysics","18","55198","0.0-3.0-1.7","","key","null","16.674000000000056","640","344.5","","","","","","","",""
"713.3000000119209","arrowleft","psychophysics","19","55914","0.0-3.0-0.8","","key","arrowleft","16.673999999999936","640","344.5","9","1","1","20","35","25","35","false"
"null","null","psychophysics","20","56916","0.0-3.0-1.8","","key","null","16.674000000000056","640","344.5","","","","","","","",""
"543.6999999880791","arrowright","psychophysics","21","57463","0.0-3.0-0.9","","key","arrowright","16.673999999999978","640","344.5","10","1","-1","20","15","25","35","false"
"null","null","psychophysics","22","58465","0.0-3.0-1.9","","key","null","16.674000000000056","640","344.5","","","","","","","",""
"548.8999999761581","arrowright","psychophysics","23","59017","0.0-3.0-0.10","","key","arrowright","16.673999999999978","640","344.5","11","1","-1","20","15","25","35","false"
"null","null","psychophysics","24","60019","0.0-3.0-1.10","","key","null","16.674000000000056","640","344.5","","","","","","","",""
"637.1000000238419","arrowleft","psychophysics","25","60658","0.0-3.0-0.11","","key","arrowleft","16.674000000000053","640","344.5","12","1","-1","26","35","25","35","true"
"null","null","psychophysics","26","61661","0.0-3.0-1.11","","key","null","16.673999999999918","640","344.5","","","","","","","",""
"537.3000000119209","arrowright","psychophysics","27","62203","0.0-3.0-0.12","","key","arrowright","16.674000000000007","640","344.5","13","1","-1","24","15","25","35","false"
"null","null","psychophysics","28","63204","0.0-3.0-1.12","","key","null","16.673999999999932","640","344.5","","","","","","","",""
"816.1999999880791","arrowleft","psychophysics","29","64023","0.0-3.0-0.13","","key","arrowleft","16.673999999999978","640","344.5","14","1","1","24","35","25","35","false"
"null","null","psychophysics","30","65028","0.0-3.0-1.13","","key","null","16.673999999999918","640","344.5","","","","","","","",""
"528.5","arrowleft","psychophysics","31","65561","0.0-3.0-0.14","","key","arrowleft","16.67400000000004","640","344.5","15","1","1","20","15","25","35","false"
"null","null","psychophysics","32","66563","0.0-3.0-1.14","","key","null","16.67400000000004","640","344.5","","","","","","","",""
"612.1999999880791","arrowright","psychophysics","33","67178","0.0-3.0-0.15","","key","arrowright","16.6739999999999","640","344.5","16","1","1","30","15","25","35","true"
"null","null","psychophysics","34","68183","0.0-3.0-1.15","","key","null","16.67400000000004","640","344.5","","","","","","","",""
"1122.5999999642372","arrowleft","psychophysics","35","69308","0.0-3.0-0.16","","key","arrowleft","16.67400000000017","640","344.5","17","1","1","24","35","25","35","false"
"null","null","psychophysics","36","70310","0.0-3.0-1.16","","key","null","16.673999999999808","640","344.5","","","","","","","",""
"573.8999999761581","arrowright","psychophysics","37","70887","0.0-3.0-0.17","","key","arrowright","16.693176470588213","640","344.5","18","1","-1","20","35","25","35","false"
"null","null","psychophysics","38","71892","0.0-3.0-1.17","","key","null","16.673999999999808","640","344.5","","","","","","","",""
"557.3999999761581","arrowleft","psychophysics","39","72452","0.0-3.0-0.18","","key","arrowleft","16.67399999999995","640","344.5","19","1","1","20","35","25","35","false"
"null","null","psychophysics","40","73455","0.0-3.0-1.18","","key","null","16.673999999999808","640","344.5","","","","","","","",""
"507.69999998807907","arrowleft","psychophysics","41","73964","0.0-3.0-0.19","","key","arrowleft","16.67400000000007","640","344.5","20","1","1","23","15","25","35","false"
"null","null","psychophysics","42","74969","0.0-3.0-1.19","","key","null","16.67400000000004","640","344.5","","","","","","","",""
"683","arrowleft","psychophysics","43","75655","0.0-3.0-0.20","","key","arrowleft","16.67400000000016","640","344.5","21","1","-1","30","15","25","35","true"
"null","null","psychophysics","44","76657","0.0-3.0-1.20","","key","null","16.674000000000056","640","344.5","","","","","","","",""
"1099","arrowright","psychophysics","45","77758","0.0-3.0-0.21","","key","arrowright","16.673999999999964","640","344.5","22","1","1","30","15","25","35","true"
"null","null","psychophysics","46","78761","0.0-3.0-1.21","","key","null","16.674000000000056","640","344.5","","","","","","","",""
"818.2000000476837","arrowleft","psychophysics","47","79582","0.0-3.0-0.22","","key","arrowleft","16.673999999999978","640","344.5","23","1","-1","27","15","25","35","true"
"null","null","psychophysics","48","80586","0.0-3.0-1.22","","key","null","16.674000000000056","640","344.5","","","","","","","",""
"948.8999999761581","arrowleft","psychophysics","49","81541","0.0-3.0-0.23","","key","arrowleft","16.673999999999836","640","344.5","24","1","1","20","35","25","35","false"
"null","null","psychophysics","50","82543","0.0-3.0-1.23","","key","null","16.674000000000056","640","344.5","","","","","","","",""
"1098.3999999761581","arrowleft","psychophysics","51","83644","0.0-3.0-0.24","","key","arrowleft","16.673999999999964","640","344.5","25","1","1","23","15","25","35","false"
"null","null","psychophysics","52","84646","0.0-3.0-1.24","","key","null","16.673999999999808","640","344.5","","","","","","","",""
"890.8999999761581","arrowleft","psychophysics","53","85540","0.0-3.0-0.25","","key","arrowleft","16.674000000000166","640","344.5","26","1","-1","25","35","25","35","true"
"null","null","psychophysics","54","86544","0.0-3.0-1.25","","key","null","16.674000000000056","640","344.5","","","","","","","",""
"752.5","arrowleft","psychophysics","55","87298","0.0-3.0-0.26","","key","arrowleft","16.67399999999973","640","344.5","27","1","1","20","35","25","35","false"
"null","null","psychophysics","56","88301","0.0-3.0-1.26","","key","null","16.673999999999808","640","344.5","","","","","","","",""
"634.5","arrowleft","psychophysics","57","88938","0.0-3.0-0.27","","key","arrowleft","16.674000000000248","640","344.5","28","2","1","20","15","25","35","false"
"null","null","psychophysics","58","89943","0.0-3.0-1.27","","key","null","16.67400000000004","640","344.5","","","","","","","",""
"13762.600000023842"," ","html-keyboard-response","59","103716","0.0-3.0-2.27-0.27","<div style=""color: white; text-align: center; vertical-align: top; display: inline-block; width: 800px; margin: auto""><p>You have completed 10% of the trials. You are on block 2 of 10. <br>Good job! Take a break if you need to.</p><p>Press any key to continue the experiment.</p></div>","","","","","","","","","","","","",""
"655.3999999761581","arrowleft","psychophysics","60","105381","0.0-3.0-0.28","","key","arrowleft","16.673999999999797","640","344.5","29","2","-1","30","35","25","35","true"
"null","null","psychophysics","61","106383","0.0-3.0-1.28","","key","null","16.673999999999808","640","344.5","","","","","","","",""
"557","arrowright","psychophysics","62","106943","0.0-3.0-0.29","","key","arrowright","16.67400000000039","640","344.5","30","2","1","25","35","25","35","true"
"null","null","psychophysics","63","107947","0.0-3.0-1.29","","key","null","16.673999999999808","640","344.5","","","","","","","",""
"491.5","arrowright","psychophysics","64","108441","0.0-3.0-0.30","","key","arrowright","16.67400000000011","640","344.5","31","2","-1","20","15","25","35","false"
"null","null","psychophysics","65","109442","0.0-3.0-1.30","","key","null","16.674000000000056","640","344.5","","","","","","","",""
"830.8999999761581","arrowleft","psychophysics","66","110277","0.0-3.0-0.31","","key","arrowleft","16.673999999999943","640","344.5","32","2","1","23","15","25","35","false"
"null","null","psychophysics","67","111278","0.0-3.0-1.31","","key","null","16.674000000000056","640","344.5","","","","","","","",""
"687.3999999761581","arrowleft","psychophysics","68","111968","0.0-3.0-0.32","","key","arrowleft","16.67400000000016","640","344.5","33","2","-1","25","35","25","35","true"
"null","null","psychophysics","69","112973","0.0-3.0-1.32","","key","null","16.674000000000056","640","344.5","","","","","","","",""
"562.3999999761581","arrowright","psychophysics","70","113539","0.0-3.0-0.33","","key","arrowright","16.67399999999995","640","344.5","34","2","-1","20","35","25","35","false"
"null","null","psychophysics","71","114544","0.0-3.0-1.33","","key","null","16.674000000000056","640","344.5","","","","","","","",""
"558.3000000119209","arrowleft","psychophysics","72","115116","0.0-3.0-0.34","","key","arrowleft","16.673999999999925","640","344.5","35","2","1","23","35","25","35","false"
"null","null","psychophysics","73","116120","0.0-3.0-1.34","","key","null","16.674000000000056","640","344.5","","","","","","","",""
"791.3000000119209","arrowleft","psychophysics","74","116914","0.0-3.0-0.35","","key","arrowleft","16.673999999999996","640","344.5","36","2","1","24","35","25","35","false"
"null","null","psychophysics","75","117918","0.0-3.0-1.35","","key","null","16.674000000000056","640","344.5","","","","","","","",""
"748","arrowleft","psychophysics","76","118668","0.0-3.0-0.36","","key","arrowleft","16.67399999999973","640","344.5","37","2","1","25","35","25","35","false"
"null","null","psychophysics","77","119670","0.0-3.0-1.36","","key","null","16.673999999999808","640","344.5","","","","","","","",""
"820.5","arrowleft","psychophysics","78","120493","0.0-3.0-0.37","","key","arrowleft","16.673999999999978","640","344.5","38","2","-1","25","35","25","35","true"
"null","null","psychophysics","79","121498","0.0-3.0-1.37","","key","null","16.673999999999808","640","344.5","","","","","","","",""
"829.8999999761581","arrowleft","psychophysics","80","122332","0.0-3.0-0.38","","key","arrowleft","16.674000000000234","640","344.5","39","2","-1","26","35","25","35","true"
"null","null","psychophysics","81","123337","0.0-3.0-1.38","","key","null","16.673999999999808","640","344.5","","","","","","","",""
"511.4000000357628","arrowright","psychophysics","82","123850","0.0-3.0-0.39","","key","arrowright","16.564633333333767","640","344.5","40","2","-1","20","15","25","35","false"
"null","null","psychophysics","83","124855","0.0-3.0-1.39","","key","null","16.673999999999808","640","344.5","","","","","","","",""
"445.2000000476837","arrowleft","psychophysics","84","125303","0.0-3.0-0.40","","key","arrowleft","16.674000000000188","640","344.5","41","2","1","26","15","25","35","false"
"null","null","psychophysics","85","126304","0.0-3.0-1.40","","key","null","16.674000000000056","640","344.5","","","","","","","",""
"513.8999999761581","arrowright","psychophysics","86","126820","0.0-3.0-0.41","","key","arrowright","16.67400000000004","640","344.5","42","2","-1","20","35","25","35","false"
"null","null","psychophysics","87","127824","0.0-3.0-1.41","","key","null","16.674000000000056","640","344.5","","","","","","","",""
"526.4000000357628","arrowleft","psychophysics","88","128353","0.0-3.0-0.42","","key","arrowleft","16.674000000000007","640","344.5","43","2","1","23","35","25","35","false"
"null","null","psychophysics","89","129355","0.0-3.0-1.42","","key","null","16.674000000000056","640","344.5","","","","","","","",""
"517","arrowright","psychophysics","90","129875","0.0-3.0-0.43","","key","arrowright","16.67400000000004","640","344.5","44","2","-1","23","15","25","35","false"
"null","null","psychophysics","91","130878","0.0-3.0-1.43","","key","null","16.673999999999808","640","344.5","","","","","","","",""
"791.3999999761581","arrowright","psychophysics","92","131672","0.0-3.0-0.44","","key","arrowright","16.67400000000031","640","344.5","45","2","1","30","15","25","35","true"
"null","null","psychophysics","93","132675","0.0-3.0-1.44","","key","null","16.674000000000056","640","344.5","","","","","","","",""
"1163.699999988079","arrowleft","psychophysics","94","133851","0.0-3.0-0.45","","key","arrowleft","16.67399999999991","640","344.5","46","2","1","24","15","25","35","false"
"null","null","psychophysics","95","134854","0.0-3.0-1.45","","key","null","16.67400000000004","640","344.5","","","","","","","",""
"716.6000000238419","arrowleft","psychophysics","96","135573","0.0-3.0-0.46","","key","arrowleft","16.67399999999976","640","344.5","47","2","-1","26","35","25","35","true"
"null","null","psychophysics","97","136578","0.0-3.0-1.46","","key","null","16.674000000000056","640","344.5","","","","","","","",""
"678.3999999761581","arrowleft","psychophysics","98","137258","0.0-3.0-0.47","","key","arrowleft","16.674000000000525","640","344.5","48","2","1","20","15","25","35","false"
"null","null","psychophysics","99","138263","0.0-3.0-1.47","","key","null","16.673999999999563","640","344.5","","","","","","","",""
"966.5","arrowright","psychophysics","100","139232","0.0-3.0-0.48","","key","arrowright","16.67400000000009","640","344.5","49","2","1","26","35","25","35","true"
"null","null","psychophysics","101","140236","0.0-3.0-1.48","","key","null","16.674000000000056","640","344.5","","","","","","","",""
"650.5","arrowleft","psychophysics","102","140892","0.0-3.0-0.49","","key","arrowleft","16.673999999999815","640","344.5","50","2","-1","24","35","25","35","true"
"null","null","psychophysics","103","141895","0.0-3.0-1.49","","key","null","16.673999999999563","640","344.5","","","","","","","",""
"613.1000000238419","arrowright","psychophysics","104","142511","0.0-3.0-0.50","","key","arrowright","16.674000000000685","640","344.5","51","2","-1","23","15","25","35","false"
"null","null","psychophysics","105","143513","0.0-3.0-1.50","","key","null","16.674000000000056","640","344.5","","","","","","","",""
"580.8000000119209","arrowleft","psychophysics","106","144096","0.0-3.0-0.51","","key","arrowleft","16.693235294116995","640","344.5","52","2","1","26","35","25","35","false"
"null","null","psychophysics","107","145100","0.0-3.0-1.51","","key","null","16.674000000000056","640","344.5","","","","","","","",""
"1029","arrowleft","psychophysics","108","146131","0.0-3.0-0.52","","key","arrowleft","16.674000000000024","640","344.5","53","2","-1","24","15","25","35","true"
"null","null","psychophysics","109","147133","0.0-3.0-1.52","","key","null","16.674000000000056","640","344.5","","","","","","","",""
"731.3000000119209","arrowleft","psychophysics","110","147867","0.0-3.0-0.53","","key","arrowleft","16.674000000000422","640","344.5","54","2","-1","25","15","25","35","true"
"null","null","psychophysics","111","148871","0.0-3.0-1.53","","key","null","16.673999999999563","640","344.5","","","","","","","",""
"655","arrowleft","psychophysics","112","149529","0.0-3.0-0.54","","key","arrowleft","16.67400000000056","640","344.5","55","2","-1","30","35","25","35","true"
"null","null","psychophysics","113","150533","0.0-3.0-1.54","","key","null","16.674000000000056","640","344.5","","","","","","","",""
"940.0999999642372","arrowright","psychophysics","114","151475","0.0-3.0-0.55","","key","arrowright","16.673999999999598","640","344.5","56","3","1","27","35","25","35","true"
"null","null","psychophysics","115","152478","0.0-3.0-1.55","","key","null","16.67400000000004","640","344.5","","","","","","","",""
"11488.899999976158"," ","html-keyboard-response","116","163969","0.0-3.0-2.55-0.55","<div style=""color: white; text-align: center; vertical-align: top; display: inline-block; width: 800px; margin: auto""><p>You have completed 20% of the trials. You are on block 3 of 10. <br>Good job! Take a break if you need to.</p><p>Press any key to continue the experiment.</p></div>","","","","","","","","","","","","",""
"869.8000000119209","arrowright","psychophysics","117","165847","0.0-3.0-0.56","","key","arrowright","16.674000000000188","640","344.5","57","3","-1","24","35","25","35","false"
"null","null","psychophysics","118","166852","0.0-3.0-1.56","","key","null","16.674000000000056","640","344.5","","","","","","","",""
"853.5","arrowleft","psychophysics","119","167709","0.0-3.0-0.57","","key","arrowleft","16.67399999999964","640","344.5","58","3","-1","25","35","25","35","true"
"null","null","psychophysics","120","168712","0.0-3.0-1.57","","key","null","16.674000000000056","640","344.5","","","","","","","",""
"723.9000000357628","arrowleft","psychophysics","121","169439","0.0-3.0-0.58","","key","arrowleft","16.674000000000454","640","344.5","59","3","1","23","35","25","35","false"
"null","null","psychophysics","122","170440","0.0-3.0-1.58","","key","null","16.674000000000056","640","344.5","","","","","","","",""
"471.19999998807907","arrowright","psychophysics","123","170916","0.0-3.0-0.59","","key","arrowright","16.67399999999907","640","344.5","60","3","-1","23","35","25","35","false"
"null","null","psychophysics","124","171918","0.0-3.0-1.59","","key","null","16.673999999999563","640","344.5","","","","","","","",""
"489.4000000357628","arrowleft","psychophysics","125","172412","0.0-3.0-0.60","","key","arrowleft","16.67400000000007","640","344.5","61","3","1","26","15","25","35","false"
"null","null","psychophysics","126","173413","0.0-3.0-1.60","","key","null","16.674000000000056","640","344.5","","","","","","","",""
"643.0999999642372","arrowright","psychophysics","127","174059","0.0-3.0-0.61","","key","arrowright","16.6740000000006","640","344.5","62","3","1","30","35","25","35","true"
"null","null","psychophysics","128","175062","0.0-3.0-1.61","","key","null","16.673999999999563","640","344.5","","","","","","","",""
"752.1999999880791","arrowleft","psychophysics","129","175817","0.0-3.0-0.62","","key","arrowleft","16.67400000000039","640","344.5","63","3","1","23","35","25","35","false"
"null","null","psychophysics","130","176819","0.0-3.0-1.62","","key","null","16.674000000000056","640","344.5","","","","","","","",""
"637.5","arrowleft","psychophysics","131","177461","0.0-3.0-0.63","","key","arrowleft","16.673999999999836","640","344.5","64","3","1","20","15","25","35","false"
"null","null","psychophysics","132","178464","0.0-3.0-1.63","","key","null","16.674000000000056","640","344.5","","","","","","","",""
"1087","arrowright","psychophysics","133","179554","0.0-3.0-0.64","","key","arrowright","16.673999999999978","640","344.5","65","3","1","26","35","25","35","true"
"null","null","psychophysics","134","180555","0.0-3.0-1.64","","key","null","16.674000000000056","640","344.5","","","","","","","",""
"571.9000000357628","arrowleft","psychophysics","135","181130","0.0-3.0-0.65","","key","arrowleft","16.673999999999925","640","344.5","66","3","-1","30","15","25","35","true"
"null","null","psychophysics","136","182136","0.0-3.0-1.65","","key","null","16.674000000000056","640","344.5","","","","","","","",""
"464.0999999642372","arrowright","psychophysics","137","182603","0.0-3.0-0.66","","key","arrowright","16.674000000000145","640","344.5","67","3","1","30","15","25","35","true"
"null","null","psychophysics","138","183606","0.0-3.0-1.66","","key","null","16.674000000000056","640","344.5","","","","","","","",""
"653.0999999642372","arrowright","psychophysics","139","184263","0.0-3.0-0.67","","key","arrowright","16.54769230769195","640","344.5","68","3","-1","23","35","25","35","false"
"null","null","psychophysics","140","185266","0.0-3.0-1.67","","key","null","16.674000000000056","640","344.5","","","","","","","",""
"455","arrowleft","psychophysics","141","185724","0.0-3.0-0.68","","key","arrowleft","16.674000000000188","640","344.5","69","3","1","27","15","25","35","false"
"null","null","psychophysics","142","186726","0.0-3.0-1.68","","key","null","16.67400000000004","640","344.5","","","","","","","",""
"624.8000000119209","arrowleft","psychophysics","143","187354","0.0-3.0-0.69","","key","arrowleft","16.67399999999988","640","344.5","70","3","-1","24","15","25","35","true"
"null","null","psychophysics","144","188359","0.0-3.0-1.69","","key","null","16.674000000000056","640","344.5","","","","","","","",""
"454.69999998807907","arrowleft","psychophysics","145","188819","0.0-3.0-0.70","","key","arrowleft","16.674000000000145","640","344.5","71","3","-1","30","15","25","35","true"
"null","null","psychophysics","146","189821","0.0-3.0-1.70","","key","null","16.674000000000056","640","344.5","","","","","","","",""
"649.3999999761581","arrowleft","psychophysics","147","190473","0.0-3.0-0.71","","key","arrowleft","16.673999999999836","640","344.5","72","3","-1","27","35","25","35","true"
"null","null","psychophysics","148","191477","0.0-3.0-1.71","","key","null","16.674000000000056","640","344.5","","","","","","","",""
"772.6000000238419","arrowright","psychophysics","149","192256","0.0-3.0-0.72","","key","arrowright","16.674000000000333","640","344.5","73","3","1","25","15","25","35","true"
"null","null","psychophysics","150","193257","0.0-3.0-1.72","","key","null","16.674000000000056","640","344.5","","","","","","","",""
"515.3000000119209","arrowleft","psychophysics","151","193775","0.0-3.0-0.73","","key","arrowleft","16.67400000000004","640","344.5","74","3","-1","30","15","25","35","true"
"null","null","psychophysics","152","194779","0.0-3.0-1.73","","key","null","16.674000000000056","640","344.5","","","","","","","",""
"756.6000000238419","arrowleft","psychophysics","153","195541","0.0-3.0-0.74","","key","arrowleft","16.673999999999715","640","344.5","75","3","1","20","35","25","35","false"
"null","null","psychophysics","154","196543","0.0-3.0-1.74","","key","null","16.674000000000056","640","344.5","","","","","","","",""
"1252.5","arrowright","psychophysics","155","197798","0.0-3.0-0.75","","key","arrowright","16.673999999999854","640","344.5","76","3","-1","25","35","25","35","false"
"null","null","psychophysics","156","198800","0.0-3.0-1.75","","key","null","16.67400000000004","640","344.5","","","","","","","",""
"929.8999999761581","arrowright","psychophysics","157","199732","0.0-3.0-0.76","","key","arrowright","16.674000000000127","640","344.5","77","3","1","27","15","25","35","true"
"null","null","psychophysics","158","200739","0.0-3.0-1.76","","key","null","16.674000000000056","640","344.5","","","","","","","",""
"922.9000000357628","arrowright","psychophysics","159","201664","0.0-3.0-0.77","","key","arrowright","16.674000000000145","640","344.5","78","3","1","24","15","25","35","true"
"null","null","psychophysics","160","202667","0.0-3.0-1.77","","key","null","16.674000000000056","640","344.5","","","","","","","",""
"632.7999999523163","arrowleft","psychophysics","161","203306","0.0-3.0-0.78","","key","arrowleft","16.673999999999836","640","344.5","79","3","-1","26","15","25","35","true"
"null","null","psychophysics","162","204309","0.0-3.0-1.78","","key","null","16.685762711864268","640","344.5","","","","","","","",""
"846.5","arrowleft","psychophysics","163","205158","0.0-3.0-0.79","","key","arrowleft","16.674000000000234","640","344.5","80","3","1","25","35","25","35","false"
"null","null","psychophysics","164","206161","0.0-3.0-1.79","","key","null","16.674000000000056","640","344.5","","","","","","","",""
"921.6999999880791","arrowright","psychophysics","165","207086","0.0-3.0-0.80","","key","arrowright","16.674000000000145","640","344.5","81","3","-1","23","35","25","35","false"
"null","null","psychophysics","166","208089","0.0-3.0-1.80","","key","null","16.673999999999555","640","344.5","","","","","","","",""
"965.5999999642372","arrowleft","psychophysics","167","209057","0.0-3.0-0.81","","key","arrowleft","16.67400000000009","640","344.5","82","3","1","23","15","25","35","false"
"null","null","psychophysics","168","210060","0.0-3.0-1.81","","key","null","16.674000000000056","640","344.5","","","","","","","",""
"848","arrowleft","psychophysics","169","210911","0.0-3.0-0.82","","key","arrowleft","16.674000000000234","640","344.5","83","3","1","25","15","25","35","false"
"null","null","psychophysics","170","211915","0.0-3.0-1.82","","key","null","16.674000000000056","640","344.5","","","","","","","",""
"843.3000000119209","arrowleft","psychophysics","171","212761","0.0-3.0-0.83","","key","arrowleft","16.67399999999965","640","344.5","84","4","-1","23","15","25","35","true"
"null","null","psychophysics","172","213763","0.0-3.0-1.83","","key","null","16.674000000000056","640","344.5","","","","","","","",""
"16639.900000035763"," ","html-keyboard-response","173","230404","0.0-3.0-2.83-0.83","<div style=""color: white; text-align: center; vertical-align: top; display: inline-block; width: 800px; margin: auto""><p>You have completed 30% of the trials. You are on block 4 of 10. <br>Good job! Take a break if you need to.</p><p>Press any key to continue the experiment.</p></div>","","","","","","","","","","","","",""
"887.6999999880791","arrowright","psychophysics","174","232300","0.0-3.0-0.84","","key","arrowright","16.674000000000166","640","344.5","85","4","-1","23","35","25","35","false"
"null","null","psychophysics","175","233302","0.0-3.0-1.84","","key","null","16.674000000000056","640","344.5","","","","","","","",""
"562","arrowleft","psychophysics","176","233867","0.0-3.0-0.85","","key","arrowleft","16.67399999999995","640","344.5","86","4","-1","30","15","25","35","true"
"null","null","psychophysics","177","234871","0.0-3.0-1.85","","key","null","16.674000000000056","640","344.5","","","","","","","",""
"485.19999998807907","arrowleft","psychophysics","178","235359","0.0-3.0-0.86","","key","arrowleft","16.67400000000011","640","344.5","87","4","1","20","15","25","35","false"
"null","null","psychophysics","179","236362","0.0-3.0-1.86","","key","null","16.674000000000056","640","344.5","","","","","","","",""
"525.5","arrowleft","psychophysics","180","236892","0.0-3.0-0.87","","key","arrowleft","16.674000000000007","640","344.5","88","4","1","20","35","25","35","false"
"null","null","psychophysics","181","237896","0.0-3.0-1.87","","key","null","16.674000000000056","640","344.5","","","","","","","",""
"528.1000000238419","arrowleft","psychophysics","182","238428","0.0-3.0-0.88","","key","arrowleft","16.674000000000007","640","344.5","89","4","1","20","35","25","35","false"
"null","null","psychophysics","183","239430","0.0-3.0-1.88","","key","null","16.674000000000056","640","344.5","","","","","","","",""
"951","arrowleft","psychophysics","184","240385","0.0-3.0-0.89","","key","arrowleft","16.67400000000009","640","344.5","90","4","-1","23","15","25","35","true"
"null","null","psychophysics","185","241390","0.0-3.0-1.89","","key","null","16.673999999999563","640","344.5","","","","","","","",""
"606.9000000357628","arrowleft","psychophysics","186","242001","0.0-3.0-0.90","","key","arrowleft","16.674000000000685","640","344.5","91","4","-1","27","15","25","35","true"
"null","null","psychophysics","187","243004","0.0-3.0-1.90","","key","null","16.674000000000056","640","344.5","","","","","","","",""
"665.5999999642372","arrowright","psychophysics","188","243672","0.0-3.0-0.91","","key","arrowright","16.673999999999815","640","344.5","92","4","1","27","15","25","35","true"
"null","null","psychophysics","189","244674","0.0-3.0-1.91","","key","null","16.674000000000056","640","344.5","","","","","","","",""
"872.5","arrowright","psychophysics","190","245550","0.0-3.0-0.92","","key","arrowright","16.67399999999964","640","344.5","93","4","1","27","35","25","35","true"
"null","null","psychophysics","191","246551","0.0-3.0-1.92","","key","null","16.67400000000004","640","344.5","","","","","","","",""
"612.8999999761581","arrowright","psychophysics","192","247166","0.0-3.0-0.93","","key","arrowright","16.67400000000073","640","344.5","94","4","1","30","35","25","35","true"
"null","null","psychophysics","193","248167","0.0-3.0-1.93","","key","null","16.673999999999563","640","344.5","","","","","","","",""
"569.7999999523163","arrowleft","psychophysics","194","248741","0.0-3.0-0.94","","key","arrowleft","16.67400000000078","640","344.5","95","4","-1","30","15","25","35","true"
"null","null","psychophysics","195","249743","0.0-3.0-1.94","","key","null","16.673999999999563","640","344.5","","","","","","","",""
"593.5","arrowright","psychophysics","196","250341","0.0-3.0-0.95","","key","arrowright","16.6739999999999","640","344.5","96","4","1","26","35","25","35","true"
"null","null","psychophysics","197","251343","0.0-3.0-1.95","","key","null","16.56515254237259","640","344.5","","","","","","","",""
"474.80000001192093","arrowleft","psychophysics","198","251820","0.0-3.0-0.96","","key","arrowleft","16.67400000000011","640","344.5","97","4","1","20","15","25","35","false"
"null","null","psychophysics","199","252821","0.0-3.0-1.96","","key","null","16.674000000000056","640","344.5","","","","","","","",""
"562.3000000119209","arrowright","psychophysics","200","253386","0.0-3.0-0.97","","key","arrowright","16.67399999999995","640","344.5","98","4","-1","25","15","25","35","false"
"null","null","psychophysics","201","254390","0.0-3.0-1.97","","key","null","16.674000000000056","640","344.5","","","","","","","",""
"1088.5","arrowleft","psychophysics","202","255481","0.0-3.0-0.98","","key","arrowleft","16.673999999999978","640","344.5","99","4","-1","23","35","25","35","true"
"null","null","psychophysics","203","256484","0.0-3.0-1.98","","key","null","16.67400000000004","640","344.5","","","","","","","",""
"676.6000000238419","arrowleft","psychophysics","204","257163","0.0-3.0-0.99","","key","arrowleft","16.673999999999815","640","344.5","100","4","1","23","15","25","35","false"
"null","null","psychophysics","205","258164","0.0-3.0-1.99","","key","null","16.674000000000056","640","344.5","","","","","","","",""
"678","arrowleft","psychophysics","206","258846","0.0-3.0-0.100","","key","arrowleft","16.674000000000525","640","344.5","101","4","-1","27","35","25","35","true"
"null","null","psychophysics","207","259848","0.0-3.0-1.100","","key","null","16.674000000000056","640","344.5","","","","","","","",""
"789.1999999880791","arrowleft","psychophysics","208","260643","0.0-3.0-0.101","","key","arrowleft","16.673999999999687","640","344.5","102","4","-1","27","15","25","35","true"
"null","null","psychophysics","209","261645","0.0-3.0-1.101","","key","null","16.67400000000055","640","344.5","","","","","","","",""
"1177.300000011921","arrowleft","psychophysics","210","262824","0.0-3.0-0.102","","key","arrowleft","16.6739999999999","640","344.5","103","4","1","26","35","25","35","false"
"null","null","psychophysics","211","263827","0.0-3.0-1.102","","key","null","16.674000000000056","640","344.5","","","","","","","",""
"914","arrowright","psychophysics","212","264743","0.0-3.0-0.103","","key","arrowright","16.67399999999907","640","344.5","104","4","1","27","35","25","35","true"
"null","null","psychophysics","213","265745","0.0-3.0-1.103","","key","null","16.67399999999907","640","344.5","","","","","","","",""
"861.7999999523163","arrowright","psychophysics","214","266609","0.0-3.0-0.104","","key","arrowright","16.67400000000021","640","344.5","105","4","-1","25","35","25","35","false"
"null","null","psychophysics","215","267616","0.0-3.0-1.104","","key","null","16.674000000000056","640","344.5","","","","","","","",""
"792.6999999880791","arrowright","psychophysics","216","268411","0.0-3.0-0.105","","key","arrowright","16.67400000000031","640","344.5","106","4","1","27","15","25","35","true"
"null","null","psychophysics","217","269413","0.0-3.0-1.105","","key","null","16.674000000000056","640","344.5","","","","","","","",""
"1507.699999988079","arrowright","psychophysics","218","270923","0.0-3.0-0.106","","key","arrowright","16.68182022471878","640","344.5","107","4","-1","23","15","25","35","false"
"null","null","psychophysics","219","271925","0.0-3.0-1.106","","key","null","16.67400000000004","640","344.5","","","","","","","",""
"700.3000000119209","arrowleft","psychophysics","220","272628","0.0-3.0-0.107","","key","arrowleft","16.67400000000049","640","344.5","108","4","-1","27","35","25","35","true"
"null","null","psychophysics","221","273629","0.0-3.0-1.107","","key","null","16.674000000000056","640","344.5","","","","","","","",""
"964.6000000238419","arrowright","psychophysics","222","274596","0.0-3.0-0.108","","key","arrowright","16.67400000000009","640","344.5","109","4","1","26","15","25","35","true"
"null","null","psychophysics","223","275598","0.0-3.0-1.108","","key","null","16.674000000000056","640","344.5","","","","","","","",""
"960.6999999880791","arrowleft","psychophysics","224","276561","0.0-3.0-0.109","","key","arrowleft","16.67400000000009","640","344.5","110","4","-1","25","15","25","35","true"
"null","null","psychophysics","225","277566","0.0-3.0-1.109","","key","null","16.674000000000056","640","344.5","","","","","","","",""
"712.1999999880791","arrowright","psychophysics","226","278281","0.0-3.0-0.110","","key","arrowright","16.674000000000454","640","344.5","111","4","-1","20","15","25","35","false"
"null","null","psychophysics","227","279282","0.0-3.0-1.110","","key","null","16.674000000000056","640","344.5","","","","","","","",""
"732.3000000119209","arrowleft","psychophysics","228","280017","0.0-3.0-0.111","","key","arrowleft","16.67399999999907","640","344.5","112","5","-1","27","35","25","35","true"
"null","null","psychophysics","229","281020","0.0-3.0-1.111","","key","null","16.674000000000056","640","344.5","","","","","","","",""
"1171.199999988079"," ","html-keyboard-response","230","282193","0.0-3.0-2.111-0.111","<div style=""color: white; text-align: center; vertical-align: top; display: inline-block; width: 800px; margin: auto""><p>You have completed 40% of the trials. You are on block 5 of 10. <br>Good job! Take a break if you need to.</p><p>Press any key to continue the experiment.</p></div>","","","","","","","","","","","","",""
"1041","arrowleft","psychophysics","231","284239","0.0-3.0-0.112","","key","arrowleft","16.674000000000007","640","344.5","113","5","1","23","35","25","35","false"
"null","null","psychophysics","232","285241","0.0-3.0-1.112","","key","null","16.674000000000056","640","344.5","","","","","","","",""
"1108.699999988079","arrowleft","psychophysics","233","286362","0.0-3.0-0.113","","key","arrowleft","16.67399999999995","640","344.5","114","5","-1","26","15","25","35","true"
"null","null","psychophysics","234","287365","0.0-3.0-1.113","","key","null","16.67400000000004","640","344.5","","","","","","","",""
"619.6000000238419","arrowright","psychophysics","235","287988","0.0-3.0-0.114","","key","arrowright","16.674000000000685","640","344.5","115","5","-1","23","35","25","35","false"
"null","null","psychophysics","236","288992","0.0-3.0-1.114","","key","null","16.674000000000056","640","344.5","","","","","","","",""
"860","arrowright","psychophysics","237","289854","0.0-3.0-0.115","","key","arrowright","16.67400000000021","640","344.5","116","5","1","27","15","25","35","true"
"null","null","psychophysics","238","290858","0.0-3.0-1.115","","key","null","16.683559322033187","640","344.5","","","","","","","",""
"610.6999999880791","arrowleft","psychophysics","239","291471","0.0-3.0-0.116","","key","arrowleft","16.674000000000685","640","344.5","117","5","-1","30","35","25","35","true"
"null","null","psychophysics","240","292483","0.0-3.0-1.116","","key","null","16.67400000000004","640","344.5","","","","","","","",""
"701.5","arrowright","psychophysics","241","293188","0.0-3.0-0.117","","key","arrowright","16.67400000000049","640","344.5","118","5","1","27","35","25","35","true"
"null","null","psychophysics","242","294193","0.0-3.0-1.117","","key","null","16.674000000000056","640","344.5","","","","","","","",""
"811.6000000238419","arrowright","psychophysics","243","295007","0.0-3.0-0.118","","key","arrowright","16.67399999999907","640","344.5","119","5","-1","20","35","25","35","false"
"null","null","psychophysics","244","296011","0.0-3.0-1.118","","key","null","16.674000000000056","640","344.5","","","","","","","",""
"570.1999999880791","arrowright","psychophysics","245","296584","0.0-3.0-0.119","","key","arrowright","16.67400000000083","640","344.5","120","5","1","30","15","25","35","true"
"null","null","psychophysics","246","297587","0.0-3.0-1.119","","key","null","16.67400000000004","640","344.5","","","","","","","",""
"933.1999999880791","arrowright","psychophysics","247","298524","0.0-3.0-0.120","","key","arrowright","16.674000000000127","640","344.5","121","5","-1","25","35","25","35","false"
"null","null","psychophysics","248","299530","0.0-3.0-1.120","","key","null","16.674000000000056","640","344.5","","","","","","","",""
"636.8999999761581","arrowright","psychophysics","249","300169","0.0-3.0-0.121","","key","arrowright","16.67399999999907","640","344.5","122","5","1","30","35","25","35","true"
"null","null","psychophysics","250","301171","0.0-3.0-1.121","","key","null","16.67400000000004","640","344.5","","","","","","","",""
"818.9000000357628","arrowright","psychophysics","251","301994","0.0-3.0-0.122","","key","arrowright","16.67400000000028","640","344.5","123","5","-1","24","35","25","35","false"
"null","null","psychophysics","252","303005","0.0-3.0-1.122","","key","null","16.67400000000004","640","344.5","","","","","","","",""
"618.6999999880791","arrowright","psychophysics","253","303628","0.0-3.0-0.123","","key","arrowright","16.674000000000685","640","344.5","124","5","-1","20","35","25","35","false"
"null","null","psychophysics","254","304632","0.0-3.0-1.123","","key","null","16.674000000000056","640","344.5","","","","","","","",""
"702.5","arrowleft","psychophysics","255","305337","0.0-3.0-0.124","","key","arrowleft","16.67399999999907","640","344.5","125","5","1","24","35","25","35","false"
"null","null","psychophysics","256","306339","0.0-3.0-1.124","","key","null","16.674000000000056","640","344.5","","","","","","","",""
"984.0999999642372","arrowleft","psychophysics","257","307328","0.0-3.0-0.125","","key","arrowleft","16.674000000000056","640","344.5","126","5","-1","27","15","25","35","true"
"null","null","psychophysics","258","308334","0.0-3.0-1.125","","key","null","16.674000000000056","640","344.5","","","","","","","",""
"984.5","arrowleft","psychophysics","259","309320","0.0-3.0-0.126","","key","arrowleft","16.67400000000007","640","344.5","127","5","1","25","15","25","35","false"
"null","null","psychophysics","260","310325","0.0-3.0-1.126","","key","null","16.67400000000004","640","344.5","","","","","","","",""
"611.7999999523163","arrowright","psychophysics","261","310941","0.0-3.0-0.127","","key","arrowright","16.696657142858022","640","344.5","128","5","1","24","15","25","35","true"
"null","null","psychophysics","262","311944","0.0-3.0-1.127","","key","null","16.67400000000004","640","344.5","","","","","","","",""
"607.1999999880791","arrowleft","psychophysics","263","312555","0.0-3.0-0.128","","key","arrowleft","16.67399999999907","640","344.5","129","5","-1","27","35","25","35","true"
"null","null","psychophysics","264","313559","0.0-3.0-1.128","","key","null","16.674000000000056","640","344.5","","","","","","","",""
"769.1000000238419","arrowright","psychophysics","265","314333","0.0-3.0-0.129","","key","arrowright","16.674000000000333","640","344.5","130","5","1","26","35","25","35","true"
"null","null","psychophysics","266","315335","0.0-3.0-1.129","","key","null","16.674000000000056","640","344.5","","","","","","","",""
"596.8000000119209","arrowleft","psychophysics","267","315935","0.0-3.0-0.130","","key","arrowleft","16.67399999999907","640","344.5","131","5","-1","25","15","25","35","true"
"null","null","psychophysics","268","316938","0.0-3.0-1.130","","key","null","16.674000000000056","640","344.5","","","","","","","",""
"649.2000000476837","arrowright","psychophysics","269","317590","0.0-3.0-0.131","","key","arrowright","16.6740000000006","640","344.5","132","5","1","24","15","25","35","true"
"null","null","psychophysics","270","318594","0.0-3.0-1.131","","key","null","16.674000000000056","640","344.5","","","","","","","",""
"663.1000000238419","arrowright","psychophysics","271","319262","0.0-3.0-0.132","","key","arrowright","16.67400000000056","640","344.5","133","5","-1","24","35","25","35","false"
"null","null","psychophysics","272","320263","0.0-3.0-1.132","","key","null","16.674000000000056","640","344.5","","","","","","","",""
"1032.800000011921","arrowleft","psychophysics","273","321302","0.0-3.0-0.133","","key","arrowleft","16.674000000000007","640","344.5","134","5","1","25","35","25","35","false"
"null","null","psychophysics","274","322303","0.0-3.0-1.133","","key","null","16.67399999999907","640","344.5","","","","","","","",""
"614.7000000476837","arrowright","psychophysics","275","322920","0.0-3.0-0.134","","key","arrowright","16.674000000000685","640","344.5","135","5","1","23","15","25","35","true"
"null","null","psychophysics","276","323926","0.0-3.0-1.134","","key","null","16.674000000000056","640","344.5","","","","","","","",""
"1017.6000000238419","arrowleft","psychophysics","277","324946","0.0-3.0-0.135","","key","arrowleft","16.67400000000004","640","344.5","136","5","1","25","35","25","35","false"
"null","null","psychophysics","278","325948","0.0-3.0-1.135","","key","null","16.674000000000056","640","344.5","","","","","","","",""
"752.5","arrowright","psychophysics","279","326706","0.0-3.0-0.136","","key","arrowright","16.674000000000362","640","344.5","137","5","-1","24","35","25","35","false"
"null","null","psychophysics","280","327708","0.0-3.0-1.136","","key","null","16.674000000000056","640","344.5","","","","","","","",""
"496.60000002384186","arrowright","psychophysics","281","328208","0.0-3.0-0.137","","key","arrowright","16.67399999999907","640","344.5","138","5","1","30","15","25","35","true"
"null","null","psychophysics","282","329211","0.0-3.0-1.137","","key","null","16.674000000000056","640","344.5","","","","","","","",""
"576.5","arrowleft","psychophysics","283","329790","0.0-3.0-0.138","","key","arrowleft","16.67400000000078","640","344.5","139","5","1","20","35","25","35","false"
"null","null","psychophysics","284","330794","0.0-3.0-1.138","","key","null","16.68561016949154","640","344.5","","","","","","","",""
"763","arrowleft","psychophysics","285","331559","0.0-3.0-0.139","","key","arrowleft","16.67399999999907","640","344.5","140","6","-1","25","15","25","35","true"
"null","null","psychophysics","286","332561","0.0-3.0-1.139","","key","null","16.674000000000056","640","344.5","","","","","","","",""
"918.3999999761581"," ","html-keyboard-response","287","333480","0.0-3.0-2.139-0.139","<div style=""color: white; text-align: center; vertical-align: top; display: inline-block; width: 800px; margin: auto""><p>You have completed 50% of the trials. You are on block 6 of 10. <br>Good job! Take a break if you need to.</p><p>Press any key to continue the experiment.</p></div>","","","","","","","","","","","","",""
"660.2999999523163","arrowleft","psychophysics","288","335148","0.0-3.0-0.140","","key","arrowleft","16.674000000000525","640","344.5","141","6","-1","27","35","25","35","true"
"null","null","psychophysics","289","336159","0.0-3.0-1.140","","key","null","16.67400000000004","640","344.5","","","","","","","",""
"551.7999999523163","arrowright","psychophysics","290","336713","0.0-3.0-0.141","","key","arrowright","16.67399999999907","640","344.5","142","6","1","26","15","25","35","true"
"null","null","psychophysics","291","337715","0.0-3.0-1.141","","key","null","16.674000000000056","640","344.5","","","","","","","",""
"534.5","arrowright","psychophysics","292","338252","0.0-3.0-0.142","","key","arrowright","16.674000000000948","640","344.5","143","6","-1","20","35","25","35","false"
"null","null","psychophysics","293","339256","0.0-3.0-1.142","","key","null","16.674000000000056","640","344.5","","","","","","","",""
"528","arrowleft","psychophysics","294","339788","0.0-3.0-0.143","","key","arrowleft","16.67399999999907","640","344.5","144","6","-1","27","15","25","35","true"
"null","null","psychophysics","295","340789","0.0-3.0-1.143","","key","null","16.674000000000056","640","344.5","","","","","","","",""
"593.8000000119209","arrowright","psychophysics","296","341389","0.0-3.0-0.144","","key","arrowright","16.67400000000073","640","344.5","145","6","1","25","15","25","35","true"
"null","null","psychophysics","297","342391","0.0-3.0-1.144","","key","null","16.674000000000056","640","344.5","","","","","","","",""
"558","arrowleft","psychophysics","298","342953","0.0-3.0-0.145","","key","arrowleft","16.67399999999907","640","344.5","146","6","1","25","15","25","35","false"
"null","null","psychophysics","299","343958","0.0-3.0-1.145","","key","null","16.67400000000004","640","344.5","","","","","","","",""
"267.39999997615814","arrowright","psychophysics","300","344229","0.0-3.0-0.146","","key","arrowright","16.67400000000295","640","344.5","147","6","-1","23","35","25","35","false"
"null","null","psychophysics","301","345230","0.0-3.0-1.146","","key","null","16.674000000000056","640","344.5","","","","","","","",""
"301.5","arrowleft","psychophysics","302","345534","0.0-3.0-0.147","","key","arrowleft","16.67399999999907","640","344.5","148","6","1","30","35","25","35","false"
"null","null","psychophysics","303","346535","0.0-3.0-1.147","","key","null","16.674000000000056","640","344.5","","","","","","","",""
"489.5999999642372","arrowleft","psychophysics","304","347027","0.0-3.0-0.148","","key","arrowleft","16.67399999999907","640","344.5","149","6","-1","30","35","25","35","true"
"null","null","psychophysics","305","348033","0.0-3.0-1.148","","key","null","16.674000000000056","640","344.5","","","","","","","",""
"469.30000001192093","arrowright","psychophysics","306","348505","0.0-3.0-0.149","","key","arrowright","16.674000000001225","640","344.5","150","6","-1","30","15","25","35","false"
"null","null","psychophysics","307","349510","0.0-3.0-1.149","","key","null","16.674000000000056","640","344.5","","","","","","","",""
"722.5999999642372","arrowright","psychophysics","308","350238","0.0-3.0-0.150","","key","arrowright","16.67399999999907","640","344.5","151","6","-1","24","35","25","35","false"
"null","null","psychophysics","309","351241","0.0-3.0-1.150","","key","null","16.68498305084827","640","344.5","","","","","","","",""
"555.1999999880791","arrowright","psychophysics","310","351799","0.0-3.0-0.151","","key","arrowright","16.67399999999907","640","344.5","152","6","-1","20","35","25","35","false"
"null","null","psychophysics","311","352800","0.0-3.0-1.151","","key","null","16.674000000000056","640","344.5","","","","","","","",""
"604.5","arrowleft","psychophysics","312","353407","0.0-3.0-0.152","","key","arrowleft","16.67400000000073","640","344.5","153","6","1","23","35","25","35","false"
"null","null","psychophysics","313","354409","0.0-3.0-1.152","","key","null","16.674000000000056","640","344.5","","","","","","","",""
"591.8000000119209","arrowleft","psychophysics","314","355003","0.0-3.0-0.153","","key","arrowleft","16.67399999999907","640","344.5","154","6","1","24","35","25","35","false"
"null","null","psychophysics","315","356007","0.0-3.0-1.153","","key","null","16.674000000000056","640","344.5","","","","","","","",""
"719","arrowright","psychophysics","316","356728","0.0-3.0-0.154","","key","arrowright","16.674000000000454","640","344.5","155","6","1","27","35","25","35","true"
"null","null","psychophysics","317","357731","0.0-3.0-1.154","","key","null","16.674000000000056","640","344.5","","","","","","","",""
"526.2999999523163","arrowleft","psychophysics","318","358263","0.0-3.0-0.155","","key","arrowleft","16.67399999999907","640","344.5","156","6","-1","26","15","25","35","true"
"null","null","psychophysics","319","359265","0.0-3.0-1.155","","key","null","16.674000000000056","640","344.5","","","","","","","",""
"861","arrowright","psychophysics","320","360132","0.0-3.0-0.156","","key","arrowright","16.67400000000021","640","344.5","157","6","1","24","15","25","35","true"
"null","null","psychophysics","321","361134","0.0-3.0-1.156","","key","null","16.67400000000004","640","344.5","","","","","","","",""
"1343","arrowright","psychophysics","322","362481","0.0-3.0-0.157","","key","arrowright","16.673999999999804","640","344.5","158","6","-1","25","35","25","35","false"
"null","null","psychophysics","323","363485","0.0-3.0-1.157","","key","null","16.674000000000056","640","344.5","","","","","","","",""
"1140.7999999523163","arrowright","psychophysics","324","364632","0.0-3.0-0.158","","key","arrowright","16.673999999999925","640","344.5","159","6","-1","20","15","25","35","false"
"null","null","psychophysics","325","365636","0.0-3.0-1.158","","key","null","16.67400000000004","640","344.5","","","","","","","",""
"768.8999999761581","arrowright","psychophysics","326","366409","0.0-3.0-0.159","","key","arrowright","16.674000000000362","640","344.5","160","6","-1","20","35","25","35","false"
"null","null","psychophysics","327","367410","0.0-3.0-1.159","","key","null","16.674000000000056","640","344.5","","","","","","","",""
"866.1000000238419","arrowright","psychophysics","328","368279","0.0-3.0-0.160","","key","arrowright","16.67400000000021","640","344.5","161","6","1","30","35","25","35","true"
"null","null","psychophysics","329","369280","0.0-3.0-1.160","","key","null","16.674000000000056","640","344.5","","","","","","","",""
"709.2999999523163","arrowright","psychophysics","330","369992","0.0-3.0-0.161","","key","arrowright","16.674000000000454","640","344.5","162","6","1","30","15","25","35","true"
"null","null","psychophysics","331","370996","0.0-3.0-1.161","","key","null","16.684457627118178","640","344.5","","","","","","","",""
"1281.5","arrowright","psychophysics","332","372280","0.0-3.0-0.162","","key","arrowright","16.673999999999836","640","344.5","163","6","1","25","15","25","35","true"
"null","null","psychophysics","333","373285","0.0-3.0-1.162","","key","null","16.674000000000056","640","344.5","","","","","","","",""
"1775","arrowleft","psychophysics","334","375063","0.0-3.0-0.163","","key","arrowleft","16.674000000000166","640","344.5","164","6","1","24","35","25","35","false"
"null","null","psychophysics","335","376067","0.0-3.0-1.163","","key","null","16.674000000000056","640","344.5","","","","","","","",""
"1117","arrowright","psychophysics","336","377187","0.0-3.0-0.164","","key","arrowright","16.67399999999995","640","344.5","165","6","1","24","15","25","35","true"
"null","null","psychophysics","337","378192","0.0-3.0-1.164","","key","null","16.674000000000056","640","344.5","","","","","","","",""
"1726.1000000238419","arrowright","psychophysics","338","379923","0.0-3.0-0.165","","key","arrowright","16.6740000000002","640","344.5","166","6","1","27","35","25","35","true"
"null","null","psychophysics","339","380926","0.0-3.0-1.165","","key","null","16.674000000000056","640","344.5","","","","","","","",""
"2019.199999988079","arrowright","psychophysics","340","382951","0.0-3.0-0.166","","key","arrowright","16.67399999999955","640","344.5","167","6","-1","24","35","25","35","false"
"null","null","psychophysics","341","383955","0.0-3.0-1.166","","key","null","16.674000000000056","640","344.5","","","","","","","",""
"1078.5","arrowright","psychophysics","342","385036","0.0-3.0-0.167","","key","arrowright","16.673999999999978","640","344.5","168","7","1","26","15","25","35","true"
"null","null","psychophysics","343","386039","0.0-3.0-1.167","","key","null","16.674000000000056","640","344.5","","","","","","","",""
"1002.6999999880791"," ","html-keyboard-response","344","387043","0.0-3.0-2.167-0.167","<div style=""color: white; text-align: center; vertical-align: top; display: inline-block; width: 800px; margin: auto""><p>You have completed 60% of the trials. You are on block 7 of 10. <br>Good job! Take a break if you need to.</p><p>Press any key to continue the experiment.</p></div>","","","","","","","","","","","","",""
"736.9000000357628","arrowright","psychophysics","345","388788","0.0-3.0-0.168","","key","arrowright","16.67400000000039","640","344.5","169","7","1","30","35","25","35","true"
"null","null","psychophysics","346","389794","0.0-3.0-1.168","","key","null","16.674000000000056","640","344.5","","","","","","","",""
"601","arrowright","psychophysics","347","390398","0.0-3.0-0.169","","key","arrowright","16.67400000000073","640","344.5","170","7","-1","25","35","25","35","false"
"null","null","psychophysics","348","391399","0.0-3.0-1.169","","key","null","16.77957627118636","640","344.5","","","","","","","",""
"842.5","arrowleft","psychophysics","349","392244","0.0-3.0-0.170","","key","arrowleft","16.674000000000234","640","344.5","171","7","1","24","15","25","35","false"
"null","null","psychophysics","350","393247","0.0-3.0-1.170","","key","null","16.67399999999907","640","344.5","","","","","","","",""
"662.0999999642372","arrowright","psychophysics","351","393912","0.0-3.0-0.171","","key","arrowright","16.67400000000056","640","344.5","172","7","1","27","15","25","35","true"
"null","null","psychophysics","352","394915","0.0-3.0-1.171","","key","null","16.674000000000056","640","344.5","","","","","","","",""
"861.2999999523163","arrowleft","psychophysics","353","395779","0.0-3.0-0.172","","key","arrowleft","16.67400000000021","640","344.5","173","7","-1","24","35","25","35","true"
"null","null","psychophysics","354","396782","0.0-3.0-1.172","","key","null","16.674000000000056","640","344.5","","","","","","","",""
"615","arrowleft","psychophysics","355","397400","0.0-3.0-0.173","","key","arrowleft","16.67399999999907","640","344.5","174","7","1","20","35","25","35","false"
"null","null","psychophysics","356","398402","0.0-3.0-1.173","","key","null","16.674000000000056","640","344.5","","","","","","","",""
"661","arrowleft","psychophysics","357","399065","0.0-3.0-0.174","","key","arrowleft","16.67400000000056","640","344.5","175","7","1","25","35","25","35","false"
"null","null","psychophysics","358","400067","0.0-3.0-1.174","","key","null","16.674000000000056","640","344.5","","","","","","","",""
"1363","arrowleft","psychophysics","359","401432","0.0-3.0-0.175","","key","arrowleft","16.679641975308368","640","344.5","176","7","-1","24","15","25","35","true"
"null","null","psychophysics","360","402435","0.0-3.0-1.175","","key","null","16.674000000000056","640","344.5","","","","","","","",""
"521.1000000238419","arrowright","psychophysics","361","402957","0.0-3.0-0.176","","key","arrowright","16.67400000000101","640","344.5","177","7","1","23","15","25","35","true"
"null","null","psychophysics","362","403961","0.0-3.0-1.176","","key","null","16.67400000000004","640","344.5","","","","","","","",""
"460","arrowleft","psychophysics","363","404425","0.0-3.0-0.177","","key","arrowleft","16.67399999999907","640","344.5","178","7","1","24","15","25","35","false"
"null","null","psychophysics","364","405428","0.0-3.0-1.177","","key","null","16.674000000000056","640","344.5","","","","","","","",""
"500.80000001192093","arrowright","psychophysics","365","405935","0.0-3.0-0.178","","key","arrowright","16.67400000000101","640","344.5","179","7","1","30","35","25","35","true"
"null","null","psychophysics","366","406941","0.0-3.0-1.178","","key","null","16.674000000000056","640","344.5","","","","","","","",""
"850.4000000357628","arrowright","psychophysics","367","407794","0.0-3.0-0.179","","key","arrowright","16.674000000000234","640","344.5","180","7","1","27","15","25","35","true"
"null","null","psychophysics","368","408795","0.0-3.0-1.179","","key","null","16.67399999999907","640","344.5","","","","","","","",""
"862.5","arrowright","psychophysics","369","409663","0.0-3.0-0.180","","key","arrowright","16.67400000000021","640","344.5","181","7","1","26","15","25","35","true"
"null","null","psychophysics","370","410666","0.0-3.0-1.180","","key","null","16.67400000000004","640","344.5","","","","","","","",""
"811.5","arrowright","psychophysics","371","411481","0.0-3.0-0.181","","key","arrowright","16.67400000000031","640","344.5","182","7","1","30","35","25","35","true"
"null","null","psychophysics","372","412484","0.0-3.0-1.181","","key","null","16.67400000000004","640","344.5","","","","","","","",""
"660.3000000119209","arrowright","psychophysics","373","413147","0.0-3.0-0.182","","key","arrowright","16.6740000000006","640","344.5","183","7","-1","20","35","25","35","false"
"null","null","psychophysics","374","414151","0.0-3.0-1.182","","key","null","16.67400000000004","640","344.5","","","","","","","",""
"818.1000000238419","arrowleft","psychophysics","375","414972","0.0-3.0-0.183","","key","arrowleft","16.67399999999907","640","344.5","184","7","-1","24","15","25","35","true"
"null","null","psychophysics","376","415976","0.0-3.0-1.183","","key","null","16.674000000000056","640","344.5","","","","","","","",""
"701.9000000357628","arrowleft","psychophysics","377","416680","0.0-3.0-0.184","","key","arrowleft","16.67400000000049","640","344.5","185","7","-1","26","35","25","35","true"
"null","null","psychophysics","378","417685","0.0-3.0-1.184","","key","null","16.674000000000056","640","344.5","","","","","","","",""
"460","arrowright","psychophysics","379","418149","0.0-3.0-0.185","","key","arrowright","16.67399999999907","640","344.5","186","7","-1","20","15","25","35","false"
"null","null","psychophysics","380","419152","0.0-3.0-1.185","","key","null","16.67400000000004","640","344.5","","","","","","","",""
"495.19999998807907","arrowleft","psychophysics","381","419651","0.0-3.0-0.186","","key","arrowleft","16.674000000001147","640","344.5","187","7","1","20","15","25","35","false"
"null","null","psychophysics","382","420653","0.0-3.0-1.186","","key","null","16.6848166666663","640","344.5","","","","","","","",""
"650.1000000238419","arrowright","psychophysics","383","421307","0.0-3.0-0.187","","key","arrowright","16.6740000000006","640","344.5","188","7","1","30","15","25","35","true"
"null","null","psychophysics","384","422310","0.0-3.0-1.187","","key","null","16.674000000000056","640","344.5","","","","","","","",""
"664.1000000238419","arrowleft","psychophysics","385","422977","0.0-3.0-0.188","","key","arrowleft","16.67400000000056","640","344.5","189","7","1","25","35","25","35","false"
"null","null","psychophysics","386","423983","0.0-3.0-1.188","","key","null","16.67399999999907","640","344.5","","","","","","","",""
"562.6999999880791","arrowleft","psychophysics","387","424548","0.0-3.0-0.189","","key","arrowleft","17.19506250000086","640","344.5","190","7","-1","27","35","25","35","true"
"null","null","psychophysics","388","425549","0.0-3.0-1.189","","key","null","16.674000000000056","640","344.5","","","","","","","",""
"608.8999999761581","arrowleft","psychophysics","389","426161","0.0-3.0-0.190","","key","arrowleft","16.674000000000685","640","344.5","191","7","1","20","35","25","35","false"
"null","null","psychophysics","390","427164","0.0-3.0-1.190","","key","null","16.674000000000056","640","344.5","","","","","","","",""
"429.0999999642372","arrowleft","psychophysics","391","427595","0.0-3.0-0.191","","key","arrowleft","16.67399999999907","640","344.5","192","7","-1","24","35","25","35","true"
"null","null","psychophysics","392","428597","0.0-3.0-1.191","","key","null","16.674000000000056","640","344.5","","","","","","","",""
"900.8999999761581","arrowright","psychophysics","393","429500","0.0-3.0-0.192","","key","arrowright","16.674000000000166","640","344.5","193","7","1","27","35","25","35","true"
"null","null","psychophysics","394","430502","0.0-3.0-1.192","","key","null","16.674000000000056","640","344.5","","","","","","","",""
"432.39999997615814","arrowleft","psychophysics","395","430937","0.0-3.0-0.193","","key","arrowleft","16.67399999999907","640","344.5","194","7","1","26","15","25","35","false"
"null","null","psychophysics","396","431942","0.0-3.0-1.193","","key","null","16.674000000000056","640","344.5","","","","","","","",""
"558.6999999880791","arrowleft","psychophysics","397","432505","0.0-3.0-0.194","","key","arrowleft","16.67400000000083","640","344.5","195","7","-1","30","35","25","35","true"
"null","null","psychophysics","398","433509","0.0-3.0-1.194","","key","null","16.67400000000004","640","344.5","","","","","","","",""
"1084.699999988079","arrowleft","psychophysics","399","434598","0.0-3.0-0.195","","key","arrowleft","16.673999999999978","640","344.5","196","8","-1","26","35","25","35","true"
"null","null","psychophysics","400","435600","0.0-3.0-1.195","","key","null","16.674000000000056","640","344.5","","","","","","","",""
"1138.6000000238419"," ","html-keyboard-response","401","436740","0.0-3.0-2.195-0.195","<div style=""color: white; text-align: center; vertical-align: top; display: inline-block; width: 800px; margin: auto""><p>You have completed 70% of the trials. You are on block 8 of 10. <br>Good job! Take a break if you need to.</p><p>Press any key to continue the experiment.</p></div>","","","","","","","","","","","","",""
"787.5999999642372","arrowleft","psychophysics","402","438535","0.0-3.0-0.196","","key","arrowleft","16.67399999999907","640","344.5","197","8","-1","26","35","25","35","true"
"null","null","psychophysics","403","439536","0.0-3.0-1.196","","key","null","16.674000000000056","640","344.5","","","","","","","",""
"579.1000000238419","arrowleft","psychophysics","404","440118","0.0-3.0-0.197","","key","arrowleft","16.67400000000078","640","344.5","198","8","-1","30","35","25","35","true"
"null","null","psychophysics","405","441120","0.0-3.0-1.197","","key","null","16.77454237288093","640","344.5","","","","","","","",""
"525.8999999761581","arrowright","psychophysics","406","441650","0.0-3.0-0.198","","key","arrowright","16.67400000000101","640","344.5","199","8","1","26","15","25","35","true"
"null","null","psychophysics","407","442653","0.0-3.0-1.198","","key","null","16.674000000000056","640","344.5","","","","","","","",""
"732.1000000238419","arrowleft","psychophysics","408","443390","0.0-3.0-0.199","","key","arrowleft","16.67400000000039","640","344.5","200","8","1","24","15","25","35","false"
"null","null","psychophysics","409","444392","0.0-3.0-1.199","","key","null","16.674000000000056","640","344.5","","","","","","","",""
"664.6000000238419","arrowleft","psychophysics","410","445058","0.0-3.0-0.200","","key","arrowleft","16.67399999999907","640","344.5","201","8","-1","26","15","25","35","true"
"null","null","psychophysics","411","446063","0.0-3.0-1.200","","key","null","16.674000000000056","640","344.5","","","","","","","",""
"503.19999998807907","arrowleft","psychophysics","412","446569","0.0-3.0-0.201","","key","arrowleft","16.674000000001076","640","344.5","202","8","-1","27","15","25","35","true"
"null","null","psychophysics","413","447570","0.0-3.0-1.201","","key","null","16.674000000000056","640","344.5","","","","","","","",""
"623.5","arrowright","psychophysics","414","448200","0.0-3.0-0.202","","key","arrowright","16.67399999999907","640","344.5","203","8","1","25","15","25","35","true"
"null","null","psychophysics","415","449204","0.0-3.0-1.202","","key","null","16.674000000000056","640","344.5","","","","","","","",""
"477.4000000357628","arrowleft","psychophysics","416","449687","0.0-3.0-0.203","","key","arrowleft","16.674000000001147","640","344.5","204","8","-1","30","15","25","35","true"
"null","null","psychophysics","417","450690","0.0-3.0-1.203","","key","null","16.681000000000065","640","344.5","","","","","","","",""
"542.8000000119209","arrowleft","psychophysics","418","451238","0.0-3.0-0.204","","key","arrowleft","16.67399999999907","640","344.5","205","8","-1","26","15","25","35","true"
"null","null","psychophysics","419","452239","0.0-3.0-1.204","","key","null","16.674000000000056","640","344.5","","","","","","","",""
"509.5","arrowleft","psychophysics","420","452754","0.0-3.0-0.205","","key","arrowleft","16.67400000000101","640","344.5","206","8","-1","27","15","25","35","true"
"null","null","psychophysics","421","453758","0.0-3.0-1.205","","key","null","16.674000000000056","640","344.5","","","","","","","",""
"500.7000000476837","arrowright","psychophysics","422","454264","0.0-3.0-0.206","","key","arrowright","16.67399999999907","640","344.5","207","8","-1","20","15","25","35","false"
"null","null","psychophysics","423","455268","0.0-3.0-1.206","","key","null","16.674000000000056","640","344.5","","","","","","","",""
"743.3999999761581","arrowright","psychophysics","424","456014","0.0-3.0-0.207","","key","arrowright","16.67400000000039","640","344.5","208","8","-1","23","35","25","35","false"
"null","null","psychophysics","425","457026","0.0-3.0-1.207","","key","null","16.67400000000004","640","344.5","","","","","","","",""
"672.4000000357628","arrowleft","psychophysics","426","457703","0.0-3.0-0.208","","key","arrowleft","16.67399999999907","640","344.5","209","8","-1","23","15","25","35","true"
"null","null","psychophysics","427","458704","0.0-3.0-1.208","","key","null","16.674000000000056","640","344.5","","","","","","","",""
"759","arrowleft","psychophysics","428","459466","0.0-3.0-0.209","","key","arrowleft","16.674000000000362","640","344.5","210","8","1","23","15","25","35","false"
"null","null","psychophysics","429","460471","0.0-3.0-1.209","","key","null","16.674000000000056","640","344.5","","","","","","","",""
"644.8000000119209","arrowright","psychophysics","430","461119","0.0-3.0-0.210","","key","arrowright","16.6740000000006","640","344.5","211","8","1","27","35","25","35","true"
"null","null","psychophysics","431","462122","0.0-3.0-1.210","","key","null","16.674000000000056","640","344.5","","","","","","","",""
"759","arrowleft","psychophysics","432","462884","0.0-3.0-0.211","","key","arrowleft","16.67399999999907","640","344.5","212","8","-1","30","35","25","35","true"
"null","null","psychophysics","433","463889","0.0-3.0-1.211","","key","null","16.674000000000056","640","344.5","","","","","","","",""
"510.19999998807907","arrowright","psychophysics","434","464402","0.0-3.0-0.212","","key","arrowright","16.67400000000101","640","344.5","213","8","-1","23","15","25","35","false"
"null","null","psychophysics","435","465403","0.0-3.0-1.212","","key","null","16.674000000000056","640","344.5","","","","","","","",""
"514.3999999761581","arrowleft","psychophysics","436","465920","0.0-3.0-0.213","","key","arrowleft","16.67399999999907","640","344.5","214","8","1","24","35","25","35","false"
"null","null","psychophysics","437","466924","0.0-3.0-1.213","","key","null","16.674000000000056","640","344.5","","","","","","","",""
"783.6999999880791","arrowleft","psychophysics","438","467711","0.0-3.0-0.214","","key","arrowleft","16.674000000000333","640","344.5","215","8","1","27","15","25","35","false"
"null","null","psychophysics","439","468714","0.0-3.0-1.214","","key","null","16.674000000000056","640","344.5","","","","","","","",""
"1001.3999999761581","arrowleft","psychophysics","440","469722","0.0-3.0-0.215","","key","arrowleft","16.67400000000004","640","344.5","216","8","-1","26","35","25","35","true"
"null","null","psychophysics","441","470726","0.0-3.0-1.215","","key","null","16.685152542372865","640","344.5","","","","","","","",""
"648.1999999880791","arrowleft","psychophysics","442","471377","0.0-3.0-0.216","","key","arrowleft","16.67399999999907","640","344.5","217","8","-1","27","15","25","35","true"
"null","null","psychophysics","443","472378","0.0-3.0-1.216","","key","null","16.67399999999907","640","344.5","","","","","","","",""
"808.3999999761581","arrowleft","psychophysics","444","473190","0.0-3.0-0.217","","key","arrowleft","16.67400000000028","640","344.5","218","8","-1","30","35","25","35","true"
"null","null","psychophysics","445","474195","0.0-3.0-1.217","","key","null","16.674000000000056","640","344.5","","","","","","","",""
"610.3999999761581","arrowleft","psychophysics","446","474808","0.0-3.0-0.218","","key","arrowleft","16.674000000000685","640","344.5","219","8","-1","26","15","25","35","true"
"null","null","psychophysics","447","475812","0.0-3.0-1.218","","key","null","16.674000000000056","640","344.5","","","","","","","",""
"550.5","arrowright","psychophysics","448","476365","0.0-3.0-0.219","","key","arrowright","16.67399999999907","640","344.5","220","8","-1","23","35","25","35","false"
"null","null","psychophysics","449","477367","0.0-3.0-1.219","","key","null","16.674000000000056","640","344.5","","","","","","","",""
"888.4000000357628","arrowleft","psychophysics","450","478258","0.0-3.0-0.220","","key","arrowleft","16.674000000000166","640","344.5","221","8","1","25","35","25","35","false"
"null","null","psychophysics","451","479261","0.0-3.0-1.220","","key","null","16.674000000000056","640","344.5","","","","","","","",""
"479.80000001192093","arrowright","psychophysics","452","479743","0.0-3.0-0.221","","key","arrowright","16.674000000001147","640","344.5","222","8","-1","20","15","25","35","false"
"null","null","psychophysics","453","480749","0.0-3.0-1.221","","key","null","16.67399999999907","640","344.5","","","","","","","",""
"548.9000000357628","arrowleft","psychophysics","454","481300","0.0-3.0-0.222","","key","arrowleft","16.674000000000888","640","344.5","223","8","1","20","15","25","35","false"
"null","null","psychophysics","455","482305","0.0-3.0-1.222","","key","null","16.674000000000056","640","344.5","","","","","","","",""
"866.6000000238419","arrowright","psychophysics","456","483178","0.0-3.0-0.223","","key","arrowright","16.674000000000188","640","344.5","224","9","1","26","15","25","35","true"
"null","null","psychophysics","457","484180","0.0-3.0-1.223","","key","null","16.674000000000056","640","344.5","","","","","","","",""
"1154.199999988079"," ","html-keyboard-response","458","485335","0.0-3.0-2.223-0.223","<div style=""color: white; text-align: center; vertical-align: top; display: inline-block; width: 800px; margin: auto""><p>You have completed 80% of the trials. You are on block 9 of 10. <br>Good job! Take a break if you need to.</p><p>Press any key to continue the experiment.</p></div>","","","","","","","","","","","","",""
"524.4000000357628","arrowright","psychophysics","459","486868","0.0-3.0-0.224","","key","arrowright","16.67399999999907","640","344.5","225","9","-1","20","15","25","35","false"
"null","null","psychophysics","460","487871","0.0-3.0-1.224","","key","null","16.674000000000056","640","344.5","","","","","","","",""
"646.8000000119209","arrowleft","psychophysics","461","488521","0.0-3.0-0.225","","key","arrowleft","16.6740000000006","640","344.5","226","9","1","20","15","25","35","false"
"null","null","psychophysics","462","489526","0.0-3.0-1.225","","key","null","16.67400000000004","640","344.5","","","","","","","",""
"517.8999999761581","arrowleft","psychophysics","463","490048","0.0-3.0-0.226","","key","arrowleft","16.67399999999907","640","344.5","227","9","-1","26","35","25","35","true"
"null","null","psychophysics","464","491049","0.0-3.0-1.226","","key","null","16.686186440678714","640","344.5","","","","","","","",""
"515.9000000357628","arrowleft","psychophysics","465","491575","0.0-3.0-0.227","","key","arrowleft","16.67399999999907","640","344.5","228","9","1","23","35","25","35","false"
"null","null","psychophysics","466","492576","0.0-3.0-1.227","","key","null","16.674000000000056","640","344.5","","","","","","","",""
"501.39999997615814","arrowright","psychophysics","467","493083","0.0-3.0-0.228","","key","arrowright","16.67400000000101","640","344.5","229","9","-1","25","15","25","35","false"
"null","null","psychophysics","468","494086","0.0-3.0-1.228","","key","null","16.674000000000056","640","344.5","","","","","","","",""
"579.1000000238419","arrowleft","psychophysics","469","494668","0.0-3.0-0.229","","key","arrowleft","16.67399999999907","640","344.5","230","9","-1","26","15","25","35","true"
"null","null","psychophysics","470","495670","0.0-3.0-1.229","","key","null","16.674000000000056","640","344.5","","","","","","","",""
"520.8999999761581","arrowleft","psychophysics","471","496193","0.0-3.0-0.230","","key","arrowleft","16.67400000000101","640","344.5","231","9","-1","24","15","25","35","true"
"null","null","psychophysics","472","497195","0.0-3.0-1.230","","key","null","16.674000000000056","640","344.5","","","","","","","",""
"654.8000000119209","arrowright","psychophysics","473","497856","0.0-3.0-0.231","","key","arrowright","16.67399999999907","640","344.5","232","9","1","30","35","25","35","true"
"null","null","psychophysics","474","498859","0.0-3.0-1.231","","key","null","16.674000000000056","640","344.5","","","","","","","",""
"1314.6000000238419","arrowright","psychophysics","475","500176","0.0-3.0-0.232","","key","arrowright","16.673999999999815","640","344.5","233","9","1","25","15","25","35","true"
"null","null","psychophysics","476","501182","0.0-3.0-1.232","","key","null","16.674000000000056","640","344.5","","","","","","","",""
"575","arrowleft","psychophysics","477","501763","0.0-3.0-0.233","","key","arrowleft","16.67400000000078","640","344.5","234","9","-1","24","15","25","35","true"
"null","null","psychophysics","478","502765","0.0-3.0-1.233","","key","null","16.674000000000056","640","344.5","","","","","","","",""
"462.89999997615814","arrowleft","psychophysics","479","503232","0.0-3.0-0.234","","key","arrowleft","16.67399999999907","640","344.5","235","9","-1","30","35","25","35","true"
"null","null","psychophysics","480","504234","0.0-3.0-1.234","","key","null","16.67400000000004","640","344.5","","","","","","","",""
"586.8000000119209","arrowright","psychophysics","481","504824","0.0-3.0-0.235","","key","arrowright","16.67400000000078","640","344.5","236","9","1","25","15","25","35","true"
"null","null","psychophysics","482","505827","0.0-3.0-1.235","","key","null","16.674000000000056","640","344.5","","","","","","","",""
"654.4000000357628","arrowleft","psychophysics","483","506485","0.0-3.0-0.236","","key","arrowleft","16.67399999999907","640","344.5","237","9","-1","27","15","25","35","true"
"null","null","psychophysics","484","507487","0.0-3.0-1.236","","key","null","16.674000000000056","640","344.5","","","","","","","",""
"501.5","arrowleft","psychophysics","485","507991","0.0-3.0-0.237","","key","arrowleft","16.674000000001076","640","344.5","238","9","-1","30","35","25","35","true"
"null","null","psychophysics","486","508993","0.0-3.0-1.237","","key","null","16.674000000000056","640","344.5","","","","","","","",""
"545.6000000238419","arrowleft","psychophysics","487","509541","0.0-3.0-0.238","","key","arrowleft","16.67399999999907","640","344.5","239","9","-1","30","15","25","35","true"
"null","null","psychophysics","488","510543","0.0-3.0-1.238","","key","null","16.674000000000056","640","344.5","","","","","","","",""
"783.5","arrowleft","psychophysics","489","511330","0.0-3.0-0.239","","key","arrowleft","16.688847826087706","640","344.5","240","9","-1","27","35","25","35","true"
"null","null","psychophysics","490","512332","0.0-3.0-1.239","","key","null","16.674000000000056","640","344.5","","","","","","","",""
"618.3999999761581","arrowleft","psychophysics","491","512953","0.0-3.0-0.240","","key","arrowleft","16.67399999999907","640","344.5","241","9","-1","23","15","25","35","true"
"null","null","psychophysics","492","513955","0.0-3.0-1.240","","key","null","16.67400000000004","640","344.5","","","","","","","",""
"717.1000000238419","arrowright","psychophysics","493","514676","0.0-3.0-0.241","","key","arrowright","16.674000000000454","640","344.5","242","9","1","26","35","25","35","true"
"null","null","psychophysics","494","515678","0.0-3.0-1.241","","key","null","16.674000000000056","640","344.5","","","","","","","",""
"1005.5","arrowright","psychophysics","495","516686","0.0-3.0-0.242","","key","arrowright","16.674000000000056","640","344.5","243","9","1","30","15","25","35","true"
"null","null","psychophysics","496","517690","0.0-3.0-1.242","","key","null","16.674000000000056","640","344.5","","","","","","","",""
"666.5999999642372","arrowright","psychophysics","497","518360","0.0-3.0-0.243","","key","arrowright","16.674000000000525","640","344.5","244","9","-1","23","35","25","35","false"
"null","null","psychophysics","498","519362","0.0-3.0-1.243","","key","null","16.674000000000056","640","344.5","","","","","","","",""
"637.1000000238419","arrowright","psychophysics","499","520000","0.0-3.0-0.244","","key","arrowright","16.67399999999907","640","344.5","245","9","1","24","35","25","35","true"
"null","null","psychophysics","500","521003","0.0-3.0-1.244","","key","null","16.674000000000056","640","344.5","","","","","","","",""
"547.1999999880791","arrowleft","psychophysics","501","521552","0.0-3.0-0.245","","key","arrowleft","16.674000000000888","640","344.5","246","9","-1","25","15","25","35","true"
"null","null","psychophysics","502","522558","0.0-3.0-1.245","","key","null","16.674000000000056","640","344.5","","","","","","","",""
"463.4000000357628","arrowright","psychophysics","503","523035","0.0-3.0-0.246","","key","arrowright","16.67399999999907","640","344.5","247","9","-1","20","35","25","35","false"
"null","null","psychophysics","504","524037","0.0-3.0-1.246","","key","null","16.674000000000056","640","344.5","","","","","","","",""
"592.9000000357628","arrowleft","psychophysics","505","524633","0.0-3.0-0.247","","key","arrowleft","16.67399999999907","640","344.5","248","9","-1","26","15","25","35","true"
"null","null","psychophysics","506","525635","0.0-3.0-1.247","","key","null","16.67400000000104","640","344.5","","","","","","","",""
"522.6999999880791","arrowleft","psychophysics","507","526159","0.0-3.0-0.248","","key","arrowleft","16.67399999999907","640","344.5","249","9","-1","25","15","25","35","true"
"null","null","psychophysics","508","527163","0.0-3.0-1.248","","key","null","16.67399999999907","640","344.5","","","","","","","",""
"395.10000002384186","arrowleft","psychophysics","509","527561","0.0-3.0-0.249","","key","arrowleft","16.67399999999907","640","344.5","250","9","1","23","35","25","35","false"
"null","null","psychophysics","510","528565","0.0-3.0-1.249","","key","null","16.67399999999907","640","344.5","","","","","","","",""
"528","arrowright","psychophysics","511","529095","0.0-3.0-0.250","","key","arrowright","16.67399999999907","640","344.5","251","9","-1","24","35","25","35","false"
"null","null","psychophysics","512","530096","0.0-3.0-1.250","","key","null","16.67400000000104","640","344.5","","","","","","","",""
"568.8999999761581","arrowleft","psychophysics","513","530671","0.0-3.0-0.251","","key","arrowleft","16.694529411763035","640","344.5","252","10","-1","27","35","25","35","true"
"null","null","psychophysics","514","531673","0.0-3.0-1.251","","key","null","16.67400000000104","640","344.5","","","","","","","",""
"880.7000000476837"," ","html-keyboard-response","515","532564","0.0-3.0-2.251-0.251","<div style=""color: white; text-align: center; vertical-align: top; display: inline-block; width: 800px; margin: auto""><p>You have completed 90% of the trials. You are on block 10 of 10. <br>Good job! Take a break if you need to.</p><p>Press any key to continue the experiment.</p></div>","","","","","","","","","","","","",""
"582.1000000238419","arrowleft","psychophysics","516","534155","0.0-3.0-0.252","","key","arrowleft","16.67399999999907","640","344.5","253","10","-1","27","15","25","35","true"
"null","null","psychophysics","517","535157","0.0-3.0-1.252","","key","null","16.67400000000104","640","344.5","","","","","","","",""
"562.6999999880791","arrowleft","psychophysics","518","535722","0.0-3.0-0.253","","key","arrowleft","16.67399999999907","640","344.5","254","10","-1","30","15","25","35","true"
"null","null","psychophysics","519","536724","0.0-3.0-1.253","","key","null","16.67399999999907","640","344.5","","","","","","","",""
"594.8000000119209","arrowright","psychophysics","520","537321","0.0-3.0-0.254","","key","arrowright","16.674000000002394","640","344.5","255","10","1","23","15","25","35","true"
"null","null","psychophysics","521","538323","0.0-3.0-1.254","","key","null","16.67399999999907","640","344.5","","","","","","","",""
"853.0999999642372","arrowleft","psychophysics","522","539177","0.0-3.0-0.255","","key","arrowleft","16.67399999999907","640","344.5","256","10","-1","26","35","25","35","true"
"null","null","psychophysics","523","540179","0.0-3.0-1.255","","key","null","16.67400000000104","640","344.5","","","","","","","",""
"652.1999999880791","arrowright","psychophysics","524","540834","0.0-3.0-0.256","","key","arrowright","16.67399999999907","640","344.5","257","10","1","26","35","25","35","true"
"null","null","psychophysics","525","541836","0.0-3.0-1.256","","key","null","16.67400000000101","640","344.5","","","","","","","",""
"884.8000000119209","arrowleft","psychophysics","526","542724","0.0-3.0-0.257","","key","arrowleft","16.67399999999907","640","344.5","258","10","1","25","35","25","35","false"
"null","null","psychophysics","527","543728","0.0-3.0-1.257","","key","null","16.67400000000104","640","344.5","","","","","","","",""
"579","arrowright","psychophysics","528","544309","0.0-3.0-0.258","","key","arrowright","16.67399999999907","640","344.5","259","10","1","27","15","25","35","true"
"null","null","psychophysics","529","545310","0.0-3.0-1.258","","key","null","16.67399999999907","640","344.5","","","","","","","",""
"1122.5","arrowright","psychophysics","530","546435","0.0-3.0-0.259","","key","arrowright","16.67400000000083","640","344.5","260","10","-1","23","15","25","35","false"
"null","null","psychophysics","531","547438","0.0-3.0-1.259","","key","null","16.67399999999907","640","344.5","","","","","","","",""
"616.8000000119209","arrowleft","psychophysics","532","548060","0.0-3.0-0.260","","key","arrowleft","16.674000000002216","640","344.5","261","10","-1","25","15","25","35","true"
"null","null","psychophysics","533","549063","0.0-3.0-1.260","","key","null","16.67399999999907","640","344.5","","","","","","","",""
"683.6999999880791","arrowright","psychophysics","534","549749","0.0-3.0-0.261","","key","arrowright","16.67400000000198","640","344.5","262","10","1","27","15","25","35","true"
"null","null","psychophysics","535","550754","0.0-3.0-1.261","","key","null","16.685661016947638","640","344.5","","","","","","","",""
"693","arrowright","psychophysics","536","551452","0.0-3.0-0.262","","key","arrowright","16.674000000001907","640","344.5","263","10","1","27","35","25","35","true"
"null","null","psychophysics","537","552456","0.0-3.0-1.262","","key","null","16.67399999999907","640","344.5","","","","","","","",""
"592.6999999880791","arrowleft","psychophysics","538","553052","0.0-3.0-0.263","","key","arrowleft","16.67399999999907","640","344.5","264","10","-1","26","15","25","35","true"
"null","null","psychophysics","539","554058","0.0-3.0-1.263","","key","null","16.67400000000101","640","344.5","","","","","","","",""
"551.6000000238419","arrowright","psychophysics","540","554614","0.0-3.0-0.264","","key","arrowright","16.67399999999907","640","344.5","265","10","1","25","15","25","35","true"
"null","null","psychophysics","541","555616","0.0-3.0-1.264","","key","null","16.67400000000104","640","344.5","","","","","","","",""
"911.8000000119209","arrowright","psychophysics","542","556530","0.0-3.0-0.265","","key","arrowright","16.67399999999907","640","344.5","266","10","1","26","35","25","35","true"
"null","null","psychophysics","543","557535","0.0-3.0-1.265","","key","null","16.67400000000104","640","344.5","","","","","","","",""
"860.8999999761581","arrowright","psychophysics","544","558399","0.0-3.0-0.266","","key","arrowright","16.67399999999907","640","344.5","267","10","1","26","35","25","35","true"
"null","null","psychophysics","545","559401","0.0-3.0-1.266","","key","null","16.67399999999907","640","344.5","","","","","","","",""
"866.8999999761581","arrowright","psychophysics","546","560270","0.0-3.0-0.267","","key","arrowright","16.674000000001353","640","344.5","268","10","1","24","35","25","35","true"
"null","null","psychophysics","547","561272","0.0-3.0-1.267","","key","null","16.67399999999907","640","344.5","","","","","","","",""
"659.2999999523163","arrowleft","psychophysics","548","561934","0.0-3.0-0.268","","key","arrowleft","16.674000000002053","640","344.5","269","10","-1","26","15","25","35","true"
"null","null","psychophysics","549","562935","0.0-3.0-1.268","","key","null","16.67399999999907","640","344.5","","","","","","","",""
"614.0999999642372","arrowright","psychophysics","550","563552","0.0-3.0-0.269","","key","arrowright","16.67399999999907","640","344.5","270","10","1","23","15","25","35","true"
"null","null","psychophysics","551","564553","0.0-3.0-1.269","","key","null","16.67400000000104","640","344.5","","","","","","","",""
"1576","arrowleft","psychophysics","552","566131","0.0-3.0-0.270","","key","arrowleft","16.67400000000031","640","344.5","271","10","1","25","35","25","35","false"
"null","null","psychophysics","553","567135","0.0-3.0-1.270","","key","null","16.67399999999907","640","344.5","","","","","","","",""
"896.6999999880791","arrowleft","psychophysics","554","568035","0.0-3.0-0.271","","key","arrowleft","16.674000000001264","640","344.5","272","10","-1","24","15","25","35","true"
"null","null","psychophysics","555","569039","0.0-3.0-1.271","","key","null","16.67399999999907","640","344.5","","","","","","","",""
"627.5","arrowright","psychophysics","556","569669","0.0-3.0-0.272","","key","arrowright","16.67399999999907","640","344.5","273","10","1","30","15","25","35","true"
"null","null","psychophysics","557","570672","0.0-3.0-1.272","","key","null","16.685474576272654","640","344.5","","","","","","","",""
"781.3999999761581","arrowleft","psychophysics","558","571456","0.0-3.0-0.273","","key","arrowleft","16.67399999999907","640","344.5","274","10","1","23","35","25","35","false"
"null","null","psychophysics","559","572457","0.0-3.0-1.273","","key","null","16.67400000000104","640","344.5","","","","","","","",""
"795.5999999642372","arrowleft","psychophysics","560","573256","0.0-3.0-0.274","","key","arrowleft","16.67399999999907","640","344.5","275","10","-1","23","15","25","35","true"
"null","null","psychophysics","561","574259","0.0-3.0-1.274","","key","null","16.67399999999907","640","344.5","","","","","","","",""
"539.2000000476837","arrowleft","psychophysics","562","574800","0.0-3.0-0.275","","key","arrowleft","16.674000000002824","640","344.5","276","10","-1","24","15","25","35","true"
"null","null","psychophysics","563","575803","0.0-3.0-1.275","","key","null","16.67399999999907","640","344.5","","","","","","","",""
"1408.300000011921","arrowright","psychophysics","564","577215","0.0-3.0-0.276","","key","arrowright","16.674000000000454","640","344.5","277","10","1","24","15","25","35","true"
"null","null","psychophysics","565","578220","0.0-3.0-1.276","","key","null","16.67399999999907","640","344.5","","","","","","","",""
"769.6999999880791","arrowright","psychophysics","566","578994","0.0-3.0-0.277","","key","arrowright","16.674000000001655","640","344.5","278","10","1","30","35","25","35","true"
"null","null","psychophysics","567","579995","0.0-3.0-1.277","","key","null","16.67399999999907","640","344.5","","","","","","","",""
"697","arrowleft","psychophysics","568","580695","0.0-3.0-0.278","","key","arrowleft","16.67399999999907","640","344.5","279","10","1","24","35","25","35","false"
"null","null","psychophysics","569","581696","0.0-3.0-1.278","","key","null","16.67400000000104","640","344.5","","","","","","","",""
"635.2000000476837","arrowleft","psychophysics","570","582334","0.0-3.0-0.279","","key","arrowleft","16.67399999999907","640","344.5","280","11","-1","27","35","25","35","true"
"null","null","psychophysics","571","583339","0.0-3.0-1.279","","key","null","16.67400000000104","640","344.5","","","","","","","",""
