"rt","response","trial_type","trial_index","time_elapsed","internal_node_id","stimulus","response_type","key_press","avg_frame_time","center_x","center_y","trial","block","test_pos","test_inner_radius","test_outer_radius","ref_inner_radius","ref_outer_radius","test_bigger"
"15114.899999976158","{""p_id"":""2859"",""age"":""19"",""handedness"":""left"",""sex"":""male"",""other_sex"":""""}","survey-html-form","0","15118","0.0-0.0","","","","","","","","","","","","","",""
"9048.100000023842","f","html-keyboard-response","1","24168","0.0-1.0","<p style=""color: white"">Welcome to the Size Judgment Experiment. <br>There will be 10 blocks in this experiment. <br>There will be 28 trials in each block. <br>You will be given a chance to take a break between blocks. <br>Press any key to start the experiment.</p>","","","","","","","","","","","","",""
"6553.400000095367","arrowright","psychophysics","2","30737","0.0-2.0","","key","arrowright","16.66772588832488","426","451","","","","","","","",""
"6947.799999952316","arrowright","psychophysics","3","37688","0.0-3.0-0.0","","key","arrowright","16.666","426","451","1","1","-1","23","35","25","35","false"
"null","null","psychophysics","4","38691","0.0-3.0-1.0","","key","null","16.66600000000003","426","451","","","","","","","",""
"1581","arrowright","psychophysics","5","40275","0.0-3.0-0.1","","key","arrowright","16.665999999999993","426","451","2","1","1","23","35","25","35","true"
"null","null","psychophysics","6","41281","0.0-3.0-1.1","","key","null","16.66600000000003","426","451","","","","","","","",""
"6258.5","arrowright","psychophysics","7","47545","0.0-3.0-0.2","","key","arrowright","16.66779733333333","426","451","3","1","1","24","15","25","35","true"
"null","null","psychophysics","8","48548","0.0-3.0-1.2","","key","null","16.665999999999904","426","451","","","","","","","",""
"1309.7000000476837","arrowright","psychophysics","9","49862","0.0-3.0-0.3","","key","arrowright","16.665999999999958","426","451","4","1","-1","20","35","25","35","false"
"null","null","psychophysics","10","50865","0.0-3.0-1.3","","key","null","16.665999999999986","426","451","","","","","","","",""
"635.8999999761581","arrowleft","psychophysics","11","51504","0.0-3.0-0.4","","key","arrowleft","16.665999999999997","426","451","5","1","-1","30","35","25","35","true"
"null","null","psychophysics","12","52505","0.0-3.0-1.4","","key","null","16.66600000000003","426","451","","","","","","","",""
"571.3999999761581","arrowright","psychophysics","13","53079","0.0-3.0-0.5","","key","arrowright","16.665999999999865","426","451","6","1","-1","27","35","25","35","false"
"null","null","psychophysics","14","54081","0.0-3.0-1.5","","key","null","16.665999999999904","426","451","","","","","","","",""
"589.8999999761581","arrowright","psychophysics","15","54676","0.0-3.0-0.6","","key","arrowright","16.68562857142845","426","451","7","1","1","30","35","25","35","true"
"null","null","psychophysics","16","55682","0.0-3.0-1.6","","key","null","16.665999999999904","426","451","","","","","","","",""
"2208.2000000476837","arrowleft","psychophysics","17","57894","0.0-3.0-0.7","","key","arrowleft","16.665999999999976","426","451","8","1","-1","24","15","25","35","true"
"null","null","psychophysics","18","58898","0.0-3.0-1.7","","key","null","16.665999999999904","426","451","","","","","","","",""
"12805.800000071526","arrowright","psychophysics","19","71709","0.0-3.0-0.8","","key","arrowright","16.665999999999997","426","451","9","1","-1","25","35","25","35","false"
"null","null","psychophysics","20","72715","0.0-3.0-1.8","","key","null","16.666000000000153","426","451","","","","","","","",""
"1127.8999999761581","arrowright","psychophysics","21","73848","0.0-3.0-0.9","","key","arrowright","16.666000000000047","426","451","10","1","1","25","35","25","35","true"
"null","null","psychophysics","22","74850","0.0-3.0-1.9","","key","null","16.677440677966057","426","451","","","","","","","",""
"769","arrowleft","psychophysics","23","75623","0.0-3.0-0.10","","key","arrowleft","16.66599999999997","426","451","11","1","-1","23","15","25","35","true"
"null","null","psychophysics","24","76628","0.0-3.0-1.10","","key","null","16.666000000000153","426","451","","","","","","","",""
"658.3000000715256","arrowright","psychophysics","25","77288","0.0-3.0-0.11","","key","arrowright","16.66600000000005","426","451","12","1","-1","25","35","25","35","false"
"null","null","psychophysics","26","78290","0.0-3.0-1.11","","key","null","16.665999999999904","426","451","","","","","","","",""
"528.9000000953674","arrowleft","psychophysics","27","78821","0.0-3.0-0.12","","key","arrowleft","16.666000000000256","426","451","13","1","1","20","15","25","35","false"
"null","null","psychophysics","28","79825","0.0-3.0-1.12","","key","null","16.665999999999904","426","451","","","","","","","",""
"2076.4000000953674","arrowright","psychophysics","29","81904","0.0-3.0-0.13","","key","arrowright","16.665999999999904","426","451","14","1","-1","23","35","25","35","false"
"null","null","psychophysics","30","82909","0.0-3.0-1.13","","key","null","16.665999999999904","426","451","","","","","","","",""
"743.8999999761581","arrowright","psychophysics","31","83656","0.0-3.0-0.14","","key","arrowright","16.666000000000086","426","451","15","1","1","26","15","25","35","true"
"null","null","psychophysics","32","84658","0.0-3.0-1.14","","key","null","16.677610169491636","426","451","","","","","","","",""
"1087.4000000953674","arrowright","psychophysics","33","85749","0.0-3.0-0.15","","key","arrowright","16.66599999999994","426","451","16","1","-1","25","35","25","35","false"
"null","null","psychophysics","34","86750","0.0-3.0-1.15","","key","null","16.666000000000107","426","451","","","","","","","",""
"818.4000000953674","arrowright","psychophysics","35","87571","0.0-3.0-0.16","","key","arrowright","16.665999999999865","426","451","17","1","-1","27","35","25","35","false"
"null","null","psychophysics","36","88574","0.0-3.0-1.16","","key","null","16.665999999999904","426","451","","","","","","","",""
"3696.600000023842","arrowleft","psychophysics","37","92273","0.0-3.0-0.17","","key","arrowleft","16.666000000000007","426","451","18","1","1","24","35","25","35","false"
"null","null","psychophysics","38","93278","0.0-3.0-1.17","","key","null","16.666000000000153","426","451","","","","","","","",""
"1132","arrowleft","psychophysics","39","94413","0.0-3.0-0.18","","key","arrowleft","16.666000000000047","426","451","19","1","-1","27","15","25","35","true"
"null","null","psychophysics","40","95416","0.0-3.0-1.18","","key","null","16.665999999999904","426","451","","","","","","","",""
"2975.2999999523163","arrowright","psychophysics","41","98396","0.0-3.0-0.19","","key","arrowright","16.666000000000054","426","451","20","1","1","26","15","25","35","true"
"null","null","psychophysics","42","99399","0.0-3.0-1.19","","key","null","16.665999999999904","426","451","","","","","","","",""
"679.7000000476837","arrowleft","psychophysics","43","100084","0.0-3.0-0.20","","key","arrowleft","16.666000000000277","426","451","21","1","-1","23","15","25","35","true"
"null","null","psychophysics","44","101086","0.0-3.0-1.20","","key","null","16.665999999999904","426","451","","","","","","","",""
"593.2999999523163","arrowright","psychophysics","45","101681","0.0-3.0-0.21","","key","arrowright","16.666000000000007","426","451","22","1","-1","20","35","25","35","false"
"null","null","psychophysics","46","102683","0.0-3.0-1.21","","key","null","16.665999999999865","426","451","","","","","","","",""
"502.10000002384186","arrowleft","psychophysics","47","103188","0.0-3.0-0.22","","key","arrowleft","16.665999999999947","426","451","23","1","1","25","15","25","35","false"
"null","null","psychophysics","48","104194","0.0-3.0-1.22","","key","null","16.665999999999904","426","451","","","","","","","",""
"657.7000000476837","arrowleft","psychophysics","49","104855","0.0-3.0-0.23","","key","arrowleft","16.683307692307817","426","451","24","1","-1","30","15","25","35","true"
"null","null","psychophysics","50","105860","0.0-3.0-1.23","","key","null","16.665999999999904","426","451","","","","","","","",""
"1420","arrowleft","psychophysics","51","107283","0.0-3.0-0.24","","key","arrowleft","16.665999999999865","426","451","25","1","1","23","35","25","35","false"
"null","null","psychophysics","52","108285","0.0-3.0-1.24","","key","null","16.665999999999865","426","451","","","","","","","",""
"1134.7999999523163","arrowright","psychophysics","53","109422","0.0-3.0-0.25","","key","arrowright","16.666000000000047","426","451","26","1","-1","27","35","25","35","false"
"null","null","psychophysics","54","110425","0.0-3.0-1.25","","key","null","16.666000000000153","426","451","","","","","","","",""
"1129","arrowright","psychophysics","55","111556","0.0-3.0-0.26","","key","arrowright","16.666000000000047","426","451","27","1","-1","25","35","25","35","false"
"null","null","psychophysics","56","112560","0.0-3.0-1.26","","key","null","16.665999999999904","426","451","","","","","","","",""
"1109.1999999284744","arrowright","psychophysics","57","113672","0.0-3.0-0.27","","key","arrowright","16.666000000000086","426","451","28","2","1","20","15","25","35","true"
"null","null","psychophysics","58","114674","0.0-3.0-1.27","","key","null","16.677627118643997","426","451","","","","","","","",""
"2644.5","arrowright","html-keyboard-response","59","117320","0.0-3.0-2.27-0.27","<div style=""color: white; text-align: center; vertical-align: top; display: inline-block; width: 800px; margin: auto""><p>You have completed 10% of the trials. You are on block 2 of 10. <br>Good job! Take a break if you need to.</p><p>Press any key to continue the experiment.</p></div>","","","","","","","","","","","","",""
"1420.3999999761581","arrowright","psychophysics","60","119749","0.0-3.0-0.28","","key","arrowright","16.666000000000007","426","451","29","2","-1","20","15","25","35","false"
"null","null","psychophysics","61","120751","0.0-3.0-1.28","","key","null","16.666000000000107","426","451","","","","","","","",""
"2999.5","arrowright","psychophysics","62","123754","0.0-3.0-0.29","","key","arrowright","16.665999999999958","426","451","30","2","-1","24","15","25","35","false"
"null","null","psychophysics","63","124755","0.0-3.0-1.29","","key","null","16.666000000000153","426","451","","","","","","","",""
"3631","arrowleft","psychophysics","64","128389","0.0-3.0-0.30","","key","arrowleft","16.665999999999986","426","451","31","2","1","23","15","25","35","false"
"null","null","psychophysics","65","129393","0.0-3.0-1.30","","key","null","16.666000000000153","426","451","","","","","","","",""
"926.7000000476837","arrowright","psychophysics","66","130323","0.0-3.0-0.31","","key","arrowright","16.666000000000086","426","451","32","2","-1","20","35","25","35","false"
"null","null","psychophysics","67","131324","0.0-3.0-1.31","","key","null","16.665999999999904","426","451","","","","","","","",""
"795.7000000476837","arrowright","psychophysics","68","132123","0.0-3.0-0.32","","key","arrowright","16.665999999999915","426","451","33","2","1","26","15","25","35","true"
"null","null","psychophysics","69","133124","0.0-3.0-1.32","","key","null","16.6660000000004","426","451","","","","","","","",""
"752.5","arrowright","psychophysics","70","133879","0.0-3.0-0.33","","key","arrowright","16.666000000000086","426","451","34","2","-1","20","35","25","35","false"
"null","null","psychophysics","71","134884","0.0-3.0-1.33","","key","null","16.677423728813448","426","451","","","","","","","",""
"519.3000000715256","arrowright","psychophysics","72","135407","0.0-3.0-0.34","","key","arrowright","16.666000000000256","426","451","35","2","-1","23","35","25","35","false"
"null","null","psychophysics","73","136409","0.0-3.0-1.34","","key","null","16.665999999999904","426","451","","","","","","","",""
"999.2000000476837","arrowleft","psychophysics","74","137411","0.0-3.0-0.35","","key","arrowleft","16.665999999999904","426","451","36","2","-1","26","35","25","35","true"
"null","null","psychophysics","75","138414","0.0-3.0-1.35","","key","null","16.6660000000004","426","451","","","","","","","",""
"523.7000000476837","arrowright","psychophysics","76","138940","0.0-3.0-0.36","","key","arrowright","16.66599999999932","426","451","37","2","1","30","15","25","35","true"
"null","null","psychophysics","77","139944","0.0-3.0-1.36","","key","null","16.6660000000004","426","451","","","","","","","",""
"546.2999999523163","arrowleft","psychophysics","78","140493","0.0-3.0-0.37","","key","arrowleft","16.666000000000167","426","451","38","2","-1","26","15","25","35","true"
"null","null","psychophysics","79","141497","0.0-3.0-1.37","","key","null","16.665999999999904","426","451","","","","","","","",""
"610.5","arrowleft","psychophysics","80","142115","0.0-3.0-0.38","","key","arrowleft","16.665999999999865","426","451","39","2","-1","23","15","25","35","true"
"null","null","psychophysics","81","143117","0.0-3.0-1.38","","key","null","16.665999999999904","426","451","","","","","","","",""
"544.1999999284744","arrowright","psychophysics","82","143666","0.0-3.0-0.39","","key","arrowright","16.666000000000167","426","451","40","2","1","30","15","25","35","true"
"null","null","psychophysics","83","144667","0.0-3.0-1.39","","key","null","16.677627118644246","426","451","","","","","","","",""
"501.39999997615814","arrowleft","psychophysics","84","145173","0.0-3.0-0.40","","key","arrowleft","16.66600000000035","426","451","41","2","-1","30","35","25","35","true"
"null","null","psychophysics","85","146177","0.0-3.0-1.40","","key","null","16.665999999999904","426","451","","","","","","","",""
"1243.5","arrowright","psychophysics","86","147423","0.0-3.0-0.41","","key","arrowright","16.666000000000192","426","451","42","2","1","24","35","25","35","true"
"null","null","psychophysics","87","148428","0.0-3.0-1.41","","key","null","16.665999999999904","426","451","","","","","","","",""
"1425.0999999046326","arrowleft","psychophysics","88","149856","0.0-3.0-0.42","","key","arrowleft","16.665999999999837","426","451","43","2","-1","26","35","25","35","true"
"null","null","psychophysics","89","150860","0.0-3.0-1.42","","key","null","16.665999999999904","426","451","","","","","","","",""
"609.6999999284744","arrowright","psychophysics","90","151473","0.0-3.0-0.43","","key","arrowright","16.665999999999865","426","451","44","2","1","30","35","25","35","true"
"null","null","psychophysics","91","152478","0.0-3.0-1.43","","key","null","16.665999999999904","426","451","","","","","","","",""
"995.6000000238419","arrowleft","psychophysics","92","153476","0.0-3.0-0.44","","key","arrowleft","16.6660000000004","426","451","45","2","1","23","35","25","35","false"
"null","null","psychophysics","93","154477","0.0-3.0-1.44","","key","null","16.673694915254107","426","451","","","","","","","",""
"592.3999999761581","arrowright","psychophysics","94","155073","0.0-3.0-0.45","","key","arrowright","16.665999999999933","426","451","46","2","1","27","15","25","35","true"
"null","null","psychophysics","95","156074","0.0-3.0-1.45","","key","null","16.665999999999904","426","451","","","","","","","",""
"615.2000000476837","arrowright","psychophysics","96","156693","0.0-3.0-0.46","","key","arrowright","16.666000000000672","426","451","47","2","1","25","15","25","35","true"
"null","null","psychophysics","97","157694","0.0-3.0-1.46","","key","null","16.665999999999904","426","451","","","","","","","",""
"574","arrowleft","psychophysics","98","158271","0.0-3.0-0.47","","key","arrowleft","16.666000000000007","426","451","48","2","-1","26","15","25","35","true"
"null","null","psychophysics","99","159275","0.0-3.0-1.47","","key","null","16.665999999999904","426","451","","","","","","","",""
"3649","arrowleft","psychophysics","100","162926","0.0-3.0-0.48","","key","arrowleft","16.665999999999976","426","451","49","2","1","24","35","25","35","false"
"null","null","psychophysics","101","163929","0.0-3.0-1.48","","key","null","16.665999999999904","426","451","","","","","","","",""
"2866","arrowleft","psychophysics","102","166797","0.0-3.0-0.49","","key","arrowleft","16.665999999999993","426","451","50","2","-1","27","35","25","35","true"
"null","null","psychophysics","103","167798","0.0-3.0-1.49","","key","null","16.665999999999904","426","451","","","","","","","",""
"660.8999999761581","arrowleft","psychophysics","104","168462","0.0-3.0-0.50","","key","arrowleft","16.666000000000423","426","451","51","2","-1","23","15","25","35","true"
"null","null","psychophysics","105","169468","0.0-3.0-1.50","","key","null","16.665999999999865","426","451","","","","","","","",""
"500.2999999523163","arrowright","psychophysics","106","169971","0.0-3.0-0.51","","key","arrowright","16.666000000000448","426","451","52","2","1","20","15","25","35","true"
"null","null","psychophysics","107","170976","0.0-3.0-1.51","","key","null","16.665999999999904","426","451","","","","","","","",""
"4183.899999976158","arrowright","psychophysics","108","175167","0.0-3.0-0.52","","key","arrowright","16.66869200000004","426","451","53","2","1","24","15","25","35","true"
"null","null","psychophysics","109","176169","0.0-3.0-1.52","","key","null","16.665999999999865","426","451","","","","","","","",""
"839.5999999046326","arrowleft","psychophysics","110","177012","0.0-3.0-0.53","","key","arrowleft","16.66600000000041","426","451","54","2","-1","20","15","25","35","true"
"null","null","psychophysics","111","178014","0.0-3.0-1.53","","key","null","16.665999999999904","426","451","","","","","","","",""
"840.4000000953674","arrowright","psychophysics","112","178857","0.0-3.0-0.54","","key","arrowright","16.665999999999766","426","451","55","2","1","23","15","25","35","true"
"null","null","psychophysics","113","179862","0.0-3.0-1.54","","key","null","16.6660000000004","426","451","","","","","","","",""
"2256.7000000476837","arrowright","psychophysics","114","182122","0.0-3.0-0.55","","key","arrowright","16.666000000000025","426","451","56","3","1","23","15","25","35","true"
"null","null","psychophysics","115","183126","0.0-3.0-1.55","","key","null","16.665999999999904","426","451","","","","","","","",""
"728313.6000000238","arrowright","html-keyboard-response","116","911456","0.0-3.0-2.55-0.55","<div style=""color: white; text-align: center; vertical-align: top; display: inline-block; width: 800px; margin: auto""><p>You have completed 20% of the trials. You are on block 3 of 10. <br>Good job! Take a break if you need to.</p><p>Press any key to continue the experiment.</p></div>","","","","","","","","","","","","",""
"1151.7999999523163","arrowright","psychophysics","117","913616","0.0-3.0-0.56","","key","arrowright","17.163492537313836","426","451","57","3","1","27","35","25","35","true"
"null","null","psychophysics","118","914621","0.0-3.0-1.56","","key","null","16.665999999999904","426","451","","","","","","","",""
"608.1000000238419","arrowleft","psychophysics","119","915234","0.0-3.0-0.57","","key","arrowleft","16.666000000000672","426","451","58","3","1","20","35","25","35","false"
"null","null","psychophysics","120","916238","0.0-3.0-1.57","","key","null","16.665999999999904","426","451","","","","","","","",""
"859.2000000476837","arrowright","psychophysics","121","917101","0.0-3.0-0.58","","key","arrowright","16.66599999999801","426","451","59","3","-1","26","35","25","35","false"
"null","null","psychophysics","122","918104","0.0-3.0-1.58","","key","null","16.665999999999904","426","451","","","","","","","",""
"524.1000000238419","arrowright","psychophysics","123","918633","0.0-3.0-0.59","","key","arrowright","16.665999999998377","426","451","60","3","-1","20","35","25","35","false"
"null","null","psychophysics","124","919635","0.0-3.0-1.59","","key","null","16.665999999999904","426","451","","","","","","","",""
"546.8999999761581","arrowleft","psychophysics","125","920184","0.0-3.0-0.60","","key","arrowleft","16.666000000001077","426","451","61","3","-1","30","15","25","35","true"
"null","null","psychophysics","126","921188","0.0-3.0-1.60","","key","null","16.665999999999904","426","451","","","","","","","",""
"409.2000000476837","arrowleft","psychophysics","127","921602","0.0-3.0-0.61","","key","arrowleft","16.66600000000229","426","451","62","3","-1","30","15","25","35","true"
"null","null","psychophysics","128","922604","0.0-3.0-1.61","","key","null","16.665999999999904","426","451","","","","","","","",""
"477.39999997615814","arrowright","psychophysics","129","923086","0.0-3.0-0.62","","key","arrowright","16.666000000001596","426","451","63","3","1","24","35","25","35","true"
"null","null","psychophysics","130","924088","0.0-3.0-1.62","","key","null","16.665999999999904","426","451","","","","","","","",""
"434.7000000476837","arrowright","psychophysics","131","924527","0.0-3.0-0.63","","key","arrowright","16.665999999999677","426","451","64","3","-1","26","15","25","35","false"
"null","null","psychophysics","132","925530","0.0-3.0-1.63","","key","null","16.665999999999904","426","451","","","","","","","",""
"593.6000000238419","arrowright","psychophysics","133","926126","0.0-3.0-0.64","","key","arrowright","16.666000000001596","426","451","65","3","1","25","15","25","35","true"
"null","null","psychophysics","134","927127","0.0-3.0-1.64","","key","null","16.665999999999904","426","451","","","","","","","",""
"794.7999999523163","arrowright","psychophysics","135","927925","0.0-3.0-0.65","","key","arrowright","16.666000000000533","426","451","66","3","1","30","35","25","35","true"
"null","null","psychophysics","136","928927","0.0-3.0-1.65","","key","null","16.674237288136066","426","451","","","","","","","",""
"1111.1000000238419","arrowright","psychophysics","137","930040","0.0-3.0-0.66","","key","arrowright","16.666000000000086","426","451","67","3","-1","23","35","25","35","false"
"null","null","psychophysics","138","931044","0.0-3.0-1.66","","key","null","16.665999999999904","426","451","","","","","","","",""
"1242.6999999284744","arrowleft","psychophysics","139","932290","0.0-3.0-0.67","","key","arrowleft","16.665999999999798","426","451","68","3","1","26","35","25","35","false"
"null","null","psychophysics","140","933294","0.0-3.0-1.67","","key","null","16.665999999999904","426","451","","","","","","","",""
"883.7999999523163","arrowleft","psychophysics","141","934181","0.0-3.0-0.68","","key","arrowleft","16.665999999999677","426","451","69","3","1","20","35","25","35","false"
"null","null","psychophysics","142","935182","0.0-3.0-1.68","","key","null","16.665999999999904","426","451","","","","","","","",""
"1899.7000000476837","arrowleft","psychophysics","143","937084","0.0-3.0-0.69","","key","arrowleft","16.66600000000027","426","451","70","3","1","24","35","25","35","false"
"null","null","psychophysics","144","938088","0.0-3.0-1.69","","key","null","16.66600000000188","426","451","","","","","","","",""
"3174.7000000476837","arrowright","psychophysics","145","941267","0.0-3.0-0.70","","key","arrowright","16.670605263157476","426","451","71","3","-1","26","35","25","35","false"
"null","null","psychophysics","146","942272","0.0-3.0-1.70","","key","null","16.665999999999904","426","451","","","","","","","",""
"2502.399999976158","arrowright","psychophysics","147","944778","0.0-3.0-0.71","","key","arrowright","16.666000000000157","426","451","72","3","-1","20","15","25","35","false"
"null","null","psychophysics","148","945780","0.0-3.0-1.71","","key","null","16.665999999999904","426","451","","","","","","","",""
"1555.8999999761581","arrowright","psychophysics","149","947343","0.0-3.0-0.72","","key","arrowright","16.66600000000088","426","451","73","3","-1","20","15","25","35","false"
"null","null","psychophysics","150","948344","0.0-3.0-1.72","","key","null","16.665999999999904","426","451","","","","","","","",""
"885.5","arrowright","psychophysics","151","949233","0.0-3.0-0.73","","key","arrowright","16.666000000001915","426","451","74","3","1","25","15","25","35","true"
"null","null","psychophysics","152","950235","0.0-3.0-1.73","","key","null","16.665999999999904","426","451","","","","","","","",""
"391312.7999999523","arrowright","psychophysics","153","1341468","0.0-3.0-0.74","","key","arrowright","16.675986831451095","426","451","75","3","1","24","15","25","35","true"
"null","null","psychophysics","154","1342475","0.0-3.0-1.74","","key","null","16.665999999999904","426","451","","","","","","","",""
"716.2000000476837","arrowright","psychophysics","155","1343195","0.0-3.0-0.75","","key","arrowright","16.665999999995407","426","451","76","3","1","23","15","25","35","true"
"null","null","psychophysics","156","1344197","0.0-3.0-1.75","","key","null","16.665999999999904","426","451","","","","","","","",""
"1492.4000000953674","arrowleft","psychophysics","157","1345693","0.0-3.0-0.76","","key","arrowleft","16.665999999999727","426","451","77","3","1","23","35","25","35","false"
"null","null","psychophysics","158","1346697","0.0-3.0-1.76","","key","null","16.665999999999904","426","451","","","","","","","",""
"544.5","arrowright","psychophysics","159","1347245","0.0-3.0-0.77","","key","arrowright","16.66599999999744","426","451","78","3","-1","20","15","25","35","false"
"null","null","psychophysics","160","1348247","0.0-3.0-1.77","","key","null","16.665999999999904","426","451","","","","","","","",""
"807.3000000715256","arrowright","psychophysics","161","1349058","0.0-3.0-0.78","","key","arrowright","16.676340425530686","426","451","79","3","-1","20","35","25","35","false"
"null","null","psychophysics","162","1350059","0.0-3.0-1.78","","key","null","16.66599999999938","426","451","","","","","","","",""
"1639.3999999761581","arrowright","psychophysics","163","1351701","0.0-3.0-0.79","","key","arrowright","16.66600000000194","426","451","80","3","1","25","35","25","35","true"
"null","null","psychophysics","164","1352702","0.0-3.0-1.79","","key","null","16.665999999999904","426","451","","","","","","","",""
"750","arrowleft","psychophysics","165","1353454","0.0-3.0-0.80","","key","arrowleft","16.666000000000086","426","451","81","3","1","20","35","25","35","false"
"null","null","psychophysics","166","1354459","0.0-3.0-1.80","","key","null","16.66599999999938","426","451","","","","","","","",""
"1131.1999999284744","arrowright","psychophysics","167","1355593","0.0-3.0-0.81","","key","arrowright","16.66599999999961","426","451","82","3","-1","23","15","25","35","false"
"null","null","psychophysics","168","1356597","0.0-3.0-1.81","","key","null","16.665999999999904","426","451","","","","","","","",""
"1153.1000000238419","arrowleft","psychophysics","169","1357753","0.0-3.0-0.82","","key","arrowleft","16.66599999999915","426","451","83","3","1","23","35","25","35","false"
"null","null","psychophysics","170","1358758","0.0-3.0-1.82","","key","null","16.680813559323106","426","451","","","","","","","",""
"2388.5","arrowright","psychophysics","171","1361151","0.0-3.0-0.83","","key","arrowright","16.665999999999272","426","451","84","4","-1","20","15","25","35","false"
"null","null","psychophysics","172","1362155","0.0-3.0-1.83","","key","null","16.665999999999904","426","451","","","","","","","",""
"283285.8000000715","arrowright","html-keyboard-response","173","1645444","0.0-3.0-2.83-0.83","<div style=""color: white; text-align: center; vertical-align: top; display: inline-block; width: 800px; margin: auto""><p>You have completed 30% of the trials. You are on block 4 of 10. <br>Good job! Take a break if you need to.</p><p>Press any key to continue the experiment.</p></div>","","","","","","","","","","","","",""
"724.5","arrowright","psychophysics","174","1647174","0.0-3.0-0.84","","key","arrowright","16.666000000000825","426","451","85","4","-1","23","35","25","35","false"
"null","null","psychophysics","175","1648175","0.0-3.0-1.84","","key","null","16.665999999999904","426","451","","","","","","","",""
"1155.8000000715256","arrowleft","psychophysics","176","1649333","0.0-3.0-0.85","","key","arrowleft","16.665999999998704","426","451","86","4","-1","24","15","25","35","true"
"null","null","psychophysics","177","1650335","0.0-3.0-1.85","","key","null","16.665999999999904","426","451","","","","","","","",""
"795.6000000238419","arrowright","psychophysics","178","1651134","0.0-3.0-0.86","","key","arrowright","16.665999999998057","426","451","87","4","1","26","15","25","35","true"
"null","null","psychophysics","179","1652137","0.0-3.0-1.86","","key","null","16.665999999999904","426","451","","","","","","","",""
"771","arrowright","psychophysics","180","1652910","0.0-3.0-0.87","","key","arrowright","16.66599999999938","426","451","88","4","1","26","15","25","35","true"
"null","null","psychophysics","181","1653913","0.0-3.0-1.87","","key","null","16.66599999999938","426","451","","","","","","","",""
"640","arrowright","psychophysics","182","1654555","0.0-3.0-0.88","","key","arrowright","16.665999999999798","426","451","89","4","1","30","15","25","35","true"
"null","null","psychophysics","183","1655560","0.0-3.0-1.88","","key","null","16.665999999999904","426","451","","","","","","","",""
"569.2999999523163","arrowleft","psychophysics","184","1656132","0.0-3.0-0.89","","key","arrowleft","16.666000000002576","426","451","90","4","-1","30","15","25","35","true"
"null","null","psychophysics","185","1657135","0.0-3.0-1.89","","key","null","16.665999999999904","426","451","","","","","","","",""
"654.6999999284744","arrowleft","psychophysics","186","1657793","0.0-3.0-0.90","","key","arrowleft","16.66599999999897","426","451","91","4","-1","30","15","25","35","true"
"null","null","psychophysics","187","1658796","0.0-3.0-1.90","","key","null","16.666000000003258","426","451","","","","","","","",""
"1064.5","arrowright","psychophysics","188","1659863","0.0-3.0-0.91","","key","arrowright","16.6659999999979","426","451","92","4","1","24","15","25","35","true"
"null","null","psychophysics","189","1660868","0.0-3.0-1.91","","key","null","16.665999999999904","426","451","","","","","","","",""
"1039.2000000476837","arrowright","psychophysics","190","1661910","0.0-3.0-0.92","","key","arrowright","16.66599999999887","426","451","93","4","-1","20","15","25","35","false"
"null","null","psychophysics","191","1662913","0.0-3.0-1.92","","key","null","16.66599999999938","426","451","","","","","","","",""
"795","arrowleft","psychophysics","192","1663710","0.0-3.0-0.93","","key","arrowleft","16.666000000003766","426","451","94","4","-1","25","15","25","35","true"
"null","null","psychophysics","193","1664712","0.0-3.0-1.93","","key","null","16.665999999999904","426","451","","","","","","","",""
"659.3000000715256","arrowright","psychophysics","194","1665375","0.0-3.0-0.94","","key","arrowright","16.665999999998185","426","451","95","4","1","24","15","25","35","true"
"null","null","psychophysics","195","1666376","0.0-3.0-1.94","","key","null","16.67681355932254","426","451","","","","","","","",""
"1159.8999999761581","arrowleft","psychophysics","196","1667539","0.0-3.0-0.95","","key","arrowleft","16.66600000000208","426","451","96","4","1","20","15","25","35","false"
"null","null","psychophysics","197","1668541","0.0-3.0-1.95","","key","null","16.665999999999904","426","451","","","","","","","",""
"1898.2999999523163","arrowright","psychophysics","198","1670441","0.0-3.0-0.96","","key","arrowright","16.66599999999924","426","451","97","4","1","25","15","25","35","true"
"null","null","psychophysics","199","1671443","0.0-3.0-1.96","","key","null","16.665999999999904","426","451","","","","","","","",""
"2480.100000023842","arrowleft","psychophysics","200","1673925","0.0-3.0-0.97","","key","arrowleft","16.665999999999798","426","451","98","4","1","23","15","25","35","false"
"null","null","psychophysics","201","1674927","0.0-3.0-1.97","","key","null","16.665999999999904","426","451","","","","","","","",""
"776.5","arrowleft","psychophysics","202","1675705","0.0-3.0-0.98","","key","arrowleft","16.681695652174074","426","451","99","4","-1","26","15","25","35","true"
"null","null","psychophysics","203","1676708","0.0-3.0-1.98","","key","null","16.665999999999904","426","451","","","","","","","",""
"591.2000000476837","arrowleft","psychophysics","204","1677301","0.0-3.0-0.99","","key","arrowleft","16.666000000001596","426","451","100","4","-1","24","15","25","35","true"
"null","null","psychophysics","205","1678302","0.0-3.0-1.99","","key","null","16.665999999999904","426","451","","","","","","","",""
"1269.2999999523163","arrowleft","psychophysics","206","1679574","0.0-3.0-0.100","","key","arrowleft","16.666000000002484","426","451","101","4","-1","27","35","25","35","true"
"null","null","psychophysics","207","1680579","0.0-3.0-1.100","","key","null","16.665999999999904","426","451","","","","","","","",""
"1213.3000000715256","arrowright","psychophysics","208","1681801","0.0-3.0-0.101","","key","arrowright","16.66600000000023","426","451","102","4","1","26","35","25","35","true"
"null","null","psychophysics","209","1682803","0.0-3.0-1.101","","key","null","16.665999999999904","426","451","","","","","","","",""
"728.6000000238419","arrowright","psychophysics","210","1683534","0.0-3.0-0.102","","key","arrowright","16.666000000000825","426","451","103","4","1","27","15","25","35","true"
"null","null","psychophysics","211","1684536","0.0-3.0-1.102","","key","null","16.665999999999904","426","451","","","","","","","",""
"752.5","arrowright","psychophysics","212","1685291","0.0-3.0-0.103","","key","arrowright","16.666000000000086","426","451","104","4","1","25","35","25","35","true"
"null","null","psychophysics","213","1686295","0.0-3.0-1.103","","key","null","16.665999999999904","426","451","","","","","","","",""
"676.8999999761581","arrowleft","psychophysics","214","1686975","0.0-3.0-0.104","","key","arrowleft","16.66599999999744","426","451","105","4","-1","25","15","25","35","true"
"null","null","psychophysics","215","1687985","0.0-3.0-1.104","","key","null","16.66599999999938","426","451","","","","","","","",""
"452.39999997615814","arrowright","psychophysics","216","1688441","0.0-3.0-0.105","","key","arrowright","16.666000000004153","426","451","106","4","-1","20","35","25","35","false"
"null","null","psychophysics","217","1689445","0.0-3.0-1.105","","key","null","16.665999999999904","426","451","","","","","","","",""
"589.8999999761581","arrowright","psychophysics","218","1690039","0.0-3.0-0.106","","key","arrowright","16.666000000001596","426","451","107","4","1","25","15","25","35","true"
"null","null","psychophysics","219","1691044","0.0-3.0-1.106","","key","null","16.665999999999904","426","451","","","","","","","",""
"696.6000000238419","arrowright","psychophysics","220","1691745","0.0-3.0-0.107","","key","arrowright","16.66600000000241","426","451","108","4","1","26","35","25","35","true"
"null","null","psychophysics","221","1692748","0.0-3.0-1.107","","key","null","16.66599999999938","426","451","","","","","","","",""
"729","arrowleft","psychophysics","222","1693479","0.0-3.0-0.108","","key","arrowleft","16.666000000000825","426","451","109","4","1","24","35","25","35","false"
"null","null","psychophysics","223","1694480","0.0-3.0-1.108","","key","null","16.665999999999904","426","451","","","","","","","",""
"574.1000000238419","arrowright","psychophysics","224","1695056","0.0-3.0-0.109","","key","arrowright","16.665999999996558","426","451","110","4","1","30","35","25","35","true"
"null","null","psychophysics","225","1696058","0.0-3.0-1.109","","key","null","16.67681355932254","426","451","","","","","","","",""
"748.2000000476837","arrowright","psychophysics","226","1696808","0.0-3.0-0.110","","key","arrowright","16.666000000000086","426","451","111","4","1","26","15","25","35","true"
"null","null","psychophysics","227","1697811","0.0-3.0-1.110","","key","null","16.665999999999904","426","451","","","","","","","",""
"705.6000000238419","arrowleft","psychophysics","228","1698518","0.0-3.0-0.111","","key","arrowleft","16.666000000001596","426","451","112","5","1","20","35","25","35","false"
"null","null","psychophysics","229","1699520","0.0-3.0-1.111","","key","null","16.665999999999904","426","451","","","","","","","",""
"215722.60000002384","arrowleft","html-keyboard-response","230","1915246","0.0-3.0-2.111-0.111","<div style=""color: white; text-align: center; vertical-align: top; display: inline-block; width: 800px; margin: auto""><p>You have completed 40% of the trials. You are on block 5 of 10. <br>Good job! Take a break if you need to.</p><p>Press any key to continue the experiment.</p></div>","","","","","","","","","","","","",""
"922.2999999523163","arrowleft","psychophysics","231","1917177","0.0-3.0-0.112","","key","arrowleft","16.665999999997968","426","451","113","5","-1","23","15","25","35","true"
"null","null","psychophysics","232","1918179","0.0-3.0-1.112","","key","null","16.665999999999904","426","451","","","","","","","",""
"1379.3999999761581","arrowleft","psychophysics","233","1919561","0.0-3.0-0.113","","key","arrowleft","16.665999999999567","426","451","114","5","-1","25","35","25","35","true"
"null","null","psychophysics","234","1920562","0.0-3.0-1.113","","key","null","16.665999999999904","426","451","","","","","","","",""
"639","arrowright","psychophysics","235","1921204","0.0-3.0-0.114","","key","arrowright","16.66599999999897","426","451","115","5","-1","20","35","25","35","false"
"null","null","psychophysics","236","1922209","0.0-3.0-1.114","","key","null","16.665999999999904","426","451","","","","","","","",""
"657.8999999761581","arrowleft","psychophysics","237","1922869","0.0-3.0-0.115","","key","arrowleft","16.666000000004153","426","451","116","5","1","24","35","25","35","false"
"null","null","psychophysics","238","1923873","0.0-3.0-1.115","","key","null","16.665999999999904","426","451","","","","","","","",""
"524.6000000238419","arrowleft","psychophysics","239","1924400","0.0-3.0-0.116","","key","arrowleft","16.665999999998377","426","451","117","5","-1","30","15","25","35","true"
"null","null","psychophysics","240","1925405","0.0-3.0-1.116","","key","null","16.677881355934097","426","451","","","","","","","",""
"454.10000002384186","arrowright","psychophysics","241","1925862","0.0-3.0-0.117","","key","arrowright","16.666000000004153","426","451","118","5","1","26","35","25","35","true"
"null","null","psychophysics","242","1926867","0.0-3.0-1.117","","key","null","16.66599999999938","426","451","","","","","","","",""
"567.8999999761581","arrowleft","psychophysics","243","1927437","0.0-3.0-0.118","","key","arrowleft","16.665999999996558","426","451","119","5","1","24","35","25","35","false"
"null","null","psychophysics","244","1928438","0.0-3.0-1.118","","key","null","16.665999999999904","426","451","","","","","","","",""
"480.3000000715256","arrowleft","psychophysics","245","1928921","0.0-3.0-0.119","","key","arrowleft","16.666000000001596","426","451","120","5","1","20","35","25","35","false"
"null","null","psychophysics","246","1929923","0.0-3.0-1.119","","key","null","16.665999999999904","426","451","","","","","","","",""
"435.7999999523163","arrowright","psychophysics","247","1930361","0.0-3.0-0.120","","key","arrowright","16.665999999996274","426","451","121","5","-1","27","15","25","35","false"
"null","null","psychophysics","248","1931363","0.0-3.0-1.120","","key","null","16.665999999999904","426","451","","","","","","","",""
"909.3999999761581","arrowright","psychophysics","249","1932275","0.0-3.0-0.121","","key","arrowright","16.665999999998515","426","451","122","5","1","26","35","25","35","true"
"null","null","psychophysics","250","1933278","0.0-3.0-1.121","","key","null","16.665999999999904","426","451","","","","","","","",""
"1379.3999999761581","arrowleft","psychophysics","251","1934660","0.0-3.0-0.122","","key","arrowleft","16.665999999999567","426","451","123","5","1","20","15","25","35","false"
"null","null","psychophysics","252","1935663","0.0-3.0-1.122","","key","null","16.665999999999904","426","451","","","","","","","",""
"637.6000000238419","arrowright","psychophysics","253","1936303","0.0-3.0-0.123","","key","arrowright","16.66599999999897","426","451","124","5","1","27","35","25","35","true"
"null","null","psychophysics","254","1937305","0.0-3.0-1.123","","key","null","16.665999999999904","426","451","","","","","","","",""
"1312.6000000238419","arrowleft","psychophysics","255","1938620","0.0-3.0-0.124","","key","arrowleft","16.66600000000117","426","451","125","5","-1","25","35","25","35","true"
"null","null","psychophysics","256","1939623","0.0-3.0-1.124","","key","null","16.665999999999904","426","451","","","","","","","",""
"544.8999999761581","arrowleft","psychophysics","257","1940171","0.0-3.0-0.125","","key","arrowleft","16.66599999999744","426","451","126","5","-1","30","35","25","35","true"
"null","null","psychophysics","258","1941176","0.0-3.0-1.125","","key","null","16.665999999999904","426","451","","","","","","","",""
"590.8999999761581","arrowleft","psychophysics","259","1941769","0.0-3.0-0.126","","key","arrowleft","16.665999999994945","426","451","127","5","-1","30","35","25","35","true"
"null","null","psychophysics","260","1942772","0.0-3.0-1.126","","key","null","16.665999999999904","426","451","","","","","","","",""
"750.9000000953674","arrowright","psychophysics","261","1943525","0.0-3.0-0.127","","key","arrowright","16.666000000000086","426","451","128","5","-1","23","35","25","35","false"
"null","null","psychophysics","262","1944531","0.0-3.0-1.127","","key","null","16.665999999999904","426","451","","","","","","","",""
"540.1000000238419","arrowleft","psychophysics","263","1945076","0.0-3.0-0.128","","key","arrowleft","16.66599999999744","426","451","129","5","1","20","15","25","35","false"
"null","null","psychophysics","264","1946078","0.0-3.0-1.128","","key","null","16.67718644067645","426","451","","","","","","","",""
"1112.6000000238419","arrowleft","psychophysics","265","1947193","0.0-3.0-0.129","","key","arrowleft","16.666000000000086","426","451","130","5","-1","26","15","25","35","true"
"null","null","psychophysics","266","1948199","0.0-3.0-1.129","","key","null","16.665999999999904","426","451","","","","","","","",""
"585.6000000238419","arrowleft","psychophysics","267","1948789","0.0-3.0-0.130","","key","arrowleft","16.666000000001596","426","451","131","5","-1","25","15","25","35","true"
"null","null","psychophysics","268","1949790","0.0-3.0-1.130","","key","null","16.665999999999904","426","451","","","","","","","",""
"550.3000000715256","arrowleft","psychophysics","269","1950343","0.0-3.0-0.131","","key","arrowleft","16.666000000004715","426","451","132","5","-1","27","15","25","35","true"
"null","null","psychophysics","270","1951349","0.0-3.0-1.131","","key","null","16.665999999999904","426","451","","","","","","","",""
"585.7999999523163","arrowright","psychophysics","271","1951939","0.0-3.0-0.132","","key","arrowright","16.666000000001596","426","451","133","5","-1","24","35","25","35","false"
"null","null","psychophysics","272","1952941","0.0-3.0-1.132","","key","null","16.665999999999904","426","451","","","","","","","",""
"1426.6000000238419","arrowright","psychophysics","273","1954370","0.0-3.0-0.133","","key","arrowright","16.666000000001205","426","451","134","5","-1","23","15","25","35","false"
"null","null","psychophysics","274","1955372","0.0-3.0-1.133","","key","null","16.677864406778777","426","451","","","","","","","",""
"39337.699999928474","arrowright","psychophysics","275","1994713","0.0-3.0-0.134","","key","arrowright","16.666576091564213","426","451","135","5","-1","26","35","25","35","false"
"null","null","psychophysics","276","1995716","0.0-3.0-1.134","","key","null","16.66599999999938","426","451","","","","","","","",""
"748.1000000238419","arrowright","psychophysics","277","1996467","0.0-3.0-0.135","","key","arrowright","16.666000000000086","426","451","136","5","-1","24","35","25","35","false"
"null","null","psychophysics","278","1997472","0.0-3.0-1.135","","key","null","16.665999999999904","426","451","","","","","","","",""
"746.2999999523163","arrowright","psychophysics","279","1998222","0.0-3.0-0.136","","key","arrowright","16.666000000000086","426","451","137","5","1","26","35","25","35","true"
"null","null","psychophysics","280","1999224","0.0-3.0-1.136","","key","null","16.665999999999904","426","451","","","","","","","",""
"660.9000000953674","arrowleft","psychophysics","281","1999887","0.0-3.0-0.137","","key","arrowleft","16.665999999998185","426","451","138","5","-1","30","35","25","35","true"
"null","null","psychophysics","282","2000889","0.0-3.0-1.137","","key","null","16.665999999999904","426","451","","","","","","","",""
"684.3000000715256","arrowright","psychophysics","283","2001576","0.0-3.0-0.138","","key","arrowright","16.66599999999744","426","451","139","5","1","23","15","25","35","true"
"null","null","psychophysics","284","2002579","0.0-3.0-1.138","","key","null","16.665999999999904","426","451","","","","","","","",""
"569.7999999523163","arrowleft","psychophysics","285","2003151","0.0-3.0-0.139","","key","arrowleft","16.665999999995726","426","451","140","6","-1","27","15","25","35","true"
"null","null","psychophysics","286","2004152","0.0-3.0-1.139","","key","null","16.665999999999904","426","451","","","","","","","",""
"2350","arrowleft","html-keyboard-response","287","2006503","0.0-3.0-2.139-0.139","<div style=""color: white; text-align: center; vertical-align: top; display: inline-block; width: 800px; margin: auto""><p>You have completed 50% of the trials. You are on block 6 of 10. <br>Good job! Take a break if you need to.</p><p>Press any key to continue the experiment.</p></div>","","","","","","","","","","","","",""
"638.3999999761581","arrowright","psychophysics","288","2008145","0.0-3.0-0.140","","key","arrowright","16.66599999999897","426","451","141","6","1","30","15","25","35","true"
"null","null","psychophysics","289","2009147","0.0-3.0-1.140","","key","null","16.665999999999904","426","451","","","","","","","",""
"503","arrowleft","psychophysics","290","2009653","0.0-3.0-0.141","","key","arrowleft","16.66599999999938","426","451","142","6","-1","30","35","25","35","true"
"null","null","psychophysics","291","2010656","0.0-3.0-1.141","","key","null","16.665999999999904","426","451","","","","","","","",""
"21539.100000023842","arrowright","psychophysics","292","2032198","0.0-3.0-0.142","","key","arrowright","16.66658404337727","426","451","143","6","-1","24","35","25","35","false"
"null","null","psychophysics","293","2033200","0.0-3.0-1.142","","key","null","16.66599999999938","426","451","","","","","","","",""
"1020.3000000715256","arrowleft","psychophysics","294","2034223","0.0-3.0-0.143","","key","arrowleft","16.66599999999938","426","451","144","6","1","20","15","25","35","false"
"null","null","psychophysics","295","2035224","0.0-3.0-1.143","","key","null","16.665999999999904","426","451","","","","","","","",""
"637.7999999523163","arrowleft","psychophysics","296","2035865","0.0-3.0-0.144","","key","arrowleft","16.665999999999798","426","451","145","6","-1","26","15","25","35","true"
"null","null","psychophysics","297","2036866","0.0-3.0-1.144","","key","null","16.67628813559442","426","451","","","","","","","",""
"569.1000000238419","arrowright","psychophysics","298","2037440","0.0-3.0-0.145","","key","arrowright","16.665999999995726","426","451","146","6","-1","20","35","25","35","false"
"null","null","psychophysics","299","2038443","0.0-3.0-1.145","","key","null","16.665999999999904","426","451","","","","","","","",""
"975.7999999523163","arrowleft","psychophysics","300","2039421","0.0-3.0-0.146","","key","arrowleft","16.666000000000448","426","451","147","6","1","23","35","25","35","false"
"null","null","psychophysics","301","2040423","0.0-3.0-1.146","","key","null","16.665999999999904","426","451","","","","","","","",""
"479.3000000715256","arrowright","psychophysics","302","2040905","0.0-3.0-0.147","","key","arrowright","16.666000000001596","426","451","148","6","-1","24","35","25","35","false"
"null","null","psychophysics","303","2041908","0.0-3.0-1.147","","key","null","16.665999999999904","426","451","","","","","","","",""
"525.6000000238419","arrowright","psychophysics","304","2042436","0.0-3.0-0.148","","key","arrowright","16.665999999998377","426","451","149","6","1","27","15","25","35","true"
"null","null","psychophysics","305","2043439","0.0-3.0-1.148","","key","null","16.665999999999904","426","451","","","","","","","",""
"884.5","arrowright","psychophysics","306","2044326","0.0-3.0-0.149","","key","arrowright","16.665999999999677","426","451","150","6","1","24","15","25","35","true"
"null","null","psychophysics","307","2045327","0.0-3.0-1.149","","key","null","16.665999999999904","426","451","","","","","","","",""
"43793.5","arrowright","psychophysics","308","2089124","0.0-3.0-0.150","","key","arrowright","16.666976779596514","426","451","151","6","-1","24","35","25","35","false"
"null","null","psychophysics","309","2090127","0.0-3.0-1.150","","key","null","16.665999999999904","426","451","","","","","","","",""
"1066.7999999523163","arrowright","psychophysics","310","2091195","0.0-3.0-0.151","","key","arrowright","16.666000000001596","426","451","152","6","-1","26","35","25","35","false"
"null","null","psychophysics","311","2092200","0.0-3.0-1.151","","key","null","16.665999999999904","426","451","","","","","","","",""
"676.2000000476837","arrowright","psychophysics","312","2092880","0.0-3.0-0.152","","key","arrowright","16.66599999999744","426","451","153","6","-1","23","35","25","35","false"
"null","null","psychophysics","313","2093885","0.0-3.0-1.152","","key","null","16.666000000003258","426","451","","","","","","","",""
"13642.199999928474","arrowright","psychophysics","314","2107529","0.0-3.0-0.153","","key","arrowright","16.66674541003661","426","451","154","6","1","25","35","25","35","true"
"null","null","psychophysics","315","2108534","0.0-3.0-1.153","","key","null","16.665999999995957","426","451","","","","","","","",""
"609.6999999284744","arrowright","psychophysics","316","2109148","0.0-3.0-0.154","","key","arrowright","16.665999999994206","426","451","155","6","-1","20","35","25","35","false"
"null","null","psychophysics","317","2110151","0.0-3.0-1.154","","key","null","16.665999999995957","426","451","","","","","","","",""
"479","arrowright","psychophysics","318","2110633","0.0-3.0-0.155","","key","arrowright","16.666000000001596","426","451","156","6","1","30","35","25","35","true"
"null","null","psychophysics","319","2111635","0.0-3.0-1.155","","key","null","16.66599999999938","426","451","","","","","","","",""
"503.40000009536743","arrowleft","psychophysics","320","2112141","0.0-3.0-0.156","","key","arrowleft","16.665999999992422","426","451","157","6","-1","26","15","25","35","true"
"null","null","psychophysics","321","2113144","0.0-3.0-1.156","","key","null","16.665999999995957","426","451","","","","","","","",""
"481.89999997615814","arrowright","psychophysics","322","2113627","0.0-3.0-0.157","","key","arrowright","16.666000000001596","426","451","158","6","1","20","15","25","35","true"
"null","null","psychophysics","323","2114630","0.0-3.0-1.157","","key","null","16.665999999995957","426","451","","","","","","","",""
"1041","arrowright","psychophysics","324","2115674","0.0-3.0-0.158","","key","arrowright","16.665999999998377","426","451","159","6","-1","25","35","25","35","false"
"null","null","psychophysics","325","2116675","0.0-3.0-1.158","","key","null","16.67872881356595","426","451","","","","","","","",""
"571.1000000238419","arrowleft","psychophysics","326","2117248","0.0-3.0-0.159","","key","arrowleft","16.666000000003613","426","451","160","6","-1","30","35","25","35","true"
"null","null","psychophysics","327","2118250","0.0-3.0-1.159","","key","null","16.66600000000385","426","451","","","","","","","",""
"726.2999999523163","arrowright","psychophysics","328","2118981","0.0-3.0-0.160","","key","arrowright","16.66600000000624","426","451","161","6","-1","23","35","25","35","false"
"null","null","psychophysics","329","2119983","0.0-3.0-1.160","","key","null","16.66600000000385","426","451","","","","","","","",""
"546.5","arrowright","psychophysics","330","2120534","0.0-3.0-0.161","","key","arrowright","16.66599999999744","426","451","162","6","1","30","15","25","35","true"
"null","null","psychophysics","331","2121536","0.0-3.0-1.161","","key","null","16.66599999999938","426","451","","","","","","","",""
"616.6999999284744","arrowleft","psychophysics","332","2122155","0.0-3.0-0.162","","key","arrowleft","16.665999999994206","426","451","163","6","-1","26","15","25","35","true"
"null","null","psychophysics","333","2123157","0.0-3.0-1.162","","key","null","16.665999999995957","426","451","","","","","","","",""
"670.2000000476837","arrowleft","psychophysics","334","2123830","0.0-3.0-0.163","","key","arrowleft","16.665999999998185","426","451","164","6","-1","26","35","25","35","true"
"null","null","psychophysics","335","2124831","0.0-3.0-1.163","","key","null","16.665999999995957","426","451","","","","","","","",""
"538.2000000476837","arrowright","psychophysics","336","2125372","0.0-3.0-0.164","","key","arrowright","16.66599999999744","426","451","165","6","1","30","15","25","35","true"
"null","null","psychophysics","337","2126374","0.0-3.0-1.164","","key","null","16.665999999995957","426","451","","","","","","","",""
"862.3999999761581","arrowright","psychophysics","338","2127239","0.0-3.0-0.165","","key","arrowright","16.66600000000029","426","451","166","6","-1","24","35","25","35","false"
"null","null","psychophysics","339","2128240","0.0-3.0-1.165","","key","null","16.66600000000385","426","451","","","","","","","",""
"525.4000000953674","arrowleft","psychophysics","340","2128769","0.0-3.0-0.166","","key","arrowleft","16.666000000005887","426","451","167","6","-1","25","15","25","35","true"
"null","null","psychophysics","341","2129774","0.0-3.0-1.166","","key","null","16.66600000000385","426","451","","","","","","","",""
"725.3999999761581","arrowright","psychophysics","342","2130502","0.0-3.0-0.167","","key","arrowright","16.665999999995407","426","451","168","7","1","27","35","25","35","true"
"null","null","psychophysics","343","2131507","0.0-3.0-1.167","","key","null","16.665999999995957","426","451","","","","","","","",""
"5541.100000023842","arrowright","html-keyboard-response","344","2137049","0.0-3.0-2.167-0.167","<div style=""color: white; text-align: center; vertical-align: top; display: inline-block; width: 800px; margin: auto""><p>You have completed 60% of the trials. You are on block 7 of 10. <br>Good job! Take a break if you need to.</p><p>Press any key to continue the experiment.</p></div>","","","","","","","","","","","","",""
"680.3999999761581","arrowright","psychophysics","345","2138738","0.0-3.0-0.168","","key","arrowright","16.66599999999673","426","451","169","7","1","27","15","25","35","true"
"null","null","psychophysics","346","2139739","0.0-3.0-1.168","","key","null","16.66600000000385","426","451","","","","","","","",""
"547.8999999761581","arrowleft","psychophysics","347","2140289","0.0-3.0-0.169","","key","arrowleft","16.66600000001199","426","451","170","7","-1","25","15","25","35","true"
"null","null","psychophysics","348","2141294","0.0-3.0-1.169","","key","null","16.66600000000385","426","451","","","","","","","",""
"614.3999999761581","arrowleft","psychophysics","349","2141911","0.0-3.0-0.170","","key","arrowleft","16.66600000000714","426","451","171","7","-1","27","15","25","35","true"
"null","null","psychophysics","350","2142913","0.0-3.0-1.170","","key","null","16.66600000000385","426","451","","","","","","","",""
"480.2000000476837","arrowleft","psychophysics","351","2143396","0.0-3.0-0.171","","key","arrowleft","16.666000000001596","426","451","172","7","-1","30","15","25","35","true"
"null","null","psychophysics","352","2144400","0.0-3.0-1.171","","key","null","16.665999999995957","426","451","","","","","","","",""
"1241.2999999523163","arrowright","psychophysics","353","2145646","0.0-3.0-0.172","","key","arrowright","16.665999999999798","426","451","173","7","-1","27","35","25","35","false"
"null","null","psychophysics","354","2146647","0.0-3.0-1.172","","key","null","16.665999999995957","426","451","","","","","","","",""
"1267.3999999761581","arrowleft","psychophysics","355","2147917","0.0-3.0-0.173","","key","arrowleft","16.67626666666319","426","451","174","7","-1","25","35","25","35","true"
"null","null","psychophysics","356","2148918","0.0-3.0-1.173","","key","null","16.66599999999938","426","451","","","","","","","",""
"3608.7000000476837","arrowright","psychophysics","357","2152529","0.0-3.0-0.174","","key","arrowright","16.666000000001905","426","451","175","7","1","27","35","25","35","true"
"null","null","psychophysics","358","2153536","0.0-3.0-1.174","","key","null","16.66599999999938","426","451","","","","","","","",""
"2163.1999999284744","arrowleft","psychophysics","359","2155702","0.0-3.0-0.175","","key","arrowleft","16.66599999999902","426","451","176","7","-1","24","15","25","35","true"
"null","null","psychophysics","360","2156703","0.0-3.0-1.175","","key","null","16.665999999995957","426","451","","","","","","","",""
"727.6999999284744","arrowleft","psychophysics","361","2157434","0.0-3.0-0.176","","key","arrowleft","16.666000000001596","426","451","177","7","-1","30","35","25","35","true"
"null","null","psychophysics","362","2158435","0.0-3.0-1.176","","key","null","16.66599999999938","426","451","","","","","","","",""
"594.0999999046326","arrowright","psychophysics","363","2159031","0.0-3.0-0.177","","key","arrowright","16.665999999995726","426","451","178","7","1","27","15","25","35","true"
"null","null","psychophysics","364","2160034","0.0-3.0-1.177","","key","null","16.665999999995957","426","451","","","","","","","",""
"930.8000000715256","arrowright","psychophysics","365","2160967","0.0-3.0-0.178","","key","arrowright","16.665999999997968","426","451","179","7","-1","23","35","25","35","false"
"null","null","psychophysics","366","2161969","0.0-3.0-1.178","","key","null","16.66599999999938","426","451","","","","","","","",""
"547.5999999046326","arrowleft","psychophysics","367","2162519","0.0-3.0-0.179","","key","arrowleft","16.66599999999744","426","451","180","7","-1","24","15","25","35","true"
"null","null","psychophysics","368","2163520","0.0-3.0-1.179","","key","null","16.665999999995957","426","451","","","","","","","",""
"1697.1000000238419","arrowright","psychophysics","369","2165220","0.0-3.0-0.180","","key","arrowright","16.665999999998302","426","451","181","7","-1","20","15","25","35","false"
"null","null","psychophysics","370","2166224","0.0-3.0-1.180","","key","null","16.665999999995957","426","451","","","","","","","",""
"904.1000000238419","arrowright","psychophysics","371","2167131","0.0-3.0-0.181","","key","arrowright","16.677150943395596","426","451","182","7","1","25","35","25","35","true"
"null","null","psychophysics","372","2168135","0.0-3.0-1.181","","key","null","16.665999999995957","426","451","","","","","","","",""
"1219.3000000715256","arrowright","psychophysics","373","2169359","0.0-3.0-0.182","","key","arrowright","16.66599999999704","426","451","183","7","-1","25","35","25","35","false"
"null","null","psychophysics","374","2170364","0.0-3.0-1.182","","key","null","16.665999999995957","426","451","","","","","","","",""
"589.9000000953674","arrowleft","psychophysics","375","2170957","0.0-3.0-0.183","","key","arrowleft","16.666000000001596","426","451","184","7","-1","27","15","25","35","true"
"null","null","psychophysics","376","2171958","0.0-3.0-1.183","","key","null","16.66600000000385","426","451","","","","","","","",""
"617.8000000715256","arrowright","psychophysics","377","2172578","0.0-3.0-0.184","","key","arrowright","16.66600000000714","426","451","185","7","-1","24","35","25","35","false"
"null","null","psychophysics","378","2173584","0.0-3.0-1.184","","key","null","16.66600000000385","426","451","","","","","","","",""
"541.7999999523163","arrowleft","psychophysics","379","2174130","0.0-3.0-0.185","","key","arrowleft","16.66600000001199","426","451","186","7","-1","27","15","25","35","true"
"null","null","psychophysics","380","2175134","0.0-3.0-1.185","","key","null","16.66600000000385","426","451","","","","","","","",""
"1398.8999999761581","arrowright","psychophysics","381","2176538","0.0-3.0-0.186","","key","arrowright","16.666000000001596","426","451","187","7","1","24","35","25","35","true"
"null","null","psychophysics","382","2177541","0.0-3.0-1.186","","key","null","16.6790508474539","426","451","","","","","","","",""
"544","arrowleft","psychophysics","383","2178088","0.0-3.0-0.187","","key","arrowleft","16.66599999999744","426","451","188","7","-1","27","15","25","35","true"
"null","null","psychophysics","384","2179091","0.0-3.0-1.187","","key","null","16.66600000000385","426","451","","","","","","","",""
"571","arrowright","psychophysics","385","2179664","0.0-3.0-0.188","","key","arrowright","16.666000000003613","426","451","189","7","1","27","35","25","35","true"
"null","null","psychophysics","386","2180666","0.0-3.0-1.188","","key","null","16.665999999995957","426","451","","","","","","","",""
"594.6999999284744","arrowright","psychophysics","387","2181263","0.0-3.0-0.189","","key","arrowright","16.666000000001596","426","451","190","7","1","27","35","25","35","true"
"null","null","psychophysics","388","2182268","0.0-3.0-1.189","","key","null","16.66600000000385","426","451","","","","","","","",""
"880.1000000238419","arrowright","psychophysics","389","2183152","0.0-3.0-0.190","","key","arrowright","16.665999999999087","426","451","191","7","1","25","15","25","35","true"
"null","null","psychophysics","390","2184154","0.0-3.0-1.190","","key","null","16.66600000000385","426","451","","","","","","","",""
"639.8999999761581","arrowleft","psychophysics","391","2184796","0.0-3.0-0.191","","key","arrowleft","16.665999999999798","426","451","192","7","-1","24","15","25","35","true"
"null","null","psychophysics","392","2185797","0.0-3.0-1.191","","key","null","16.665999999995957","426","451","","","","","","","",""
"816.8999999761581","arrowleft","psychophysics","393","2186617","0.0-3.0-0.192","","key","arrowleft","16.66599999999744","426","451","193","7","-1","24","15","25","35","true"
"null","null","psychophysics","394","2187619","0.0-3.0-1.192","","key","null","16.66599999999938","426","451","","","","","","","",""
"818.1999999284744","arrowleft","psychophysics","395","2188440","0.0-3.0-0.193","","key","arrowleft","16.66600000000714","426","451","194","7","1","20","35","25","35","false"
"null","null","psychophysics","396","2189441","0.0-3.0-1.193","","key","null","16.66600000000385","426","451","","","","","","","",""
"705.7000000476837","arrowright","psychophysics","397","2190149","0.0-3.0-0.194","","key","arrowright","16.66599999999673","426","451","195","7","-1","25","35","25","35","false"
"null","null","psychophysics","398","2191152","0.0-3.0-1.194","","key","null","16.66599999999938","426","451","","","","","","","",""
"659.7999999523163","arrowright","psychophysics","399","2191814","0.0-3.0-0.195","","key","arrowright","16.665999999992845","426","451","196","8","1","27","15","25","35","true"
"null","null","psychophysics","400","2192818","0.0-3.0-1.195","","key","null","16.665999999995957","426","451","","","","","","","",""
"2191.7000000476837","arrowright","html-keyboard-response","401","2195011","0.0-3.0-2.195-0.195","<div style=""color: white; text-align: center; vertical-align: top; display: inline-block; width: 800px; margin: auto""><p>You have completed 70% of the trials. You are on block 8 of 10. <br>Good job! Take a break if you need to.</p><p>Press any key to continue the experiment.</p></div>","","","","","","","","","","","","",""
"2186.8000000715256","arrowleft","psychophysics","402","2198205","0.0-3.0-0.196","","key","arrowleft","16.67046969697218","426","451","197","8","1","23","35","25","35","false"
"null","null","psychophysics","403","2199208","0.0-3.0-1.196","","key","null","16.66600000000385","426","451","","","","","","","",""
"523.6000000238419","arrowright","psychophysics","404","2199735","0.0-3.0-0.197","","key","arrowright","16.66599999999938","426","451","198","8","1","30","35","25","35","true"
"null","null","psychophysics","405","2200736","0.0-3.0-1.197","","key","null","16.66599999999938","426","451","","","","","","","",""
"525.8999999761581","arrowright","psychophysics","406","2201265","0.0-3.0-0.198","","key","arrowright","16.66599999999938","426","451","199","8","1","30","35","25","35","true"
"null","null","psychophysics","407","2202269","0.0-3.0-1.198","","key","null","16.66599999999938","426","451","","","","","","","",""
"1175.5","arrowright","psychophysics","408","2203447","0.0-3.0-0.199","","key","arrowright","16.665999999998704","426","451","200","8","-1","23","35","25","35","false"
"null","null","psychophysics","409","2204452","0.0-3.0-1.199","","key","null","16.66599999999938","426","451","","","","","","","",""
"702.8000000715256","arrowright","psychophysics","410","2205157","0.0-3.0-0.200","","key","arrowright","16.666000000008086","426","451","201","8","1","27","15","25","35","true"
"null","null","psychophysics","411","2206162","0.0-3.0-1.200","","key","null","16.66600000000385","426","451","","","","","","","",""
"568","arrowleft","psychophysics","412","2206731","0.0-3.0-0.201","","key","arrowleft","16.666000000003613","426","451","202","8","-1","26","15","25","35","true"
"null","null","psychophysics","413","2207735","0.0-3.0-1.201","","key","null","16.679050847461795","426","451","","","","","","","",""
"613.2000000476837","arrowright","psychophysics","414","2208352","0.0-3.0-0.202","","key","arrowright","16.665999999999798","426","451","203","8","1","27","15","25","35","true"
"null","null","psychophysics","415","2209353","0.0-3.0-1.202","","key","null","16.66600000000385","426","451","","","","","","","",""
"2058.8000000715256","arrowright","psychophysics","416","2211414","0.0-3.0-0.203","","key","arrowright","16.66599999999887","426","451","204","8","-1","24","35","25","35","false"
"null","null","psychophysics","417","2212417","0.0-3.0-1.203","","key","null","16.66600000000385","426","451","","","","","","","",""
"1084.2999999523163","arrowleft","psychophysics","418","2213506","0.0-3.0-0.204","","key","arrowleft","16.666000000000572","426","451","205","8","1","23","35","25","35","false"
"null","null","psychophysics","419","2214508","0.0-3.0-1.204","","key","null","16.665999999995957","426","451","","","","","","","",""
"569.5","arrowright","psychophysics","420","2215080","0.0-3.0-0.205","","key","arrowright","16.665999999989502","426","451","206","8","1","27","15","25","35","true"
"null","null","psychophysics","421","2216086","0.0-3.0-1.205","","key","null","16.66600000000385","426","451","","","","","","","",""
"2539.399999976158","arrowright","psychophysics","422","2218634","0.0-3.0-0.206","","key","arrowright","16.66599999999897","426","451","207","8","1","25","35","25","35","true"
"null","null","psychophysics","423","2219636","0.0-3.0-1.206","","key","null","16.66599999999938","426","451","","","","","","","",""
"1853.3000000715256","arrowright","psychophysics","424","2221492","0.0-3.0-0.207","","key","arrowright","16.665999999997968","426","451","208","8","1","25","35","25","35","true"
"null","null","psychophysics","425","2222495","0.0-3.0-1.207","","key","null","16.665999999995957","426","451","","","","","","","",""
"1740.7999999523163","arrowleft","psychophysics","426","2224237","0.0-3.0-0.208","","key","arrowleft","16.665999999999677","426","451","209","8","1","23","35","25","35","false"
"null","null","psychophysics","427","2225242","0.0-3.0-1.208","","key","null","16.66600000000385","426","451","","","","","","","",""
"501.60000002384186","arrowright","psychophysics","428","2225747","0.0-3.0-0.209","","key","arrowright","16.666000000008477","426","451","210","8","1","24","15","25","35","true"
"null","null","psychophysics","429","2226748","0.0-3.0-1.209","","key","null","16.665999999995957","426","451","","","","","","","",""
"548","arrowleft","psychophysics","430","2227298","0.0-3.0-0.210","","key","arrowleft","16.684499999988475","426","451","211","8","-1","23","15","25","35","true"
"null","null","psychophysics","431","2228303","0.0-3.0-1.210","","key","null","16.665999999995957","426","451","","","","","","","",""
"790.5","arrowright","psychophysics","432","2229097","0.0-3.0-0.211","","key","arrowright","16.666000000003013","426","451","212","8","-1","27","35","25","35","false"
"null","null","psychophysics","433","2230101","0.0-3.0-1.211","","key","null","16.66600000000385","426","451","","","","","","","",""
"661.3000000715256","arrowright","psychophysics","434","2230764","0.0-3.0-0.212","","key","arrowright","16.666000000010126","426","451","213","8","1","26","35","25","35","true"
"null","null","psychophysics","435","2231769","0.0-3.0-1.212","","key","null","16.66599999999938","426","451","","","","","","","",""
"677.7000000476837","arrowleft","psychophysics","436","2232449","0.0-3.0-0.213","","key","arrowleft","16.665999999998185","426","451","214","8","-1","26","15","25","35","true"
"null","null","psychophysics","437","2233453","0.0-3.0-1.213","","key","null","16.66600000000714","426","451","","","","","","","",""
"569.5","arrowright","psychophysics","438","2234025","0.0-3.0-0.214","","key","arrowright","16.666000000003613","426","451","215","8","1","24","15","25","35","true"
"null","null","psychophysics","439","2235028","0.0-3.0-1.214","","key","null","16.66600000000385","426","451","","","","","","","",""
"931.6000000238419","arrowright","psychophysics","440","2235962","0.0-3.0-0.215","","key","arrowright","16.665999999997968","426","451","216","8","-1","24","35","25","35","false"
"null","null","psychophysics","441","2236965","0.0-3.0-1.215","","key","null","16.66600000000385","426","451","","","","","","","",""
"590.3000000715256","arrowright","psychophysics","442","2237557","0.0-3.0-0.216","","key","arrowright","16.687942857148926","426","451","217","8","1","27","35","25","35","true"
"null","null","psychophysics","443","2238559","0.0-3.0-1.216","","key","null","16.665999999995957","426","451","","","","","","","",""
"1585.2000000476837","arrowleft","psychophysics","444","2240147","0.0-3.0-0.217","","key","arrowleft","16.665999999998057","426","451","218","8","1","23","35","25","35","false"
"null","null","psychophysics","445","2241151","0.0-3.0-1.217","","key","null","16.665999999995957","426","451","","","","","","","",""
"589","arrowleft","psychophysics","446","2241742","0.0-3.0-0.218","","key","arrowleft","16.666000000001596","426","451","219","8","-1","27","15","25","35","true"
"null","null","psychophysics","447","2242744","0.0-3.0-1.218","","key","null","16.66600000000385","426","451","","","","","","","",""
"1067.2999999523163","arrowright","psychophysics","448","2243814","0.0-3.0-0.219","","key","arrowright","16.666000000001596","426","451","220","8","-1","20","15","25","35","false"
"null","null","psychophysics","449","2244818","0.0-3.0-1.219","","key","null","16.665999999995957","426","451","","","","","","","",""
"610.5","arrowright","psychophysics","450","2245432","0.0-3.0-0.220","","key","arrowright","16.665999999994206","426","451","221","8","1","30","35","25","35","true"
"null","null","psychophysics","451","2246434","0.0-3.0-1.220","","key","null","16.665999999995957","426","451","","","","","","","",""
"479.5","arrowleft","psychophysics","452","2246918","0.0-3.0-0.221","","key","arrowleft","16.666000000001596","426","451","222","8","-1","30","15","25","35","true"
"null","null","psychophysics","453","2247919","0.0-3.0-1.221","","key","null","16.66600000000385","426","451","","","","","","","",""
"502.2999999523163","arrowright","psychophysics","454","2248425","0.0-3.0-0.222","","key","arrowright","16.66599999999938","426","451","223","8","-1","24","35","25","35","false"
"null","null","psychophysics","455","2249426","0.0-3.0-1.222","","key","null","16.665999999995957","426","451","","","","","","","",""
"593.7999999523163","arrowleft","psychophysics","456","2250023","0.0-3.0-0.223","","key","arrowleft","16.666000000001596","426","451","224","9","-1","23","15","25","35","true"
"null","null","psychophysics","457","2251025","0.0-3.0-1.223","","key","null","16.66600000000385","426","451","","","","","","","",""
"1088.1000000238419","arrowleft","html-keyboard-response","458","2252115","0.0-3.0-2.223-0.223","<div style=""color: white; text-align: center; vertical-align: top; display: inline-block; width: 800px; margin: auto""><p>You have completed 80% of the trials. You are on block 9 of 10. <br>Good job! Take a break if you need to.</p><p>Press any key to continue the experiment.</p></div>","","","","","","","","","","","","",""
"1084.1999999284744","arrowleft","psychophysics","459","2254208","0.0-3.0-0.224","","key","arrowleft","16.666000000000572","426","451","225","9","-1","27","35","25","35","true"
"null","null","psychophysics","460","2255209","0.0-3.0-1.224","","key","null","16.665999999995957","426","451","","","","","","","",""
"570.5","arrowright","psychophysics","461","2255782","0.0-3.0-0.225","","key","arrowright","16.666000000003613","426","451","226","9","1","30","35","25","35","true"
"null","null","psychophysics","462","2256785","0.0-3.0-1.225","","key","null","16.66600000000385","426","451","","","","","","","",""
"1424.2999999523163","arrowleft","psychophysics","463","2258213","0.0-3.0-0.226","","key","arrowleft","16.67295294118059","426","451","227","9","-1","26","35","25","35","true"
"null","null","psychophysics","464","2259215","0.0-3.0-1.226","","key","null","16.66600000000385","426","451","","","","","","","",""
"547.7000000476837","arrowright","psychophysics","465","2259764","0.0-3.0-0.227","","key","arrowright","16.66600000001199","426","451","228","9","1","27","35","25","35","true"
"null","null","psychophysics","466","2260769","0.0-3.0-1.227","","key","null","16.66600000000385","426","451","","","","","","","",""
"567.3999999761581","arrowleft","psychophysics","467","2261340","0.0-3.0-0.228","","key","arrowleft","16.665999999995726","426","451","229","9","1","20","35","25","35","false"
"null","null","psychophysics","468","2262342","0.0-3.0-1.228","","key","null","16.66600000000385","426","451","","","","","","","",""
"570.2999999523163","arrowright","psychophysics","469","2262915","0.0-3.0-0.229","","key","arrowright","16.666000000003613","426","451","230","9","1","27","15","25","35","true"
"null","null","psychophysics","470","2263920","0.0-3.0-1.229","","key","null","16.66600000000714","426","451","","","","","","","",""
"658.3999999761581","arrowleft","psychophysics","471","2264581","0.0-3.0-0.230","","key","arrowleft","16.6660000000051","426","451","231","9","1","23","15","25","35","false"
"null","null","psychophysics","472","2265585","0.0-3.0-1.230","","key","null","16.66600000000385","426","451","","","","","","","",""
"768","arrowleft","psychophysics","473","2266358","0.0-3.0-0.231","","key","arrowleft","16.665999999998704","426","451","232","9","1","20","35","25","35","false"
"null","null","psychophysics","474","2267360","0.0-3.0-1.231","","key","null","16.679033898306475","426","451","","","","","","","",""
"502.7000000476837","arrowright","psychophysics","475","2267865","0.0-3.0-0.232","","key","arrowright","16.666000000008477","426","451","233","9","1","25","35","25","35","true"
"null","null","psychophysics","476","2268869","0.0-3.0-1.232","","key","null","16.66600000000385","426","451","","","","","","","",""
"524.1000000238419","arrowright","psychophysics","477","2269398","0.0-3.0-0.233","","key","arrowright","16.665999999990866","426","451","234","9","-1","20","15","25","35","false"
"null","null","psychophysics","478","2270403","0.0-3.0-1.233","","key","null","16.665999999995957","426","451","","","","","","","",""
"1215.2999999523163","arrowright","psychophysics","479","2271623","0.0-3.0-0.234","","key","arrowright","16.66599999999704","426","451","235","9","1","24","35","25","35","true"
"null","null","psychophysics","480","2272626","0.0-3.0-1.234","","key","null","16.665999999995957","426","451","","","","","","","",""
"2077.8000000715256","arrowleft","psychophysics","481","2274706","0.0-3.0-0.235","","key","arrowleft","16.665999999998377","426","451","236","9","-1","25","15","25","35","true"
"null","null","psychophysics","482","2275709","0.0-3.0-1.235","","key","null","16.665999999995957","426","451","","","","","","","",""
"613.5","arrowright","psychophysics","483","2276326","0.0-3.0-0.236","","key","arrowright","16.665999999994206","426","451","237","9","1","25","15","25","35","true"
"null","null","psychophysics","484","2277327","0.0-3.0-1.236","","key","null","16.665999999995957","426","451","","","","","","","",""
"9685.399999976158","arrowright","psychophysics","485","2287015","0.0-3.0-0.237","","key","arrowright","16.665999999999645","426","451","238","9","1","30","35","25","35","true"
"null","null","psychophysics","486","2288016","0.0-3.0-1.237","","key","null","16.676050847459393","426","451","","","","","","","",""
"3268.8000000715256","arrowright","psychophysics","487","2291288","0.0-3.0-0.238","","key","arrowright","16.666000000001596","426","451","239","9","1","26","15","25","35","true"
"null","null","psychophysics","488","2292289","0.0-3.0-1.238","","key","null","16.66600000000385","426","451","","","","","","","",""
"658.1000000238419","arrowleft","psychophysics","489","2292954","0.0-3.0-0.239","","key","arrowleft","16.666000000010126","426","451","240","9","-1","30","35","25","35","true"
"null","null","psychophysics","490","2293959","0.0-3.0-1.239","","key","null","16.66600000000385","426","451","","","","","","","",""
"2770.2999999523163","arrowleft","psychophysics","491","2296733","0.0-3.0-0.240","","key","arrowleft","16.66600000000079","426","451","241","9","-1","26","35","25","35","true"
"null","null","psychophysics","492","2297736","0.0-3.0-1.240","","key","null","16.679000000003725","426","451","","","","","","","",""
"1310.7000000476837","arrowleft","psychophysics","493","2299051","0.0-3.0-0.241","","key","arrowleft","16.665999999998185","426","451","242","9","1","20","15","25","35","false"
"null","null","psychophysics","494","2300053","0.0-3.0-1.241","","key","null","16.66600000000714","426","451","","","","","","","",""
"1267.7000000476837","arrowright","psychophysics","495","2301324","0.0-3.0-0.242","","key","arrowright","16.666000000002484","426","451","243","9","-1","27","35","25","35","false"
"null","null","psychophysics","496","2302326","0.0-3.0-1.242","","key","null","16.66600000000385","426","451","","","","","","","",""
"547.3999999761581","arrowright","psychophysics","497","2302876","0.0-3.0-0.243","","key","arrowright","16.66600000001199","426","451","244","9","1","30","15","25","35","true"
"null","null","psychophysics","498","2303879","0.0-3.0-1.243","","key","null","16.66600000000385","426","451","","","","","","","",""
"1062","arrowright","psychophysics","499","2304948","0.0-3.0-0.244","","key","arrowright","16.666000000001596","426","451","245","9","1","24","15","25","35","true"
"null","null","psychophysics","500","2305954","0.0-3.0-1.244","","key","null","16.665999999995957","426","451","","","","","","","",""
"9045.099999904633","arrowright","psychophysics","501","2315003","0.0-3.0-0.245","","key","arrowright","16.665999999999638","426","451","246","9","1","23","15","25","35","true"
"null","null","psychophysics","502","2316006","0.0-3.0-1.245","","key","null","16.665999999995957","426","451","","","","","","","",""
"457","arrowright","psychophysics","503","2316466","0.0-3.0-0.246","","key","arrowright","16.665999999986244","426","451","247","9","1","30","15","25","35","true"
"null","null","psychophysics","504","2317467","0.0-3.0-1.246","","key","null","16.676050847459393","426","451","","","","","","","",""
"1201.6000000238419","arrowleft","psychophysics","505","2318671","0.0-3.0-0.247","","key","arrowleft","16.666000000000672","426","451","248","9","1","25","35","25","35","false"
"null","null","psychophysics","506","2319672","0.0-3.0-1.247","","key","null","16.665999999995957","426","451","","","","","","","",""
"1607.3000000715256","arrowright","psychophysics","507","2321281","0.0-3.0-0.248","","key","arrowright","16.666000000000196","426","451","249","9","1","25","35","25","35","true"
"null","null","psychophysics","508","2322283","0.0-3.0-1.248","","key","null","16.66600000000385","426","451","","","","","","","",""
"662.1000000238419","arrowleft","psychophysics","509","2322948","0.0-3.0-0.249","","key","arrowleft","16.666000000010126","426","451","250","9","1","20","35","25","35","false"
"null","null","psychophysics","510","2323949","0.0-3.0-1.249","","key","null","16.66600000000385","426","451","","","","","","","",""
"816.6999999284744","arrowright","psychophysics","511","2324768","0.0-3.0-0.250","","key","arrowright","16.66600000000714","426","451","251","9","1","27","35","25","35","true"
"null","null","psychophysics","512","2325770","0.0-3.0-1.250","","key","null","16.66600000000385","426","451","","","","","","","",""
"1224.2000000476837","arrowright","psychophysics","513","2326998","0.0-3.0-0.251","","key","arrowright","16.666000000003418","426","451","252","10","1","26","35","25","35","true"
"null","null","psychophysics","514","2328000","0.0-3.0-1.251","","key","null","16.678983050848405","426","451","","","","","","","",""
"2347.899999976158","arrowright","html-keyboard-response","515","2330349","0.0-3.0-2.251-0.251","<div style=""color: white; text-align: center; vertical-align: top; display: inline-block; width: 800px; margin: auto""><p>You have completed 90% of the trials. You are on block 10 of 10. <br>Good job! Take a break if you need to.</p><p>Press any key to continue the experiment.</p></div>","","","","","","","","","","","","",""
"2326.399999976158","arrowright","psychophysics","516","2333680","0.0-3.0-0.252","","key","arrowright","16.666000000001596","426","451","253","10","-1","24","15","25","35","false"
"null","null","psychophysics","517","2334682","0.0-3.0-1.252","","key","null","16.66600000000385","426","451","","","","","","","",""
"3268.899999976158","arrowright","psychophysics","518","2337953","0.0-3.0-0.253","","key","arrowright","16.666000000001596","426","451","254","10","1","23","15","25","35","true"
"null","null","psychophysics","519","2338954","0.0-3.0-1.253","","key","null","16.66600000000385","426","451","","","","","","","",""
"819.3999999761581","arrowright","psychophysics","520","2339776","0.0-3.0-0.254","","key","arrowright","16.66600000000714","426","451","255","10","1","26","35","25","35","true"
"null","null","psychophysics","521","2340777","0.0-3.0-1.254","","key","null","16.66600000000385","426","451","","","","","","","",""
"728.6999999284744","arrowleft","psychophysics","522","2341509","0.0-3.0-0.255","","key","arrowleft","16.66600000000624","426","451","256","10","-1","27","15","25","35","true"
"null","null","psychophysics","523","2342511","0.0-3.0-1.255","","key","null","16.66600000000385","426","451","","","","","","","",""
"1379.8000000715256","arrowleft","psychophysics","524","2343894","0.0-3.0-0.256","","key","arrowleft","16.66600000000241","426","451","257","10","-1","30","15","25","35","true"
"null","null","psychophysics","525","2344896","0.0-3.0-1.256","","key","null","16.665999999995957","426","451","","","","","","","",""
"502.60000002384186","arrowleft","psychophysics","526","2345401","0.0-3.0-0.257","","key","arrowleft","16.665999999992422","426","451","258","10","-1","25","15","25","35","true"
"null","null","psychophysics","527","2346410","0.0-3.0-1.257","","key","null","16.66599999999938","426","451","","","","","","","",""
"562.7000000476837","arrowright","psychophysics","528","2346976","0.0-3.0-0.258","","key","arrowright","16.666000000003613","426","451","259","10","1","23","15","25","35","true"
"null","null","psychophysics","529","2347980","0.0-3.0-1.258","","key","null","16.676067796606823","426","451","","","","","","","",""
"501.7000000476837","arrowright","psychophysics","530","2348483","0.0-3.0-0.259","","key","arrowright","16.665999999992422","426","451","260","10","1","25","15","25","35","true"
"null","null","psychophysics","531","2349487","0.0-3.0-1.259","","key","null","16.665999999995957","426","451","","","","","","","",""
"607.7999999523163","arrowleft","psychophysics","532","2350104","0.0-3.0-0.260","","key","arrowleft","16.665999999999798","426","451","261","10","-1","23","15","25","35","true"
"null","null","psychophysics","533","2351105","0.0-3.0-1.260","","key","null","16.66600000000385","426","451","","","","","","","",""
"572.5999999046326","arrowright","psychophysics","534","2351680","0.0-3.0-0.261","","key","arrowright","16.666000000003613","426","451","262","10","1","26","15","25","35","true"
"null","null","psychophysics","535","2352684","0.0-3.0-1.261","","key","null","16.665999999995957","426","451","","","","","","","",""
"567.7000000476837","arrowright","psychophysics","536","2353254","0.0-3.0-0.262","","key","arrowright","16.665999999995726","426","451","263","10","1","26","15","25","35","true"
"null","null","psychophysics","537","2354255","0.0-3.0-1.262","","key","null","16.665999999995957","426","451","","","","","","","",""
"1493.6000000238419","arrowright","psychophysics","538","2355751","0.0-3.0-0.263","","key","arrowright","16.666000000000086","426","451","264","10","1","26","35","25","35","true"
"null","null","psychophysics","539","2356754","0.0-3.0-1.263","","key","null","16.66599999999938","426","451","","","","","","","",""
"1583.9000000953674","arrowleft","psychophysics","540","2358340","0.0-3.0-0.264","","key","arrowleft","16.674159574466064","426","451","265","10","1","20","35","25","35","false"
"null","null","psychophysics","541","2359343","0.0-3.0-1.264","","key","null","16.665999999995957","426","451","","","","","","","",""
"1130.3999999761581","arrowright","psychophysics","542","2360476","0.0-3.0-0.265","","key","arrowright","16.66599999999961","426","451","266","10","-1","27","35","25","35","false"
"null","null","psychophysics","543","2361482","0.0-3.0-1.265","","key","null","16.665999999995957","426","451","","","","","","","",""
"634.7999999523163","arrowright","psychophysics","544","2362119","0.0-3.0-0.266","","key","arrowright","16.665999999999798","426","451","267","10","1","26","15","25","35","true"
"null","null","psychophysics","545","2363121","0.0-3.0-1.266","","key","null","16.66599999999938","426","451","","","","","","","",""
"884.8999999761581","arrowleft","psychophysics","546","2364009","0.0-3.0-0.267","","key","arrowleft","16.6659999999952","426","451","268","10","1","20","15","25","35","false"
"null","null","psychophysics","547","2365010","0.0-3.0-1.267","","key","null","16.66600000000385","426","451","","","","","","","",""
"1290.8999999761581","arrowleft","psychophysics","548","2366305","0.0-3.0-0.268","","key","arrowleft","16.666000000001596","426","451","269","10","-1","25","15","25","35","true"
"null","null","psychophysics","549","2367310","0.0-3.0-1.268","","key","null","16.66600000000385","426","451","","","","","","","",""
"520.6000000238419","arrowright","psychophysics","550","2367834","0.0-3.0-0.269","","key","arrowright","16.66599999999938","426","451","270","10","1","30","15","25","35","true"
"null","null","psychophysics","551","2368836","0.0-3.0-1.269","","key","null","16.66600000000385","426","451","","","","","","","",""
"7431.699999928474","arrowright","psychophysics","552","2376272","0.0-3.0-0.270","","key","arrowright","16.6660000000007","426","451","271","10","-1","26","35","25","35","false"
"null","null","psychophysics","553","2377277","0.0-3.0-1.270","","key","null","16.676050847459393","426","451","","","","","","","",""
"652.7999999523163","arrowleft","psychophysics","554","2377937","0.0-3.0-0.271","","key","arrowleft","16.6660000000051","426","451","272","10","-1","30","35","25","35","true"
"null","null","psychophysics","555","2378938","0.0-3.0-1.271","","key","null","16.66599999999938","426","451","","","","","","","",""
"616.8999999761581","arrowleft","psychophysics","556","2379557","0.0-3.0-0.272","","key","arrowleft","16.66600000000714","426","451","273","10","-1","25","15","25","35","true"
"null","null","psychophysics","557","2380560","0.0-3.0-1.272","","key","null","16.66600000000385","426","451","","","","","","","",""
"4281.600000023842","arrowright","psychophysics","558","2384844","0.0-3.0-0.273","","key","arrowright","16.666000000001077","426","451","274","10","1","25","15","25","35","true"
"null","null","psychophysics","559","2385846","0.0-3.0-1.273","","key","null","16.66600000000385","426","451","","","","","","","",""
"572","arrowleft","psychophysics","560","2386420","0.0-3.0-0.274","","key","arrowleft","16.666000000009422","426","451","275","10","-1","30","15","25","35","true"
"null","null","psychophysics","561","2387421","0.0-3.0-1.274","","key","null","16.679016949151155","426","451","","","","","","","",""
"751.1999999284744","arrowright","psychophysics","562","2388175","0.0-3.0-0.275","","key","arrowright","16.666000000000086","426","451","276","10","1","24","15","25","35","true"
"null","null","psychophysics","563","2389177","0.0-3.0-1.275","","key","null","16.665999999995957","426","451","","","","","","","",""
"569.3000000715256","arrowright","psychophysics","564","2389750","0.0-3.0-0.276","","key","arrowright","16.665999999989502","426","451","277","10","1","30","15","25","35","true"
"null","null","psychophysics","565","2390752","0.0-3.0-1.276","","key","null","16.665999999995957","426","451","","","","","","","",""
"503.2000000476837","arrowleft","psychophysics","566","2391257","0.0-3.0-0.277","","key","arrowleft","16.66599999999938","426","451","278","10","-1","24","15","25","35","true"
"null","null","psychophysics","567","2392260","0.0-3.0-1.277","","key","null","16.665999999995957","426","451","","","","","","","",""
"906.3999999761581","arrowright","psychophysics","568","2393169","0.0-3.0-0.278","","key","arrowright","16.665999999999087","426","451","279","10","1","27","35","25","35","true"
"null","null","psychophysics","569","2394172","0.0-3.0-1.278","","key","null","16.66600000000714","426","451","","","","","","","",""
"706.6000000238419","arrowleft","psychophysics","570","2394881","0.0-3.0-0.279","","key","arrowleft","16.66599999999673","426","451","280","11","-1","25","15","25","35","true"
"null","null","psychophysics","571","2395888","0.0-3.0-1.279","","key","null","16.66599999999938","426","451","","","","","","","",""
