"rt","response","trial_type","trial_index","time_elapsed","internal_node_id","stimulus","response_type","key_press","avg_frame_time","center_x","center_y","trial","block","test_pos","test_inner_radius","test_outer_radius","ref_inner_radius","ref_outer_radius","test_bigger"
"37776.5","{""p_id"":""9092"",""age"":""19"",""handedness"":""left"",""sex"":""female"",""other_sex"":""""}","survey-html-form","0","37780","0.0-0.0","","","","","","","","","","","","","",""
"136726.29999995232"," ","html-keyboard-response","1","174510","0.0-1.0","<p style=""color: white"">Welcome to the Size Judgment Experiment. <br>There will be 10 blocks in this experiment. <br>There will be 28 trials in each block. <br>You will be given a chance to take a break between blocks. <br>Press any key to start the experiment.</p>","","","","","","","","","","","","",""
"15684.200000047684","arrowleft","psychophysics","2","190222","0.0-2.0","","key","arrowleft","16.655916224814433","670.5","339","","","","","","","",""
"868.5","arrowright","psychophysics","3","191099","0.0-3.0-0.0","","key","arrowright","16.654999999999955","670.5","339","1","1","-1","25","15","25","35","false"
"null","null","psychophysics","4","192103","0.0-3.0-1.0","","key","null","16.654999999999824","670.5","339","","","","","","","",""
"628","arrowright","psychophysics","5","192736","0.0-3.0-0.1","","key","arrowright","16.65500000000041","670.5","339","2","1","-1","30","15","25","35","false"
"null","null","psychophysics","6","193740","0.0-3.0-1.1","","key","null","16.654999999999824","670.5","339","","","","","","","",""
"497.2999999523163","arrowright","psychophysics","7","194245","0.0-3.0-0.2","","key","arrowright","16.654999999999806","670.5","339","3","1","-1","20","15","25","35","false"
"null","null","psychophysics","8","195248","0.0-3.0-1.2","","key","null","16.661372881356066","670.5","339","","","","","","","",""
"449.40000009536743","arrowright","psychophysics","9","195703","0.0-3.0-0.3","","key","arrowright","16.654999999999955","670.5","339","4","1","-1","23","15","25","35","false"
"null","null","psychophysics","10","196708","0.0-3.0-1.3","","key","null","16.655000000000317","670.5","339","","","","","","","",""
"523.2000000476837","arrowleft","psychophysics","11","197262","0.0-3.0-0.4","","key","arrowleft","16.654999999999717","670.5","339","5","1","1","30","15","25","35","false"
"null","null","psychophysics","12","198265","0.0-3.0-1.4","","key","null","16.654999999999824","670.5","339","","","","","","","",""
"391.5","arrowleft","psychophysics","13","198663","0.0-3.0-0.5","","key","arrowleft","16.6550000000001","670.5","339","6","1","1","24","35","25","35","false"
"null","null","psychophysics","14","199666","0.0-3.0-1.5","","key","null","16.655000000000317","670.5","339","","","","","","","",""
"539.1000001430511","arrowright","psychophysics","15","200211","0.0-3.0-0.6","","key","arrowright","16.654999999999745","670.5","339","7","1","-1","30","15","25","35","false"
"null","null","psychophysics","16","201215","0.0-3.0-1.6","","key","null","16.654999999999824","670.5","339","","","","","","","",""
"2006.8999998569489","arrowleft","psychophysics","17","203228","0.0-3.0-0.7","","key","arrowleft","16.654999999999806","670.5","339","8","1","-1","30","35","25","35","true"
"null","null","psychophysics","18","204231","0.0-3.0-1.7","","key","null","16.655000000000317","670.5","339","","","","","","","",""
"932.5999999046326","arrowright","psychophysics","19","205176","0.0-3.0-0.8","","key","arrowright","16.66171428571397","670.5","339","9","1","-1","25","35","25","35","false"
"null","null","psychophysics","20","206180","0.0-3.0-1.8","","key","null","16.655000000000317","670.5","339","","","","","","","",""
"657.0999999046326","arrowright","psychophysics","21","206843","0.0-3.0-0.9","","key","arrowright","16.654999999999582","670.5","339","10","1","-1","24","35","25","35","false"
"null","null","psychophysics","22","207845","0.0-3.0-1.9","","key","null","16.655000000000317","670.5","339","","","","","","","",""
"610.7000000476837","arrowleft","psychophysics","23","208460","0.0-3.0-0.10","","key","arrowleft","16.654999999999646","670.5","339","11","1","1","20","15","25","35","false"
"null","null","psychophysics","24","209462","0.0-3.0-1.10","","key","null","16.655000000000317","670.5","339","","","","","","","",""
"484.40000009536743","arrowright","psychophysics","25","209956","0.0-3.0-0.11","","key","arrowright","16.654999999999838","670.5","339","12","1","-1","23","15","25","35","false"
"null","null","psychophysics","26","210961","0.0-3.0-1.11","","key","null","16.654999999999824","670.5","339","","","","","","","",""
"651.8000001907349","arrowright","psychophysics","27","211618","0.0-3.0-0.12","","key","arrowright","16.655000000000328","670.5","339","13","1","1","23","35","25","35","true"
"null","null","psychophysics","28","212621","0.0-3.0-1.12","","key","null","16.654999999999824","670.5","339","","","","","","","",""
"716.5","arrowleft","psychophysics","29","213341","0.0-3.0-0.13","","key","arrowleft","16.65500000000022","670.5","339","14","1","-1","20","35","25","35","true"
"null","null","psychophysics","30","214346","0.0-3.0-1.13","","key","null","16.654999999999824","670.5","339","","","","","","","",""
"501.5","arrowright","psychophysics","31","214856","0.0-3.0-0.14","","key","arrowright","16.66756666666673","670.5","339","15","1","-1","23","15","25","35","false"
"null","null","psychophysics","32","215858","0.0-3.0-1.14","","key","null","16.655000000000317","670.5","339","","","","","","","",""
"749.2999999523163","arrowleft","psychophysics","33","216621","0.0-3.0-0.15","","key","arrowleft","16.65500000000013","670.5","339","16","1","1","23","35","25","35","false"
"null","null","psychophysics","34","217622","0.0-3.0-1.15","","key","null","16.654999999999824","670.5","339","","","","","","","",""
"1053.6999998092651","arrowleft","psychophysics","35","218682","0.0-3.0-0.16","","key","arrowleft","16.65500000000022","670.5","339","17","1","1","26","35","25","35","false"
"null","null","psychophysics","36","219685","0.0-3.0-1.16","","key","null","16.654999999999824","670.5","339","","","","","","","",""
"529.6000001430511","arrowright","psychophysics","37","220218","0.0-3.0-0.17","","key","arrowright","16.654999999999774","670.5","339","18","1","-1","26","15","25","35","false"
"null","null","psychophysics","38","221222","0.0-3.0-1.17","","key","null","16.655000000000317","670.5","339","","","","","","","",""
"754.1000001430511","arrowright","psychophysics","39","221985","0.0-3.0-0.18","","key","arrowright","16.654999999999482","670.5","339","19","1","-1","30","35","25","35","false"
"null","null","psychophysics","40","222994","0.0-3.0-1.18","","key","null","16.654999999999806","670.5","339","","","","","","","",""
"462","arrowright","psychophysics","41","223460","0.0-3.0-0.19","","key","arrowright","16.654999999999912","670.5","339","20","1","-1","27","15","25","35","false"
"null","null","psychophysics","42","224463","0.0-3.0-1.19","","key","null","16.654999999999824","670.5","339","","","","","","","",""
"537.4000000953674","arrowleft","psychophysics","43","225032","0.0-3.0-0.20","","key","arrowleft","16.66674999999941","670.5","339","21","1","1","30","15","25","35","false"
"null","null","psychophysics","44","226035","0.0-3.0-1.20","","key","null","16.655000000000317","670.5","339","","","","","","","",""
"535.7999999523163","arrowright","psychophysics","45","226578","0.0-3.0-0.21","","key","arrowright","16.654999999999745","670.5","339","22","1","-1","23","35","25","35","false"
"null","null","psychophysics","46","227579","0.0-3.0-1.21","","key","null","16.654999999999824","670.5","339","","","","","","","",""
"874.0999999046326","arrowleft","psychophysics","47","228459","0.0-3.0-0.22","","key","arrowleft","16.654999999999955","670.5","339","23","1","-1","27","35","25","35","true"
"null","null","psychophysics","48","229463","0.0-3.0-1.22","","key","null","16.655000000000317","670.5","339","","","","","","","",""
"565.4000000953674","arrowleft","psychophysics","49","230034","0.0-3.0-0.23","","key","arrowleft","16.654999999999717","670.5","339","24","1","1","25","15","25","35","false"
"null","null","psychophysics","50","231039","0.0-3.0-1.23","","key","null","16.655000000000292","670.5","339","","","","","","","",""
"456.5","arrowright","psychophysics","51","231499","0.0-3.0-0.24","","key","arrowright","16.654999999999955","670.5","339","25","1","-1","27","15","25","35","false"
"null","null","psychophysics","52","232502","0.0-3.0-1.24","","key","null","16.654999999999806","670.5","339","","","","","","","",""
"1872.2000000476837","arrowright","psychophysics","53","234379","0.0-3.0-0.25","","key","arrowright","16.655000000000147","670.5","339","26","1","1","20","35","25","35","true"
"null","null","psychophysics","54","235381","0.0-3.0-1.25","","key","null","16.66137288135557","670.5","339","","","","","","","",""
"597.7999999523163","arrowright","psychophysics","55","235988","0.0-3.0-0.26","","key","arrowright","16.655000000000452","670.5","339","27","1","1","20","35","25","35","true"
"null","null","psychophysics","56","236991","0.0-3.0-1.26","","key","null","16.654999999999824","670.5","339","","","","","","","",""
"525.7000000476837","arrowright","psychophysics","57","237521","0.0-3.0-0.27","","key","arrowright","16.655000000000715","670.5","339","28","2","1","25","35","25","35","true"
"null","null","psychophysics","58","238524","0.0-3.0-1.27","","key","null","16.654999999999824","670.5","339","","","","","","","",""
"8190.899999856949","arrowright","html-keyboard-response","59","246744","0.0-3.0-2.27-0.27","<div style=""color: white; text-align: center; vertical-align: top; display: inline-block; width: 800px; margin: auto""><p>You have completed 10% of the trials. You are on block 2 of 10. <br>Good job! Take a break if you need to.</p><p>Press any key to continue the experiment.</p></div>","","","","","","","","","","","","",""
"580.1000001430511","arrowright","psychophysics","60","248335","0.0-3.0-0.28","","key","arrowright","16.667885714285408","670.5","339","29","2","1","25","35","25","35","true"
"null","null","psychophysics","61","249340","0.0-3.0-1.28","","key","null","16.654999999999806","670.5","339","","","","","","","",""
"480.90000009536743","arrowright","psychophysics","62","249826","0.0-3.0-0.29","","key","arrowright","16.654999999999877","670.5","339","30","2","-1","20","15","25","35","false"
"null","null","psychophysics","63","250829","0.0-3.0-1.29","","key","null","16.654999999999824","670.5","339","","","","","","","",""
"790","arrowleft","psychophysics","64","251624","0.0-3.0-0.30","","key","arrowleft","16.654999999999454","670.5","339","31","2","1","26","15","25","35","false"
"null","null","psychophysics","65","252627","0.0-3.0-1.30","","key","null","16.655000000000317","670.5","339","","","","","","","",""
"649.2000000476837","arrowleft","psychophysics","66","253281","0.0-3.0-0.31","","key","arrowleft","16.654999999999603","670.5","339","32","2","1","20","15","25","35","false"
"null","null","psychophysics","67","254285","0.0-3.0-1.31","","key","null","16.655000000000317","670.5","339","","","","","","","",""
"472.60000014305115","arrowright","psychophysics","68","254769","0.0-3.0-0.32","","key","arrowright","16.654999999999838","670.5","339","33","2","1","27","35","25","35","true"
"null","null","psychophysics","69","255772","0.0-3.0-1.32","","key","null","16.654999999999824","670.5","339","","","","","","","",""
"899.2999999523163","arrowleft","psychophysics","70","256676","0.0-3.0-0.33","","key","arrowleft","16.655000000000484","670.5","339","34","2","-1","30","35","25","35","true"
"null","null","psychophysics","71","257678","0.0-3.0-1.33","","key","null","16.66137288135557","670.5","339","","","","","","","",""
"870.0999999046326","arrowleft","psychophysics","72","258555","0.0-3.0-0.34","","key","arrowleft","16.654999999999955","670.5","339","35","2","1","24","35","25","35","false"
"null","null","psychophysics","73","259557","0.0-3.0-1.34","","key","null","16.655000000000317","670.5","339","","","","","","","",""
"768.0999999046326","arrowright","psychophysics","74","260328","0.0-3.0-0.35","","key","arrowright","16.65500000000013","670.5","339","36","2","-1","20","35","25","35","false"
"null","null","psychophysics","75","261335","0.0-3.0-1.35","","key","null","16.655000000000776","670.5","339","","","","","","","",""
"597.0999999046326","arrowright","psychophysics","76","261936","0.0-3.0-0.36","","key","arrowright","16.654999999999667","670.5","339","37","2","-1","25","35","25","35","false"
"null","null","psychophysics","77","262939","0.0-3.0-1.36","","key","null","16.65499999999933","670.5","339","","","","","","","",""
"641.2999999523163","arrowleft","psychophysics","78","263585","0.0-3.0-0.37","","key","arrowleft","16.655000000000367","670.5","339","38","2","1","24","15","25","35","false"
"null","null","psychophysics","79","264588","0.0-3.0-1.37","","key","null","16.655000000000317","670.5","339","","","","","","","",""
"1130.0999999046326","arrowright","psychophysics","80","265723","0.0-3.0-0.38","","key","arrowright","16.65500000000014","670.5","339","39","2","1","27","35","25","35","true"
"null","null","psychophysics","81","266729","0.0-3.0-1.38","","key","null","16.654999999999806","670.5","339","","","","","","","",""
"586.4000000953674","arrowright","psychophysics","82","267318","0.0-3.0-0.39","","key","arrowright","16.666058823527933","670.5","339","40","2","1","27","35","25","35","true"
"null","null","psychophysics","83","268320","0.0-3.0-1.39","","key","null","19.652900000000372","670.5","339","","","","","","","",""
"489.7000000476837","arrowright","psychophysics","84","268814","0.0-3.0-0.40","","key","arrowright","20.12479166666647","670.5","339","41","2","-1","24","15","25","35","false"
"null","null","psychophysics","85","269817","0.0-3.0-1.40","","key","null","16.94215517241311","670.5","339","","","","","","","",""
"730.7000000476837","arrowright","psychophysics","86","270550","0.0-3.0-0.41","","key","arrowright","16.654999999999514","670.5","339","42","2","-1","23","15","25","35","false"
"null","null","psychophysics","87","271552","0.0-3.0-1.41","","key","null","16.65499999999933","670.5","339","","","","","","","",""
"1167.6000001430511","arrowleft","psychophysics","88","272732","0.0-3.0-0.42","","key","arrowleft","16.654999999999667","670.5","339","43","2","-1","27","35","25","35","true"
"null","null","psychophysics","89","273736","0.0-3.0-1.42","","key","null","16.655000000000317","670.5","339","","","","","","","",""
"1465.2999999523163","arrowright","psychophysics","90","275211","0.0-3.0-0.43","","key","arrowright","16.655000000000157","670.5","339","44","2","-1","20","15","25","35","false"
"null","null","psychophysics","91","276215","0.0-3.0-1.43","","key","null","16.655000000000317","670.5","339","","","","","","","",""
"579","arrowleft","psychophysics","92","276799","0.0-3.0-0.44","","key","arrowleft","16.654999999998836","670.5","339","45","2","1","20","15","25","35","false"
"null","null","psychophysics","93","277801","0.0-3.0-1.44","","key","null","16.661389830508426","670.5","339","","","","","","","",""
"757.9000000953674","arrowright","psychophysics","94","278571","0.0-3.0-0.45","","key","arrowright","16.6550000000001","670.5","339","46","2","1","20","35","25","35","true"
"null","null","psychophysics","95","279573","0.0-3.0-1.45","","key","null","16.65499999999933","670.5","339","","","","","","","",""
"947.4000000953674","arrowright","psychophysics","96","280526","0.0-3.0-0.46","","key","arrowright","16.654999999999877","670.5","339","47","2","1","27","15","25","35","true"
"null","null","psychophysics","97","281528","0.0-3.0-1.46","","key","null","16.65499999999933","670.5","339","","","","","","","",""
"835.7000000476837","arrowright","psychophysics","98","282368","0.0-3.0-0.47","","key","arrowright","16.655","670.5","339","48","2","1","25","15","25","35","true"
"null","null","psychophysics","99","283371","0.0-3.0-1.47","","key","null","16.655000000000317","670.5","339","","","","","","","",""
"841.2000000476837","arrowleft","psychophysics","100","284219","0.0-3.0-0.48","","key","arrowleft","16.655","670.5","339","49","2","-1","24","15","25","35","true"
"null","null","psychophysics","101","285222","0.0-3.0-1.48","","key","null","16.655000000000317","670.5","339","","","","","","","",""
"776.3999998569489","arrowright","psychophysics","102","286005","0.0-3.0-0.49","","key","arrowright","16.6550000000001","670.5","339","50","2","1","27","15","25","35","true"
"null","null","psychophysics","103","287008","0.0-3.0-1.49","","key","null","16.661372881356066","670.5","339","","","","","","","",""
"955.0999999046326","arrowright","psychophysics","104","287971","0.0-3.0-0.50","","key","arrowright","16.655000000000367","670.5","339","51","2","-1","20","15","25","35","false"
"null","null","psychophysics","105","288974","0.0-3.0-1.50","","key","null","16.655000000000317","670.5","339","","","","","","","",""
"717.0999999046326","arrowleft","psychophysics","106","289704","0.0-3.0-0.51","","key","arrowleft","16.655000000000868","670.5","339","52","2","-1","26","15","25","35","true"
"null","null","psychophysics","107","290708","0.0-3.0-1.51","","key","null","16.655000000000317","670.5","339","","","","","","","",""
"788","arrowleft","psychophysics","108","291505","0.0-3.0-0.52","","key","arrowleft","16.654999999999454","670.5","339","53","2","-1","23","15","25","35","true"
"null","null","psychophysics","109","292508","0.0-3.0-1.52","","key","null","16.65499999999933","670.5","339","","","","","","","",""
"717.3999998569489","arrowright","psychophysics","110","293235","0.0-3.0-0.53","","key","arrowright","16.654999999999514","670.5","339","54","2","1","30","35","25","35","true"
"null","null","psychophysics","111","294236","0.0-3.0-1.53","","key","null","16.65499999999933","670.5","339","","","","","","","",""
"636.2999999523163","arrowright","psychophysics","112","294882","0.0-3.0-0.54","","key","arrowright","16.655000000000367","670.5","339","55","2","-1","20","35","25","35","false"
"null","null","psychophysics","113","295888","0.0-3.0-1.54","","key","null","16.655000000000317","670.5","339","","","","","","","",""
"976.2000000476837","arrowright","psychophysics","114","296871","0.0-3.0-0.55","","key","arrowright","16.654999999999838","670.5","339","56","3","1","26","15","25","35","true"
"null","null","psychophysics","115","297875","0.0-3.0-1.55","","key","null","16.661266666666293","670.5","339","","","","","","","",""
"12767.200000047684","arrowright","html-keyboard-response","116","310644","0.0-3.0-2.55-0.55","<div style=""color: white; text-align: center; vertical-align: top; display: inline-block; width: 800px; margin: auto""><p>You have completed 20% of the trials. You are on block 3 of 10. <br>Good job! Take a break if you need to.</p><p>Press any key to continue the experiment.</p></div>","","","","","","","","","","","","",""
"1452.1000001430511","arrowright","psychophysics","117","313105","0.0-3.0-0.56","","key","arrowright","16.660942528736054","670.5","339","57","3","-1","23","35","25","35","false"
"null","null","psychophysics","118","314108","0.0-3.0-1.56","","key","null","16.655000000000317","670.5","339","","","","","","","",""
"854.2999999523163","arrowright","psychophysics","119","314968","0.0-3.0-0.57","","key","arrowright","16.65500000000055","670.5","339","58","3","1","26","15","25","35","true"
"null","null","psychophysics","120","315970","0.0-3.0-1.57","","key","null","16.65499999999933","670.5","339","","","","","","","",""
"1165.9000000953674","arrowright","psychophysics","121","317148","0.0-3.0-0.58","","key","arrowright","16.654999999999667","670.5","339","59","3","1","27","35","25","35","true"
"null","null","psychophysics","122","318151","0.0-3.0-1.58","","key","null","16.65499999999933","670.5","339","","","","","","","",""
"1329.5999999046326","arrowright","psychophysics","123","319484","0.0-3.0-0.59","","key","arrowright","16.65499999999994","670.5","339","60","3","1","23","15","25","35","true"
"null","null","psychophysics","124","320488","0.0-3.0-1.59","","key","null","16.655000000000317","670.5","339","","","","","","","",""
"868.7999999523163","arrowleft","psychophysics","125","321366","0.0-3.0-0.60","","key","arrowleft","16.66223076923052","670.5","339","61","3","-1","24","35","25","35","true"
"null","null","psychophysics","126","322371","0.0-3.0-1.60","","key","null","16.655000000000317","670.5","339","","","","","","","",""
"710.6999998092651","arrowright","psychophysics","127","323091","0.0-3.0-0.61","","key","arrowright","16.654999999999514","670.5","339","62","3","1","26","15","25","35","true"
"null","null","psychophysics","128","324094","0.0-3.0-1.61","","key","null","16.655000000000317","670.5","339","","","","","","","",""
"818.5999999046326","arrowleft","psychophysics","129","324916","0.0-3.0-0.62","","key","arrowleft","16.655000000000047","670.5","339","63","3","1","23","35","25","35","false"
"null","null","psychophysics","130","325918","0.0-3.0-1.62","","key","null","16.655000000000317","670.5","339","","","","","","","",""
"713.3000001907349","arrowleft","psychophysics","131","326642","0.0-3.0-0.63","","key","arrowleft","16.655000000000868","670.5","339","64","3","-1","24","15","25","35","true"
"null","null","psychophysics","132","327646","0.0-3.0-1.63","","key","null","16.655000000000317","670.5","339","","","","","","","",""
"776.4000000953674","arrowright","psychophysics","133","328437","0.0-3.0-0.64","","key","arrowright","16.655000000000694","670.5","339","65","3","1","30","15","25","35","true"
"null","null","psychophysics","134","329440","0.0-3.0-1.64","","key","null","16.655000000000317","670.5","339","","","","","","","",""
"991","arrowleft","psychophysics","135","330436","0.0-3.0-0.65","","key","arrowleft","16.65499999999933","670.5","339","66","3","1","25","35","25","35","false"
"null","null","psychophysics","136","331439","0.0-3.0-1.65","","key","null","16.948637931034618","670.5","339","","","","","","","",""
"707.5999999046326","arrowright","psychophysics","137","332152","0.0-3.0-0.66","","key","arrowright","16.65500000000022","670.5","339","67","3","-1","20","35","25","35","false"
"null","null","psychophysics","138","333154","0.0-3.0-1.66","","key","null","16.65499999999933","670.5","339","","","","","","","",""
"1040","arrowleft","psychophysics","139","334199","0.0-3.0-0.67","","key","arrowleft","16.654999999999774","670.5","339","68","3","-1","25","35","25","35","true"
"null","null","psychophysics","140","335205","0.0-3.0-1.67","","key","null","16.655000000000317","670.5","339","","","","","","","",""
"1037.0999999046326","arrowleft","psychophysics","141","336248","0.0-3.0-0.68","","key","arrowleft","16.654999999999774","670.5","339","69","3","-1","24","15","25","35","true"
"null","null","psychophysics","142","337251","0.0-3.0-1.68","","key","null","16.655000000000317","670.5","339","","","","","","","",""
"747","arrowleft","psychophysics","143","338002","0.0-3.0-0.69","","key","arrowleft","16.655000000000157","670.5","339","70","3","-1","26","15","25","35","true"
"null","null","psychophysics","144","339006","0.0-3.0-1.69","","key","null","16.655000000000317","670.5","339","","","","","","","",""
"667.3999998569489","arrowright","psychophysics","145","339680","0.0-3.0-0.70","","key","arrowright","16.655000000000292","670.5","339","71","3","1","26","35","25","35","true"
"null","null","psychophysics","146","340683","0.0-3.0-1.70","","key","null","16.65499999999933","670.5","339","","","","","","","",""
"763.7000000476837","arrowright","psychophysics","147","341455","0.0-3.0-0.71","","key","arrowright","16.663377777778077","670.5","339","72","3","1","30","15","25","35","true"
"null","null","psychophysics","148","342457","0.0-3.0-1.71","","key","null","16.655000000000317","670.5","339","","","","","","","",""
"1285.0999999046326","arrowright","psychophysics","149","343750","0.0-3.0-0.72","","key","arrowright","16.65499999999997","670.5","339","73","3","1","25","35","25","35","true"
"null","null","psychophysics","150","344754","0.0-3.0-1.72","","key","null","16.65499999999933","670.5","339","","","","","","","",""
"828.2999999523163","arrowright","psychophysics","151","345593","0.0-3.0-0.73","","key","arrowright","16.655","670.5","339","74","3","-1","20","35","25","35","false"
"null","null","psychophysics","152","346595","0.0-3.0-1.73","","key","null","16.65499999999933","670.5","339","","","","","","","",""
"822.3000001907349","arrowright","psychophysics","153","347428","0.0-3.0-0.74","","key","arrowright","16.65499999999943","670.5","339","75","3","1","30","35","25","35","true"
"null","null","psychophysics","154","348431","0.0-3.0-1.74","","key","null","16.65499999999933","670.5","339","","","","","","","",""
"806","arrowleft","psychophysics","155","349242","0.0-3.0-0.75","","key","arrowleft","16.655000000000047","670.5","339","76","3","1","23","15","25","35","false"
"null","null","psychophysics","156","350246","0.0-3.0-1.75","","key","null","16.655000000000317","670.5","339","","","","","","","",""
"997","arrowleft","psychophysics","157","351248","0.0-3.0-0.76","","key","arrowleft","17.256535714285356","670.5","339","77","3","1","24","15","25","35","false"
"null","null","psychophysics","158","352254","0.0-3.0-1.76","","key","null","16.655000000000268","670.5","339","","","","","","","",""
"922.5","arrowleft","psychophysics","159","353185","0.0-3.0-0.77","","key","arrowleft","16.654999999999365","670.5","339","78","3","-1","24","15","25","35","true"
"null","null","psychophysics","160","354187","0.0-3.0-1.77","","key","null","16.655000000000317","670.5","339","","","","","","","",""
"1534.9000000953674","arrowright","psychophysics","161","355725","0.0-3.0-0.78","","key","arrowright","16.654999999999795","670.5","339","79","3","1","25","15","25","35","true"
"null","null","psychophysics","162","356729","0.0-3.0-1.78","","key","null","16.655000000000317","670.5","339","","","","","","","",""
"1012.8999998569489","arrowright","psychophysics","163","357747","0.0-3.0-0.79","","key","arrowright","16.655000000000268","670.5","339","80","3","-1","23","35","25","35","false"
"null","null","psychophysics","164","358750","0.0-3.0-1.79","","key","null","16.655000000000317","670.5","339","","","","","","","",""
"1207.7000000476837","arrowright","psychophysics","165","359964","0.0-3.0-0.80","","key","arrowright","16.654999999999646","670.5","339","81","3","1","30","15","25","35","true"
"null","null","psychophysics","166","360967","0.0-3.0-1.80","","key","null","16.661372881356066","670.5","339","","","","","","","",""
"1159.2999999523163","arrowleft","psychophysics","167","362130","0.0-3.0-0.81","","key","arrowleft","16.6550000000001","670.5","339","82","3","1","24","15","25","35","false"
"null","null","psychophysics","168","363132","0.0-3.0-1.81","","key","null","16.655000000000317","670.5","339","","","","","","","",""
"734","arrowleft","psychophysics","169","363869","0.0-3.0-0.82","","key","arrowleft","16.655000000000868","670.5","339","83","3","-1","30","15","25","35","true"
"null","null","psychophysics","170","364873","0.0-3.0-1.82","","key","null","16.655000000000317","670.5","339","","","","","","","",""
"1326.6000001430511","arrowleft","psychophysics","171","366215","0.0-3.0-0.83","","key","arrowleft","16.654999999999564","670.5","339","84","4","1","24","15","25","35","false"
"null","null","psychophysics","172","367217","0.0-3.0-1.83","","key","null","16.65499999999933","670.5","339","","","","","","","",""
"6149.599999904633","arrowleft","html-keyboard-response","173","373369","0.0-3.0-2.83-0.83","<div style=""color: white; text-align: center; vertical-align: top; display: inline-block; width: 800px; margin: auto""><p>You have completed 30% of the trials. You are on block 4 of 10. <br>Good job! Take a break if you need to.</p><p>Press any key to continue the experiment.</p></div>","","","","","","","","","","","","",""
"1114.5","arrowleft","psychophysics","174","375500","0.0-3.0-0.84","","key","arrowleft","16.662059701492648","670.5","339","85","4","-1","25","35","25","35","true"
"null","null","psychophysics","175","376502","0.0-3.0-1.84","","key","null","16.655000000000776","670.5","339","","","","","","","",""
"615.2000000476837","arrowleft","psychophysics","176","377121","0.0-3.0-0.85","","key","arrowleft","16.655000000000452","670.5","339","86","4","-1","30","35","25","35","true"
"null","null","psychophysics","177","378147","0.0-3.0-1.85","","key","null","16.654999999999806","670.5","339","","","","","","","",""
"679.2999999523163","arrowleft","psychophysics","178","378834","0.0-3.0-0.86","","key","arrowleft","16.654999999999546","670.5","339","87","4","-1","26","35","25","35","true"
"null","null","psychophysics","179","379843","0.0-3.0-1.86","","key","null","16.655000000000317","670.5","339","","","","","","","",""
"708.3999998569489","arrowleft","psychophysics","180","380559","0.0-3.0-0.87","","key","arrowleft","16.65500000000022","670.5","339","88","4","-1","23","15","25","35","true"
"null","null","psychophysics","181","381562","0.0-3.0-1.87","","key","null","16.655000000000317","670.5","339","","","","","","","",""
"787.8999998569489","arrowleft","psychophysics","182","382357","0.0-3.0-0.88","","key","arrowleft","16.654999999999454","670.5","339","89","4","-1","24","15","25","35","true"
"null","null","psychophysics","183","383360","0.0-3.0-1.88","","key","null","16.65499999999933","670.5","339","","","","","","","",""
"797.3999998569489","arrowleft","psychophysics","184","384165","0.0-3.0-0.89","","key","arrowleft","16.662833333333158","670.5","339","90","4","-1","26","35","25","35","true"
"null","null","psychophysics","185","385168","0.0-3.0-1.89","","key","null","16.655000000000317","670.5","339","","","","","","","",""
"721.2999999523163","arrowleft","psychophysics","186","385900","0.0-3.0-0.90","","key","arrowleft","16.654999999999514","670.5","339","91","4","1","25","35","25","35","false"
"null","null","psychophysics","187","386902","0.0-3.0-1.90","","key","null","16.65499999999933","670.5","339","","","","","","","",""
"1116.7000000476837","arrowleft","psychophysics","188","388023","0.0-3.0-0.91","","key","arrowleft","16.654999999999717","670.5","339","92","4","-1","23","35","25","35","true"
"null","null","psychophysics","189","389027","0.0-3.0-1.91","","key","null","16.654999999999806","670.5","339","","","","","","","",""
"669.4000000953674","arrowleft","psychophysics","190","389701","0.0-3.0-0.92","","key","arrowleft","16.655000000001074","670.5","339","93","4","-1","30","15","25","35","true"
"null","null","psychophysics","191","390703","0.0-3.0-1.92","","key","null","16.655000000000317","670.5","339","","","","","","","",""
"681.5999999046326","arrowleft","psychophysics","192","391398","0.0-3.0-0.93","","key","arrowleft","16.655000000000964","670.5","339","94","4","-1","27","15","25","35","true"
"null","null","psychophysics","193","392404","0.0-3.0-1.93","","key","null","16.655000000000317","670.5","339","","","","","","","",""
"506.7000000476837","arrowright","psychophysics","194","392939","0.0-3.0-0.94","","key","arrowright","16.655000000000776","670.5","339","95","4","-1","20","15","25","35","false"
"null","null","psychophysics","195","393941","0.0-3.0-1.94","","key","null","16.66116393442632","670.5","339","","","","","","","",""
"854.1000001430511","arrowright","psychophysics","196","394800","0.0-3.0-0.95","","key","arrowright","16.655","670.5","339","96","4","1","27","35","25","35","true"
"null","null","psychophysics","197","395803","0.0-3.0-1.95","","key","null","16.655000000000317","670.5","339","","","","","","","",""
"620.1999998092651","arrowleft","psychophysics","198","396432","0.0-3.0-0.96","","key","arrowleft","16.65499999999962","670.5","339","97","4","-1","27","15","25","35","true"
"null","null","psychophysics","199","397456","0.0-3.0-1.96","","key","null","16.655000000000268","670.5","339","","","","","","","",""
"767.9000000953674","arrowright","psychophysics","200","398228","0.0-3.0-0.97","","key","arrowright","16.654999999999482","670.5","339","98","4","1","30","15","25","35","true"
"null","null","psychophysics","201","399231","0.0-3.0-1.97","","key","null","16.655000000000317","670.5","339","","","","","","","",""
"794.8000001907349","arrowleft","psychophysics","202","400034","0.0-3.0-0.98","","key","arrowleft","16.655000000000047","670.5","339","99","4","-1","23","15","25","35","true"
"null","null","psychophysics","203","401037","0.0-3.0-1.98","","key","null","16.655000000000317","670.5","339","","","","","","","",""
"1050.2999999523163","arrowleft","psychophysics","204","402091","0.0-3.0-0.99","","key","arrowleft","16.655000000000715","670.5","339","100","4","-1","25","35","25","35","true"
"null","null","psychophysics","205","403100","0.0-3.0-1.99","","key","null","16.654999999999806","670.5","339","","","","","","","",""
"998.0999999046326","arrowleft","psychophysics","206","404103","0.0-3.0-0.100","","key","arrowleft","16.661372881356066","670.5","339","101","4","-1","24","35","25","35","true"
"null","null","psychophysics","207","405106","0.0-3.0-1.100","","key","null","16.655000000000317","670.5","339","","","","","","","",""
"858.6999998092651","arrowleft","psychophysics","208","405969","0.0-3.0-0.101","","key","arrowleft","16.65500000000055","670.5","339","102","4","1","23","35","25","35","false"
"null","null","psychophysics","209","406974","0.0-3.0-1.101","","key","null","16.655000000000317","670.5","339","","","","","","","",""
"694.7000000476837","arrowleft","psychophysics","210","407673","0.0-3.0-0.102","","key","arrowleft","16.654999999999546","670.5","339","103","4","-1","24","15","25","35","true"
"null","null","psychophysics","211","408678","0.0-3.0-1.102","","key","null","16.654999999999806","670.5","339","","","","","","","",""
"670.7999999523163","arrowleft","psychophysics","212","409354","0.0-3.0-0.103","","key","arrowleft","16.655000000001074","670.5","339","104","4","-1","27","15","25","35","true"
"null","null","psychophysics","213","410358","0.0-3.0-1.103","","key","null","16.655000000000317","670.5","339","","","","","","","",""
"775.1000001430511","arrowleft","psychophysics","214","411141","0.0-3.0-0.104","","key","arrowleft","16.6550000000001","670.5","339","105","4","1","20","35","25","35","false"
"null","null","psychophysics","215","412143","0.0-3.0-1.104","","key","null","16.654999999999806","670.5","339","","","","","","","",""
"981.6999998092651","arrowright","psychophysics","216","413130","0.0-3.0-0.105","","key","arrowright","16.655000000000843","670.5","339","106","4","1","26","35","25","35","true"
"null","null","psychophysics","217","414132","0.0-3.0-1.105","","key","null","16.661389830508426","670.5","339","","","","","","","",""
"817.7999999523163","arrowright","psychophysics","218","414964","0.0-3.0-0.106","","key","arrowright","16.65499999999943","670.5","339","107","4","1","25","15","25","35","true"
"null","null","psychophysics","219","415967","0.0-3.0-1.106","","key","null","16.65499999999933","670.5","339","","","","","","","",""
"1123.3999998569489","arrowright","psychophysics","220","417099","0.0-3.0-0.107","","key","arrowright","16.65500000000014","670.5","339","108","4","1","24","15","25","35","true"
"null","null","psychophysics","221","418102","0.0-3.0-1.107","","key","null","16.655000000000317","670.5","339","","","","","","","",""
"594.5999999046326","arrowleft","psychophysics","222","418707","0.0-3.0-0.108","","key","arrowleft","16.655000000000452","670.5","339","109","4","-1","30","35","25","35","true"
"null","null","psychophysics","223","419709","0.0-3.0-1.108","","key","null","16.65499999999933","670.5","339","","","","","","","",""
"746.6000001430511","arrowleft","psychophysics","224","420464","0.0-3.0-0.109","","key","arrowleft","16.655000000000157","670.5","339","110","4","-1","27","35","25","35","true"
"null","null","psychophysics","225","421467","0.0-3.0-1.109","","key","null","16.655000000000317","670.5","339","","","","","","","",""
"770.1000001430511","arrowright","psychophysics","226","422247","0.0-3.0-0.110","","key","arrowright","16.6550000000001","670.5","339","111","4","1","27","15","25","35","true"
"null","null","psychophysics","227","423250","0.0-3.0-1.110","","key","null","16.655000000000317","670.5","339","","","","","","","",""
"675.7000000476837","arrowleft","psychophysics","228","423933","0.0-3.0-0.111","","key","arrowleft","16.664400000000022","670.5","339","112","5","-1","25","15","25","35","true"
"null","null","psychophysics","229","424935","0.0-3.0-1.111","","key","null","16.654999999999806","670.5","339","","","","","","","",""
"15038","arrowleft","html-keyboard-response","230","439975","0.0-3.0-2.111-0.111","<div style=""color: white; text-align: center; vertical-align: top; display: inline-block; width: 800px; margin: auto""><p>You have completed 40% of the trials. You are on block 5 of 10. <br>Good job! Take a break if you need to.</p><p>Press any key to continue the experiment.</p></div>","","","","","","","","","","","","",""
"786.6000001430511","arrowleft","psychophysics","231","441775","0.0-3.0-0.112","","key","arrowleft","16.667874999999185","670.5","339","113","5","-1","26","35","25","35","true"
"null","null","psychophysics","232","442779","0.0-3.0-1.112","","key","null","16.65499999999933","670.5","339","","","","","","","",""
"813.2999999523163","arrowright","psychophysics","233","443596","0.0-3.0-0.113","","key","arrowright","16.655000000000047","670.5","339","114","5","-1","20","35","25","35","false"
"null","null","psychophysics","234","444599","0.0-3.0-1.113","","key","null","16.655000000000317","670.5","339","","","","","","","",""
"753.1000001430511","arrowleft","psychophysics","235","445361","0.0-3.0-0.114","","key","arrowleft","16.654999999999482","670.5","339","115","5","-1","27","15","25","35","true"
"null","null","psychophysics","236","446364","0.0-3.0-1.114","","key","null","16.65499999999933","670.5","339","","","","","","","",""
"728.4000000953674","arrowleft","psychophysics","237","447102","0.0-3.0-0.115","","key","arrowleft","16.655000000000157","670.5","339","116","5","1","20","35","25","35","false"
"null","null","psychophysics","238","448105","0.0-3.0-1.115","","key","null","16.655000000000317","670.5","339","","","","","","","",""
"607.5","arrowright","psychophysics","239","448722","0.0-3.0-0.116","","key","arrowright","16.655000000000452","670.5","339","117","5","1","27","35","25","35","true"
"null","null","psychophysics","240","449724","0.0-3.0-1.116","","key","null","16.65499999999933","670.5","339","","","","","","","",""
"716.2999999523163","arrowright","psychophysics","241","450444","0.0-3.0-0.117","","key","arrowright","16.66395238095235","670.5","339","118","5","1","26","15","25","35","true"
"null","null","psychophysics","242","451446","0.0-3.0-1.117","","key","null","16.655000000000317","670.5","339","","","","","","","",""
"821.7000000476837","arrowleft","psychophysics","243","452276","0.0-3.0-0.118","","key","arrowleft","16.65499999999943","670.5","339","119","5","1","24","35","25","35","false"
"null","null","psychophysics","244","453278","0.0-3.0-1.118","","key","null","16.65499999999933","670.5","339","","","","","","","",""
"1014.5","arrowleft","psychophysics","245","454299","0.0-3.0-0.119","","key","arrowleft","16.654999999999312","670.5","339","120","5","-1","26","35","25","35","true"
"null","null","psychophysics","246","455303","0.0-3.0-1.119","","key","null","16.655000000000317","670.5","339","","","","","","","",""
"824.2999999523163","arrowleft","psychophysics","247","456132","0.0-3.0-0.120","","key","arrowleft","16.65500000000062","670.5","339","121","5","-1","25","35","25","35","true"
"null","null","psychophysics","248","457136","0.0-3.0-1.120","","key","null","16.655000000000317","670.5","339","","","","","","","",""
"790.7000000476837","arrowleft","psychophysics","249","457940","0.0-3.0-0.121","","key","arrowleft","16.655000000000694","670.5","339","122","5","1","25","35","25","35","false"
"null","null","psychophysics","250","458944","0.0-3.0-1.121","","key","null","16.655000000000776","670.5","339","","","","","","","",""
"783.4000000953674","arrowleft","psychophysics","251","459731","0.0-3.0-0.122","","key","arrowleft","16.6550000000001","670.5","339","123","5","1","26","35","25","35","false"
"null","null","psychophysics","252","460734","0.0-3.0-1.122","","key","null","16.661389830509414","670.5","339","","","","","","","",""
"529","arrowleft","psychophysics","253","461269","0.0-3.0-0.123","","key","arrowleft","16.654999999999774","670.5","339","124","5","-1","30","15","25","35","true"
"null","null","psychophysics","254","462272","0.0-3.0-1.123","","key","null","16.65499999999933","670.5","339","","","","","","","",""
"962","arrowright","psychophysics","255","463241","0.0-3.0-0.124","","key","arrowright","16.654999999999838","670.5","339","125","5","-1","23","35","25","35","false"
"null","null","psychophysics","256","464243","0.0-3.0-1.124","","key","null","16.65499999999933","670.5","339","","","","","","","",""
"917.7999999523163","arrowleft","psychophysics","257","465165","0.0-3.0-0.125","","key","arrowleft","16.654999999999912","670.5","339","126","5","1","23","15","25","35","false"
"null","null","psychophysics","258","466169","0.0-3.0-1.125","","key","null","16.655000000000317","670.5","339","","","","","","","",""
"716.2999999523163","arrowright","psychophysics","259","466900","0.0-3.0-0.126","","key","arrowright","16.654999999999514","670.5","339","127","5","1","30","35","25","35","true"
"null","null","psychophysics","260","467902","0.0-3.0-1.126","","key","null","16.655000000000317","670.5","339","","","","","","","",""
"1011.5","arrowleft","psychophysics","261","468921","0.0-3.0-0.127","","key","arrowleft","16.654999999999312","670.5","339","128","5","-1","23","35","25","35","true"
"null","null","psychophysics","262","469924","0.0-3.0-1.127","","key","null","16.655000000000317","670.5","339","","","","","","","",""
"784.6000001430511","arrowright","psychophysics","263","470737","0.0-3.0-0.128","","key","arrowright","16.662833333333158","670.5","339","129","5","-1","25","35","25","35","false"
"null","null","psychophysics","264","471740","0.0-3.0-1.128","","key","null","16.65499999999933","670.5","339","","","","","","","",""
"726.7999999523163","arrowright","psychophysics","265","472471","0.0-3.0-0.129","","key","arrowright","16.654999999999514","670.5","339","130","5","-1","20","35","25","35","false"
"null","null","psychophysics","266","473474","0.0-3.0-1.129","","key","null","16.655000000000317","670.5","339","","","","","","","",""
"756.7999999523163","arrowleft","psychophysics","267","474235","0.0-3.0-0.130","","key","arrowleft","16.654999999999482","670.5","339","131","5","1","23","35","25","35","false"
"null","null","psychophysics","268","475238","0.0-3.0-1.130","","key","null","16.655000000000317","670.5","339","","","","","","","",""
"850.2999999523163","arrowleft","psychophysics","269","476099","0.0-3.0-0.131","","key","arrowleft","16.65500000000055","670.5","339","132","5","-1","30","35","25","35","true"
"null","null","psychophysics","270","477101","0.0-3.0-1.131","","key","null","16.655000000000317","670.5","339","","","","","","","",""
"787.7000000476837","arrowleft","psychophysics","271","477892","0.0-3.0-0.132","","key","arrowleft","16.6550000000001","670.5","339","133","5","-1","30","35","25","35","true"
"null","null","psychophysics","272","478895","0.0-3.0-1.132","","key","null","16.655000000000317","670.5","339","","","","","","","",""
"531.6999998092651","arrowright","psychophysics","273","479434","0.0-3.0-0.133","","key","arrowright","16.655000000000655","670.5","339","134","5","1","30","35","25","35","true"
"null","null","psychophysics","274","480437","0.0-3.0-1.133","","key","null","16.661372881356066","670.5","339","","","","","","","",""
"642.0999999046326","arrowright","psychophysics","275","481085","0.0-3.0-0.134","","key","arrowright","16.654999999998836","670.5","339","135","5","1","30","15","25","35","true"
"null","null","psychophysics","276","482089","0.0-3.0-1.134","","key","null","16.655000000000317","670.5","339","","","","","","","",""
"838.7999999523163","arrowleft","psychophysics","277","482936","0.0-3.0-0.135","","key","arrowleft","16.655","670.5","339","136","5","-1","24","15","25","35","true"
"null","null","psychophysics","278","483940","0.0-3.0-1.135","","key","null","16.65499999999933","670.5","339","","","","","","","",""
"648.4000000953674","arrowright","psychophysics","279","484597","0.0-3.0-0.136","","key","arrowright","16.654999999999582","670.5","339","137","5","1","30","15","25","35","true"
"null","null","psychophysics","280","485606","0.0-3.0-1.136","","key","null","16.65499999999933","670.5","339","","","","","","","",""
"922.6999998092651","arrowright","psychophysics","281","486537","0.0-3.0-0.137","","key","arrowright","16.654999999999365","670.5","339","138","5","-1","23","35","25","35","false"
"null","null","psychophysics","282","487542","0.0-3.0-1.137","","key","null","16.654999999999806","670.5","339","","","","","","","",""
"1362.5","arrowright","psychophysics","283","488909","0.0-3.0-0.138","","key","arrowright","16.654999999999912","670.5","339","139","5","1","24","15","25","35","true"
"null","null","psychophysics","284","489911","0.0-3.0-1.138","","key","null","16.655000000000317","670.5","339","","","","","","","",""
"731.2999999523163","arrowleft","psychophysics","285","490647","0.0-3.0-0.139","","key","arrowleft","16.66374418604713","670.5","339","140","6","-1","27","15","25","35","true"
"null","null","psychophysics","286","491649","0.0-3.0-1.139","","key","null","16.65499999999933","670.5","339","","","","","","","",""
"9477.299999952316","arrowleft","html-keyboard-response","287","501128","0.0-3.0-2.139-0.139","<div style=""color: white; text-align: center; vertical-align: top; display: inline-block; width: 800px; margin: auto""><p>You have completed 50% of the trials. You are on block 6 of 10. <br>Good job! Take a break if you need to.</p><p>Press any key to continue the experiment.</p></div>","","","","","","","","","","","","",""
"734","arrowleft","psychophysics","288","502878","0.0-3.0-0.140","","key","arrowleft","16.664409090909018","670.5","339","141","6","1","20","15","25","35","false"
"null","null","psychophysics","289","503880","0.0-3.0-1.140","","key","null","16.655000000000776","670.5","339","","","","","","","",""
"1081.4000000953674","arrowleft","psychophysics","290","504966","0.0-3.0-0.141","","key","arrowleft","16.654999999999745","670.5","339","142","6","1","23","15","25","35","false"
"null","null","psychophysics","291","505970","0.0-3.0-1.141","","key","null","16.655000000000317","670.5","339","","","","","","","",""
"779.9000000953674","arrowleft","psychophysics","292","506755","0.0-3.0-0.142","","key","arrowleft","16.6550000000001","670.5","339","143","6","1","23","15","25","35","false"
"null","null","psychophysics","293","507758","0.0-3.0-1.142","","key","null","16.65499999999933","670.5","339","","","","","","","",""
"690.2000000476837","arrowright","psychophysics","294","508463","0.0-3.0-0.143","","key","arrowright","16.65500000000022","670.5","339","144","6","1","30","15","25","35","true"
"null","null","psychophysics","295","509466","0.0-3.0-1.143","","key","null","16.655000000000317","670.5","339","","","","","","","",""
"842.2000000476837","arrowleft","psychophysics","296","510313","0.0-3.0-0.144","","key","arrowleft","16.655","670.5","339","145","6","1","26","35","25","35","false"
"null","null","psychophysics","297","511315","0.0-3.0-1.144","","key","null","16.661372881356066","670.5","339","","","","","","","",""
"881","arrowleft","psychophysics","298","512200","0.0-3.0-0.145","","key","arrowleft","16.654999999999955","670.5","339","146","6","-1","26","35","25","35","true"
"null","null","psychophysics","299","513203","0.0-3.0-1.145","","key","null","16.65499999999933","670.5","339","","","","","","","",""
"730.5","arrowleft","psychophysics","300","513965","0.0-3.0-0.146","","key","arrowleft","16.654999999999482","670.5","339","147","6","-1","27","35","25","35","true"
"null","null","psychophysics","301","514974","0.0-3.0-1.146","","key","null","16.654999999999806","670.5","339","","","","","","","",""
"1232.7000000476837","arrowright","psychophysics","302","516210","0.0-3.0-0.147","","key","arrowright","16.655000000000033","670.5","339","148","6","-1","20","15","25","35","false"
"null","null","psychophysics","303","517212","0.0-3.0-1.147","","key","null","16.655000000000317","670.5","339","","","","","","","",""
"1720.9000000953674","arrowright","psychophysics","304","518937","0.0-3.0-0.148","","key","arrowright","16.65500000000025","670.5","339","149","6","1","25","15","25","35","true"
"null","null","psychophysics","305","519939","0.0-3.0-1.148","","key","null","16.655000000000317","670.5","339","","","","","","","",""
"2025.7000000476837","arrowright","psychophysics","306","521969","0.0-3.0-0.149","","key","arrowright","16.6581157024792","670.5","339","150","6","-1","23","15","25","35","false"
"null","null","psychophysics","307","522979","0.0-3.0-1.149","","key","null","16.655000000000317","670.5","339","","","","","","","",""
"988.9000000953674","arrowright","psychophysics","308","523976","0.0-3.0-0.150","","key","arrowright","16.655000000000317","670.5","339","151","6","1","27","15","25","35","true"
"null","null","psychophysics","309","524979","0.0-3.0-1.150","","key","null","16.655000000000317","670.5","339","","","","","","","",""
"1126.2000000476837","arrowleft","psychophysics","310","526114","0.0-3.0-0.151","","key","arrowleft","16.65500000000055","670.5","339","152","6","-1","25","15","25","35","true"
"null","null","psychophysics","311","527117","0.0-3.0-1.151","","key","null","16.655000000000317","670.5","339","","","","","","","",""
"1563.4000000953674","arrowright","psychophysics","312","528684","0.0-3.0-0.152","","key","arrowright","16.6550000000004","670.5","339","153","6","1","24","15","25","35","true"
"null","null","psychophysics","313","529687","0.0-3.0-1.152","","key","null","16.655000000000317","670.5","339","","","","","","","",""
"850.5999999046326","arrowright","psychophysics","314","530571","0.0-3.0-0.153","","key","arrowright","16.655000000001074","670.5","339","154","6","1","26","15","25","35","true"
"null","null","psychophysics","315","531574","0.0-3.0-1.153","","key","null","16.661372881357053","670.5","339","","","","","","","",""
"1483.5","arrowright","psychophysics","316","533066","0.0-3.0-0.154","","key","arrowright","16.654999999999163","670.5","339","155","6","1","26","35","25","35","true"
"null","null","psychophysics","317","534070","0.0-3.0-1.154","","key","null","16.655000000000317","670.5","339","","","","","","","",""
"1026.2000000476837","arrowleft","psychophysics","318","535105","0.0-3.0-0.155","","key","arrowleft","16.654999999999312","670.5","339","156","6","1","20","35","25","35","false"
"null","null","psychophysics","319","536107","0.0-3.0-1.155","","key","null","16.654999999998836","670.5","339","","","","","","","",""
"726.2999999523163","arrowleft","psychophysics","320","536845","0.0-3.0-0.156","","key","arrowleft","16.655000000000868","670.5","339","157","6","1","20","35","25","35","false"
"null","null","psychophysics","321","537847","0.0-3.0-1.156","","key","null","16.655000000000317","670.5","339","","","","","","","",""
"1583","arrowleft","psychophysics","322","539433","0.0-3.0-0.157","","key","arrowleft","16.654999999999454","670.5","339","158","6","-1","24","35","25","35","true"
"null","null","psychophysics","323","540437","0.0-3.0-1.157","","key","null","16.655000000000776","670.5","339","","","","","","","",""
"1044.5","arrowleft","psychophysics","324","541486","0.0-3.0-0.158","","key","arrowleft","16.66116393442632","670.5","339","159","6","-1","26","15","25","35","true"
"null","null","psychophysics","325","542487","0.0-3.0-1.158","","key","null","16.655000000000776","670.5","339","","","","","","","",""
"819.6000001430511","arrowright","psychophysics","326","543310","0.0-3.0-0.159","","key","arrowright","16.654999999998836","670.5","339","160","6","1","26","15","25","35","true"
"null","null","psychophysics","327","544312","0.0-3.0-1.159","","key","null","16.655000000000317","670.5","339","","","","","","","",""
"801.2999999523163","arrowleft","psychophysics","328","545121","0.0-3.0-0.160","","key","arrowleft","16.654999999998836","670.5","339","161","6","-1","26","15","25","35","true"
"null","null","psychophysics","329","546123","0.0-3.0-1.160","","key","null","16.655000000000317","670.5","339","","","","","","","",""
"796.7999999523163","arrowleft","psychophysics","330","546935","0.0-3.0-0.161","","key","arrowleft","16.655000000001262","670.5","339","162","6","1","20","15","25","35","false"
"null","null","psychophysics","331","547937","0.0-3.0-1.161","","key","null","16.654999999998342","670.5","339","","","","","","","",""
"924.0999999046326","arrowleft","psychophysics","332","548865","0.0-3.0-0.162","","key","arrowleft","16.655000000000424","670.5","339","163","6","-1","23","15","25","35","true"
"null","null","psychophysics","333","549868","0.0-3.0-1.162","","key","null","16.655000000000317","670.5","339","","","","","","","",""
"1582.2999999523163","arrowleft","psychophysics","334","551453","0.0-3.0-0.163","","key","arrowleft","17.021152173913002","670.5","339","164","6","1","24","35","25","35","false"
"null","null","psychophysics","335","552455","0.0-3.0-1.163","","key","null","16.655000000000317","670.5","339","","","","","","","",""
"1264.5","arrowleft","psychophysics","336","553724","0.0-3.0-0.164","","key","arrowleft","16.655","670.5","339","165","6","-1","25","35","25","35","true"
"null","null","psychophysics","337","554730","0.0-3.0-1.164","","key","null","16.654999999998836","670.5","339","","","","","","","",""
"767.2999999523163","arrowright","psychophysics","338","555501","0.0-3.0-0.165","","key","arrowright","16.654999999999482","670.5","339","166","6","1","26","35","25","35","true"
"null","null","psychophysics","339","556505","0.0-3.0-1.165","","key","null","16.655000000000317","670.5","339","","","","","","","",""
"975.4000000953674","arrowleft","psychophysics","340","557496","0.0-3.0-0.166","","key","arrowleft","16.655000000000317","670.5","339","167","6","1","24","35","25","35","false"
"null","null","psychophysics","341","558499","0.0-3.0-1.166","","key","null","16.655000000000317","670.5","339","","","","","","","",""
"1137.5","arrowleft","psychophysics","342","559641","0.0-3.0-0.167","","key","arrowleft","16.654999999998836","670.5","339","168","7","1","25","35","25","35","false"
"null","null","psychophysics","343","560643","0.0-3.0-1.167","","key","null","16.655000000000317","670.5","339","","","","","","","",""
"13701.899999856949","arrowleft","html-keyboard-response","344","574346","0.0-3.0-2.167-0.167","<div style=""color: white; text-align: center; vertical-align: top; display: inline-block; width: 800px; margin: auto""><p>You have completed 60% of the trials. You are on block 7 of 10. <br>Good job! Take a break if you need to.</p><p>Press any key to continue the experiment.</p></div>","","","","","","","","","","","","",""
"755.7000000476837","arrowleft","psychophysics","345","576119","0.0-3.0-0.168","","key","arrowleft","16.674266666665467","670.5","339","169","7","-1","30","15","25","35","true"
"null","null","psychophysics","346","577142","0.0-3.0-1.168","","key","null","16.655000000000776","670.5","339","","","","","","","",""
"683.4000000953674","arrowleft","psychophysics","347","577834","0.0-3.0-0.169","","key","arrowleft","16.655000000002385","670.5","339","170","7","-1","26","15","25","35","true"
"null","null","psychophysics","348","578838","0.0-3.0-1.169","","key","null","16.655000000000317","670.5","339","","","","","","","",""
"767.6000001430511","arrowleft","psychophysics","349","579615","0.0-3.0-0.170","","key","arrowleft","16.6550000000001","670.5","339","171","7","-1","25","15","25","35","true"
"null","null","psychophysics","350","580619","0.0-3.0-1.170","","key","null","16.654999999998342","670.5","339","","","","","","","",""
"633.5","arrowright","psychophysics","351","581290","0.0-3.0-0.171","","key","arrowright","16.655000000001074","670.5","339","172","7","1","20","35","25","35","true"
"null","null","psychophysics","352","582293","0.0-3.0-1.171","","key","null","16.654999999998836","670.5","339","","","","","","","",""
"802.5999999046326","arrowright","psychophysics","353","583100","0.0-3.0-0.172","","key","arrowright","16.655000000000694","670.5","339","173","7","1","25","15","25","35","true"
"null","null","psychophysics","354","584104","0.0-3.0-1.172","","key","null","16.655000000000317","670.5","339","","","","","","","",""
"3116","arrowleft","psychophysics","355","587231","0.0-3.0-0.173","","key","arrowleft","16.657010695187346","670.5","339","174","7","1","24","35","25","35","false"
"null","null","psychophysics","356","588240","0.0-3.0-1.173","","key","null","16.655000000000776","670.5","339","","","","","","","",""
"871.7000000476837","arrowleft","psychophysics","357","589115","0.0-3.0-0.174","","key","arrowleft","16.65500000000055","670.5","339","175","7","1","24","15","25","35","false"
"null","null","psychophysics","358","590118","0.0-3.0-1.174","","key","null","16.655000000000776","670.5","339","","","","","","","",""
"714.8999998569489","arrowleft","psychophysics","359","590836","0.0-3.0-0.175","","key","arrowleft","16.65500000000022","670.5","339","176","7","-1","27","15","25","35","true"
"null","null","psychophysics","360","591838","0.0-3.0-1.175","","key","null","16.655000000000317","670.5","339","","","","","","","",""
"911","arrowright","psychophysics","361","592753","0.0-3.0-0.176","","key","arrowright","16.654999999999912","670.5","339","177","7","1","26","15","25","35","true"
"null","null","psychophysics","362","593755","0.0-3.0-1.176","","key","null","16.655000000000317","670.5","339","","","","","","","",""
"1053.0999999046326","arrowright","psychophysics","363","594820","0.0-3.0-0.177","","key","arrowright","16.66096825396923","670.5","339","178","7","1","23","15","25","35","true"
"null","null","psychophysics","364","595823","0.0-3.0-1.177","","key","null","16.654999999998342","670.5","339","","","","","","","",""
"773.5","arrowleft","psychophysics","365","596603","0.0-3.0-0.178","","key","arrowleft","16.6550000000001","670.5","339","179","7","-1","30","35","25","35","true"
"null","null","psychophysics","366","597606","0.0-3.0-1.178","","key","null","16.655000000000317","670.5","339","","","","","","","",""
"968.2000000476837","arrowleft","psychophysics","367","598579","0.0-3.0-0.179","","key","arrowleft","16.654999999999347","670.5","339","180","7","-1","27","35","25","35","true"
"null","null","psychophysics","368","599581","0.0-3.0-1.179","","key","null","16.654999999998836","670.5","339","","","","","","","",""
"1037.7999999523163","arrowleft","psychophysics","369","600630","0.0-3.0-0.180","","key","arrowleft","16.654999999999774","670.5","339","181","7","-1","26","35","25","35","true"
"null","null","psychophysics","370","601632","0.0-3.0-1.180","","key","null","16.655000000000317","670.5","339","","","","","","","",""
"684.5","arrowright","psychophysics","371","602320","0.0-3.0-0.181","","key","arrowright","16.655000000001746","670.5","339","182","7","1","27","35","25","35","true"
"null","null","psychophysics","372","603323","0.0-3.0-1.181","","key","null","16.654999999998342","670.5","339","","","","","","","",""
"1152.7000000476837","arrowright","psychophysics","373","604484","0.0-3.0-0.182","","key","arrowright","16.655000000000946","670.5","339","183","7","-1","23","35","25","35","false"
"null","null","psychophysics","374","605488","0.0-3.0-1.182","","key","null","16.655000000000317","670.5","339","","","","","","","",""
"808.3999998569489","arrowleft","psychophysics","375","606313","0.0-3.0-0.183","","key","arrowleft","16.65499999999943","670.5","339","184","7","-1","24","35","25","35","true"
"null","null","psychophysics","376","607316","0.0-3.0-1.183","","key","null","16.654999999998342","670.5","339","","","","","","","",""
"731.1999998092651","arrowleft","psychophysics","377","608052","0.0-3.0-0.184","","key","arrowleft","16.655000000000868","670.5","339","185","7","1","20","15","25","35","false"
"null","null","psychophysics","378","609054","0.0-3.0-1.184","","key","null","16.655000000000317","670.5","339","","","","","","","",""
"967.2000000476837","arrowleft","psychophysics","379","610030","0.0-3.0-0.185","","key","arrowleft","16.654999999999838","670.5","339","186","7","-1","26","15","25","35","true"
"null","null","psychophysics","380","611034","0.0-3.0-1.185","","key","null","16.655000000000317","670.5","339","","","","","","","",""
"1072.9000000953674","arrowleft","psychophysics","381","612139","0.0-3.0-0.186","","key","arrowleft","16.654999999999717","670.5","339","187","7","1","23","15","25","35","false"
"null","null","psychophysics","382","613150","0.0-3.0-1.186","","key","null","16.654999999998342","670.5","339","","","","","","","",""
"888.5999999046326","arrowleft","psychophysics","383","614045","0.0-3.0-0.187","","key","arrowleft","16.655000000001582","670.5","339","188","7","-1","25","15","25","35","true"
"null","null","psychophysics","384","615048","0.0-3.0-1.187","","key","null","16.661389830508426","670.5","339","","","","","","","",""
"703.0999999046326","arrowright","psychophysics","385","615760","0.0-3.0-0.188","","key","arrowright","16.65500000000022","670.5","339","189","7","1","30","35","25","35","true"
"null","null","psychophysics","386","616764","0.0-3.0-1.188","","key","null","16.655000000000317","670.5","339","","","","","","","",""
"1068.4000000953674","arrowright","psychophysics","387","617841","0.0-3.0-0.189","","key","arrowright","16.65500000000022","670.5","339","190","7","1","27","15","25","35","true"
"null","null","psychophysics","388","618844","0.0-3.0-1.189","","key","null","16.655000000000776","670.5","339","","","","","","","",""
"1428","arrowleft","psychophysics","389","620287","0.0-3.0-0.190","","key","arrowleft","16.655000000000868","670.5","339","191","7","-1","27","35","25","35","true"
"null","null","psychophysics","390","621290","0.0-3.0-1.190","","key","null","16.655000000000317","670.5","339","","","","","","","",""
"989","arrowright","psychophysics","391","622285","0.0-3.0-0.191","","key","arrowright","16.655000000000317","670.5","339","192","7","-1","20","35","25","35","false"
"null","null","psychophysics","392","623289","0.0-3.0-1.191","","key","null","16.655000000000317","670.5","339","","","","","","","",""
"1236.4000000953674","arrowright","psychophysics","393","624531","0.0-3.0-0.192","","key","arrowright","16.655000000001195","670.5","339","193","7","1","26","35","25","35","true"
"null","null","psychophysics","394","625542","0.0-3.0-1.192","","key","null","16.655000000000317","670.5","339","","","","","","","",""
"934","arrowright","psychophysics","395","626484","0.0-3.0-0.193","","key","arrowright","16.655000000000914","670.5","339","194","7","1","26","15","25","35","true"
"null","null","psychophysics","396","627487","0.0-3.0-1.193","","key","null","16.655000000000317","670.5","339","","","","","","","",""
"716.4000000953674","arrowright","psychophysics","397","628212","0.0-3.0-0.194","","key","arrowright","16.655000000000868","670.5","339","195","7","1","30","35","25","35","true"
"null","null","psychophysics","398","629214","0.0-3.0-1.194","","key","null","16.655000000000317","670.5","339","","","","","","","",""
"898.7999999523163","arrowleft","psychophysics","399","630117","0.0-3.0-0.195","","key","arrowleft","16.655000000001582","670.5","339","196","8","-1","27","15","25","35","true"
"null","null","psychophysics","400","631121","0.0-3.0-1.195","","key","null","16.655000000000317","670.5","339","","","","","","","",""
"2329.2999999523163","arrowleft","html-keyboard-response","401","633463","0.0-3.0-2.195-0.195","<div style=""color: white; text-align: center; vertical-align: top; display: inline-block; width: 800px; margin: auto""><p>You have completed 70% of the trials. You are on block 8 of 10. <br>Good job! Take a break if you need to.</p><p>Press any key to continue the experiment.</p></div>","","","","","","","","","","","","",""
"1013.8999998569489","arrowleft","psychophysics","402","635489","0.0-3.0-0.196","","key","arrowleft","16.66116393442632","670.5","339","197","8","-1","30","15","25","35","true"
"null","null","psychophysics","403","636493","0.0-3.0-1.196","","key","null","16.654999999998342","670.5","339","","","","","","","",""
"875.7000000476837","arrowleft","psychophysics","404","637373","0.0-3.0-0.197","","key","arrowleft","16.655000000001074","670.5","339","198","8","-1","24","35","25","35","true"
"null","null","psychophysics","405","638383","0.0-3.0-1.197","","key","null","16.655000000000317","670.5","339","","","","","","","",""
"741.3000001907349","arrowleft","psychophysics","406","639131","0.0-3.0-0.198","","key","arrowleft","16.654999999998836","670.5","339","199","8","-1","27","35","25","35","true"
"null","null","psychophysics","407","640134","0.0-3.0-1.198","","key","null","16.655000000000776","670.5","339","","","","","","","",""
"676.4000000953674","arrowleft","psychophysics","408","640817","0.0-3.0-0.199","","key","arrowleft","16.654999999998836","670.5","339","200","8","-1","25","15","25","35","true"
"null","null","psychophysics","409","641819","0.0-3.0-1.199","","key","null","16.655000000000317","670.5","339","","","","","","","",""
"835.7999999523163","arrowleft","psychophysics","410","642659","0.0-3.0-0.200","","key","arrowleft","16.655000000001806","670.5","339","201","8","1","24","35","25","35","false"
"null","null","psychophysics","411","643663","0.0-3.0-1.200","","key","null","16.655000000000317","670.5","339","","","","","","","",""
"635.7000000476837","arrowright","psychophysics","412","644314","0.0-3.0-0.201","","key","arrowright","16.655000000001074","670.5","339","202","8","1","30","35","25","35","true"
"null","null","psychophysics","413","645316","0.0-3.0-1.201","","key","null","16.661372881357053","670.5","339","","","","","","","",""
"743.7999999523163","arrowright","psychophysics","414","646064","0.0-3.0-0.202","","key","arrowright","16.654999999998836","670.5","339","203","8","1","25","35","25","35","true"
"null","null","psychophysics","415","647066","0.0-3.0-1.202","","key","null","16.655000000000317","670.5","339","","","","","","","",""
"609.7999999523163","arrowright","psychophysics","416","647679","0.0-3.0-0.203","","key","arrowright","16.65500000000207","670.5","339","204","8","1","30","35","25","35","true"
"null","null","psychophysics","417","648682","0.0-3.0-1.203","","key","null","16.655000000000317","670.5","339","","","","","","","",""
"864.4000000953674","arrowleft","psychophysics","418","649552","0.0-3.0-0.204","","key","arrowleft","16.65500000000055","670.5","339","205","8","-1","26","15","25","35","true"
"null","null","psychophysics","419","650563","0.0-3.0-1.204","","key","null","16.654999999998342","670.5","339","","","","","","","",""
"733.6000001430511","arrowright","psychophysics","420","651300","0.0-3.0-0.205","","key","arrowright","16.655000000000868","670.5","339","206","8","1","25","15","25","35","true"
"null","null","psychophysics","421","652304","0.0-3.0-1.205","","key","null","16.655000000000317","670.5","339","","","","","","","",""
"882.2999999523163","arrowleft","psychophysics","422","653194","0.0-3.0-0.206","","key","arrowleft","16.654999999999387","670.5","339","207","8","1","23","15","25","35","false"
"null","null","psychophysics","423","654197","0.0-3.0-1.206","","key","null","16.655000000000317","670.5","339","","","","","","","",""
"1083.2000000476837","arrowright","psychophysics","424","655284","0.0-3.0-0.207","","key","arrowright","16.6608906249985","670.5","339","208","8","1","26","35","25","35","true"
"null","null","psychophysics","425","656293","0.0-3.0-1.207","","key","null","16.655000000000776","670.5","339","","","","","","","",""
"749.5999999046326","arrowright","psychophysics","426","657047","0.0-3.0-0.208","","key","arrowright","16.654999999998836","670.5","339","209","8","1","25","15","25","35","true"
"null","null","psychophysics","427","658050","0.0-3.0-1.208","","key","null","16.655000000000317","670.5","339","","","","","","","",""
"921.2000000476837","arrowleft","psychophysics","428","658979","0.0-3.0-0.209","","key","arrowleft","16.655000000000424","670.5","339","210","8","-1","26","35","25","35","true"
"null","null","psychophysics","429","659981","0.0-3.0-1.209","","key","null","16.655000000000317","670.5","339","","","","","","","",""
"640.5","arrowleft","psychophysics","430","660629","0.0-3.0-0.210","","key","arrowleft","16.654999999997305","670.5","339","211","8","-1","30","35","25","35","true"
"null","null","psychophysics","431","661633","0.0-3.0-1.210","","key","null","16.655000000000317","670.5","339","","","","","","","",""
"648.3999998569489","arrowleft","psychophysics","432","662299","0.0-3.0-0.211","","key","arrowleft","16.65499999999809","670.5","339","212","8","-1","27","35","25","35","true"
"null","null","psychophysics","433","663302","0.0-3.0-1.211","","key","null","16.655000000000776","670.5","339","","","","","","","",""
"703","arrowright","psychophysics","434","664009","0.0-3.0-0.212","","key","arrowright","16.654999999999546","670.5","339","213","8","1","26","15","25","35","true"
"null","null","psychophysics","435","665011","0.0-3.0-1.212","","key","null","16.661372881357053","670.5","339","","","","","","","",""
"944","arrowright","psychophysics","436","665959","0.0-3.0-0.213","","key","arrowright","16.654999999998836","670.5","339","214","8","-1","20","15","25","35","false"
"null","null","psychophysics","437","666963","0.0-3.0-1.213","","key","null","16.655000000000317","670.5","339","","","","","","","",""
"997.4000000953674","arrowright","psychophysics","438","667969","0.0-3.0-0.214","","key","arrowright","16.654999999998836","670.5","339","215","8","1","25","35","25","35","true"
"null","null","psychophysics","439","668979","0.0-3.0-1.214","","key","null","16.655000000000317","670.5","339","","","","","","","",""
"567.7999999523163","arrowright","psychophysics","440","669555","0.0-3.0-0.215","","key","arrowright","16.65500000000055","670.5","339","216","8","-1","20","35","25","35","false"
"null","null","psychophysics","441","670558","0.0-3.0-1.215","","key","null","16.655000000000317","670.5","339","","","","","","","",""
"959.7000000476837","arrowright","psychophysics","442","671523","0.0-3.0-0.216","","key","arrowright","16.654999999999347","670.5","339","217","8","1","26","35","25","35","true"
"null","null","psychophysics","443","672526","0.0-3.0-1.216","","key","null","16.655000000000317","670.5","339","","","","","","","",""
"652.1000001430511","arrowleft","psychophysics","444","673186","0.0-3.0-0.217","","key","arrowleft","16.655000000001074","670.5","339","218","8","1","20","15","25","35","false"
"null","null","psychophysics","445","674190","0.0-3.0-1.217","","key","null","16.655000000000317","670.5","339","","","","","","","",""
"754.5999999046326","arrowleft","psychophysics","446","674962","0.0-3.0-0.218","","key","arrowleft","16.663173913044613","670.5","339","219","8","1","25","35","25","35","false"
"null","null","psychophysics","447","675964","0.0-3.0-1.218","","key","null","16.655000000000317","670.5","339","","","","","","","",""
"601.3000001907349","arrowright","psychophysics","448","676569","0.0-3.0-0.219","","key","arrowright","16.65500000000133","670.5","339","220","8","-1","20","35","25","35","false"
"null","null","psychophysics","449","677572","0.0-3.0-1.219","","key","null","16.654999999998342","670.5","339","","","","","","","",""
"751.1000001430511","arrowleft","psychophysics","450","678331","0.0-3.0-0.220","","key","arrowleft","16.654999999999482","670.5","339","221","8","1","23","35","25","35","false"
"null","null","psychophysics","451","679335","0.0-3.0-1.220","","key","null","16.655000000000317","670.5","339","","","","","","","",""
"743","arrowleft","psychophysics","452","680086","0.0-3.0-0.221","","key","arrowleft","16.654999999998836","670.5","339","222","8","1","23","35","25","35","false"
"null","null","psychophysics","453","681098","0.0-3.0-1.221","","key","null","16.655000000000776","670.5","339","","","","","","","",""
"698.4000000953674","arrowright","psychophysics","454","681802","0.0-3.0-0.222","","key","arrowright","16.655000000002385","670.5","339","223","8","1","27","35","25","35","true"
"null","null","psychophysics","455","682806","0.0-3.0-1.222","","key","null","16.655000000000776","670.5","339","","","","","","","",""
"964","arrowleft","psychophysics","456","683775","0.0-3.0-0.223","","key","arrowleft","16.654999999999347","670.5","339","224","9","1","23","35","25","35","false"
"null","null","psychophysics","457","684778","0.0-3.0-1.223","","key","null","16.66137288135508","670.5","339","","","","","","","",""
"2695.2999999523163","arrowleft","html-keyboard-response","458","687475","0.0-3.0-2.223-0.223","<div style=""color: white; text-align: center; vertical-align: top; display: inline-block; width: 800px; margin: auto""><p>You have completed 80% of the trials. You are on block 9 of 10. <br>Good job! Take a break if you need to.</p><p>Press any key to continue the experiment.</p></div>","","","","","","","","","","","","",""
"754.8999998569489","arrowright","psychophysics","459","689245","0.0-3.0-0.224","","key","arrowright","16.654999999999482","670.5","339","225","9","1","27","15","25","35","true"
"null","null","psychophysics","460","690247","0.0-3.0-1.224","","key","null","16.654999999998342","670.5","339","","","","","","","",""
"688.8999998569489","arrowright","psychophysics","461","690951","0.0-3.0-0.225","","key","arrowright","16.65500000000022","670.5","339","226","9","-1","23","35","25","35","false"
"null","null","psychophysics","462","691953","0.0-3.0-1.225","","key","null","16.655000000000317","670.5","339","","","","","","","",""
"746.5","arrowright","psychophysics","463","692703","0.0-3.0-0.226","","key","arrowright","16.655000000001483","670.5","339","227","9","1","27","35","25","35","true"
"null","null","psychophysics","464","693706","0.0-3.0-1.226","","key","null","16.655000000000317","670.5","339","","","","","","","",""
"800.2000000476837","arrowright","psychophysics","465","694522","0.0-3.0-0.227","","key","arrowright","16.655000000001262","670.5","339","228","9","1","25","15","25","35","true"
"null","null","psychophysics","466","695524","0.0-3.0-1.227","","key","null","16.661389830508426","670.5","339","","","","","","","",""
"782.4000000953674","arrowright","psychophysics","467","696315","0.0-3.0-0.228","","key","arrowright","16.655000000000694","670.5","339","229","9","-1","24","35","25","35","false"
"null","null","psychophysics","468","697317","0.0-3.0-1.228","","key","null","16.655000000000317","670.5","339","","","","","","","",""
"540","arrowleft","psychophysics","469","697861","0.0-3.0-0.229","","key","arrowleft","16.655000000002474","670.5","339","230","9","-1","26","35","25","35","true"
"null","null","psychophysics","470","698864","0.0-3.0-1.229","","key","null","16.655000000000317","670.5","339","","","","","","","",""
"738.1000001430511","arrowright","psychophysics","471","699606","0.0-3.0-0.230","","key","arrowright","16.655000000000868","670.5","339","231","9","1","27","15","25","35","true"
"null","null","psychophysics","472","700618","0.0-3.0-1.230","","key","null","16.654999999998836","670.5","339","","","","","","","",""
"851.7999999523163","arrowleft","psychophysics","473","701477","0.0-3.0-0.231","","key","arrowleft","16.65500000000055","670.5","339","232","9","-1","27","35","25","35","true"
"null","null","psychophysics","474","702480","0.0-3.0-1.231","","key","null","16.655000000000317","670.5","339","","","","","","","",""
"856.2999999523163","arrowleft","psychophysics","475","703341","0.0-3.0-0.232","","key","arrowleft","16.65500000000055","670.5","339","233","9","-1","25","35","25","35","true"
"null","null","psychophysics","476","704345","0.0-3.0-1.232","","key","null","16.654999999998342","670.5","339","","","","","","","",""
"627.8999998569489","arrowright","psychophysics","477","704978","0.0-3.0-0.233","","key","arrowright","16.665162162163067","670.5","339","234","9","1","30","35","25","35","true"
"null","null","psychophysics","478","705982","0.0-3.0-1.233","","key","null","16.654999999998342","670.5","339","","","","","","","",""
"732.3999998569489","arrowleft","psychophysics","479","706731","0.0-3.0-0.234","","key","arrowleft","16.655000000001483","670.5","339","235","9","-1","24","15","25","35","true"
"null","null","psychophysics","480","707734","0.0-3.0-1.234","","key","null","16.655000000000317","670.5","339","","","","","","","",""
"1070.6000001430511","arrowleft","psychophysics","481","708811","0.0-3.0-0.235","","key","arrowleft","16.655000000000655","670.5","339","236","9","1","25","15","25","35","false"
"null","null","psychophysics","482","709815","0.0-3.0-1.235","","key","null","16.655000000000317","670.5","339","","","","","","","",""
"804.7000000476837","arrowleft","psychophysics","483","710628","0.0-3.0-0.236","","key","arrowleft","16.654999999998836","670.5","339","237","9","1","24","35","25","35","false"
"null","null","psychophysics","484","711631","0.0-3.0-1.236","","key","null","16.655000000000317","670.5","339","","","","","","","",""
"878.3999998569489","arrowleft","psychophysics","485","712550","0.0-3.0-0.237","","key","arrowleft","16.654999999999387","670.5","339","238","9","-1","25","35","25","35","true"
"null","null","psychophysics","486","713551","0.0-3.0-1.237","","key","null","16.654999999998836","670.5","339","","","","","","","",""
"728","arrowright","psychophysics","487","714284","0.0-3.0-0.238","","key","arrowright","16.655000000000868","670.5","339","239","9","1","30","35","25","35","true"
"null","null","psychophysics","488","715286","0.0-3.0-1.238","","key","null","16.661372881357053","670.5","339","","","","","","","",""
"789.4000000953674","arrowleft","psychophysics","489","716080","0.0-3.0-0.239","","key","arrowleft","16.654999999998218","670.5","339","240","9","1","20","15","25","35","false"
"null","null","psychophysics","490","717083","0.0-3.0-1.239","","key","null","16.655000000000317","670.5","339","","","","","","","",""
"1033.0999999046326","arrowleft","psychophysics","491","718120","0.0-3.0-0.240","","key","arrowleft","16.654999999999312","670.5","339","241","9","-1","26","35","25","35","true"
"null","null","psychophysics","492","719132","0.0-3.0-1.240","","key","null","16.654999999998836","670.5","339","","","","","","","",""
"980.5","arrowright","psychophysics","493","720116","0.0-3.0-0.241","","key","arrowright","16.654999999999838","670.5","339","242","9","1","23","15","25","35","true"
"null","null","psychophysics","494","721120","0.0-3.0-1.241","","key","null","16.655000000000317","670.5","339","","","","","","","",""
"891.2999999523163","arrowright","psychophysics","495","722016","0.0-3.0-0.242","","key","arrowright","16.654999999999387","670.5","339","243","9","1","27","35","25","35","true"
"null","null","psychophysics","496","723020","0.0-3.0-1.242","","key","null","16.654999999998342","670.5","339","","","","","","","",""
"224.40000009536743","arrowright","psychophysics","497","723249","0.0-3.0-0.243","","key","arrowright","16.655000000001074","670.5","339","244","9","1","20","35","25","35","true"
"null","null","psychophysics","498","724253","0.0-3.0-1.243","","key","null","16.655000000000317","670.5","339","","","","","","","",""
"1012.3999998569489","arrowright","psychophysics","499","725282","0.0-3.0-0.244","","key","arrowright","16.66116393442632","670.5","339","245","9","1","27","15","25","35","true"
"null","null","psychophysics","500","726285","0.0-3.0-1.244","","key","null","16.655000000000317","670.5","339","","","","","","","",""
"838.9000000953674","arrowleft","psychophysics","501","727128","0.0-3.0-0.245","","key","arrowleft","16.655","670.5","339","246","9","-1","26","15","25","35","true"
"null","null","psychophysics","502","728133","0.0-3.0-1.245","","key","null","16.654999999998342","670.5","339","","","","","","","",""
"1153.5","arrowleft","psychophysics","503","729291","0.0-3.0-0.246","","key","arrowleft","16.655000000000946","670.5","339","247","9","-1","24","15","25","35","true"
"null","null","psychophysics","504","730294","0.0-3.0-1.246","","key","null","16.655000000000317","670.5","339","","","","","","","",""
"597.6000001430511","arrowleft","psychophysics","505","730932","0.0-3.0-0.247","","key","arrowleft","16.654999999998836","670.5","339","248","9","-1","25","15","25","35","true"
"null","null","psychophysics","506","731934","0.0-3.0-1.247","","key","null","16.655000000000317","670.5","339","","","","","","","",""
"731.3000001907349","arrowright","psychophysics","507","732674","0.0-3.0-0.248","","key","arrowright","16.655000000001483","670.5","339","249","9","1","27","15","25","35","true"
"null","null","psychophysics","508","733677","0.0-3.0-1.248","","key","null","16.654999999998342","670.5","339","","","","","","","",""
"1090","arrowleft","psychophysics","509","734774","0.0-3.0-0.249","","key","arrowleft","16.655000000001074","670.5","339","250","9","-1","26","35","25","35","true"
"null","null","psychophysics","510","735776","0.0-3.0-1.249","","key","null","16.661389830508426","670.5","339","","","","","","","",""
"575.0999999046326","arrowleft","psychophysics","511","736357","0.0-3.0-0.250","","key","arrowleft","16.65500000000055","670.5","339","251","9","-1","30","35","25","35","true"
"null","null","psychophysics","512","737371","0.0-3.0-1.250","","key","null","16.654999999998836","670.5","339","","","","","","","",""
"1015.7000000476837","arrowleft","psychophysics","513","738390","0.0-3.0-0.251","","key","arrowleft","16.655000000000776","670.5","339","252","10","1","20","15","25","35","false"
"null","null","psychophysics","514","739394","0.0-3.0-1.251","","key","null","16.654999999998342","670.5","339","","","","","","","",""
"1896.0999999046326","arrowleft","html-keyboard-response","515","741296","0.0-3.0-2.251-0.251","<div style=""color: white; text-align: center; vertical-align: top; display: inline-block; width: 800px; margin: auto""><p>You have completed 90% of the trials. You are on block 10 of 10. <br>Good job! Take a break if you need to.</p><p>Press any key to continue the experiment.</p></div>","","","","","","","","","","","","",""
"734.7999999523163","arrowleft","psychophysics","516","743043","0.0-3.0-0.252","","key","arrowleft","16.655000000001483","670.5","339","253","10","1","20","15","25","35","false"
"null","null","psychophysics","517","744055","0.0-3.0-1.252","","key","null","16.654999999998836","670.5","339","","","","","","","",""
"644.3999998569489","arrowright","psychophysics","518","744705","0.0-3.0-0.253","","key","arrowright","16.655000000000367","670.5","339","254","10","1","30","15","25","35","true"
"null","null","psychophysics","519","745707","0.0-3.0-1.253","","key","null","16.66137288135508","670.5","339","","","","","","","",""
"710","arrowleft","psychophysics","520","746425","0.0-3.0-0.254","","key","arrowleft","16.65500000000022","670.5","339","255","10","1","23","35","25","35","false"
"null","null","psychophysics","521","747428","0.0-3.0-1.254","","key","null","16.655000000000776","670.5","339","","","","","","","",""
"806.5999999046326","arrowleft","psychophysics","522","748239","0.0-3.0-0.255","","key","arrowleft","16.654999999998218","670.5","339","256","10","-1","23","15","25","35","true"
"null","null","psychophysics","523","749241","0.0-3.0-1.255","","key","null","16.655000000000776","670.5","339","","","","","","","",""
"728.5","arrowleft","psychophysics","524","749986","0.0-3.0-0.256","","key","arrowleft","16.654999999998157","670.5","339","257","10","-1","25","15","25","35","true"
"null","null","psychophysics","525","750987","0.0-3.0-1.256","","key","null","16.655000000000317","670.5","339","","","","","","","",""
"995.8999998569489","arrowright","psychophysics","526","751991","0.0-3.0-0.257","","key","arrowright","16.654999999998836","670.5","339","258","10","1","24","15","25","35","true"
"null","null","psychophysics","527","752994","0.0-3.0-1.257","","key","null","16.655000000000317","670.5","339","","","","","","","",""
"749.0999999046326","arrowright","psychophysics","528","753747","0.0-3.0-0.258","","key","arrowright","16.654999999998836","670.5","339","259","10","1","23","15","25","35","true"
"null","null","psychophysics","529","754752","0.0-3.0-1.258","","key","null","16.655000000000317","670.5","339","","","","","","","",""
"1131.5999999046326","arrowleft","psychophysics","530","755892","0.0-3.0-0.259","","key","arrowleft","16.660529411765953","670.5","339","260","10","1","24","35","25","35","false"
"null","null","psychophysics","531","756904","0.0-3.0-1.259","","key","null","16.655000000000776","670.5","339","","","","","","","",""
"765.5","arrowleft","psychophysics","532","757673","0.0-3.0-0.260","","key","arrowleft","16.654999999999482","670.5","339","261","10","-1","25","15","25","35","true"
"null","null","psychophysics","533","758677","0.0-3.0-1.260","","key","null","16.655000000000317","670.5","339","","","","","","","",""
"725.2999999523163","arrowright","psychophysics","534","759408","0.0-3.0-0.261","","key","arrowright","16.655000000000868","670.5","339","262","10","-1","23","35","25","35","false"
"null","null","psychophysics","535","760411","0.0-3.0-1.261","","key","null","16.655000000000317","670.5","339","","","","","","","",""
"791.9000000953674","arrowleft","psychophysics","536","761210","0.0-3.0-0.262","","key","arrowleft","16.655000000000694","670.5","339","263","10","1","23","35","25","35","false"
"null","null","psychophysics","537","762213","0.0-3.0-1.262","","key","null","16.655000000000317","670.5","339","","","","","","","",""
"625.6000001430511","arrowleft","psychophysics","538","762870","0.0-3.0-0.263","","key","arrowleft","17.093289473685314","670.5","339","264","10","1","20","35","25","35","false"
"null","null","psychophysics","539","763873","0.0-3.0-1.263","","key","null","16.655000000000317","670.5","339","","","","","","","",""
"528","arrowright","psychophysics","540","764405","0.0-3.0-0.264","","key","arrowright","16.655000000001653","670.5","339","265","10","-1","20","15","25","35","false"
"null","null","psychophysics","541","765409","0.0-3.0-1.264","","key","null","16.66137288135508","670.5","339","","","","","","","",""
"553.2999999523163","arrowleft","psychophysics","542","765971","0.0-3.0-0.265","","key","arrowleft","16.654999999999717","670.5","339","266","10","-1","27","35","25","35","true"
"null","null","psychophysics","543","766975","0.0-3.0-1.265","","key","null","16.655000000000317","670.5","339","","","","","","","",""
"537.3000001907349","arrowright","psychophysics","544","767521","0.0-3.0-0.266","","key","arrowright","16.655000000002474","670.5","339","267","10","-1","24","35","25","35","false"
"null","null","psychophysics","545","768525","0.0-3.0-1.266","","key","null","16.654999999998342","670.5","339","","","","","","","",""
"549.4000000953674","arrowleft","psychophysics","546","769115","0.0-3.0-0.267","","key","arrowleft","17.14485294117784","670.5","339","268","10","1","27","15","25","35","false"
"null","null","psychophysics","547","770119","0.0-3.0-1.267","","key","null","16.655000000000317","670.5","339","","","","","","","",""
"712.7999999523163","arrowleft","psychophysics","548","770836","0.0-3.0-0.268","","key","arrowleft","16.65500000000022","670.5","339","269","10","-1","30","15","25","35","true"
"null","null","psychophysics","549","771840","0.0-3.0-1.268","","key","null","16.655000000000317","670.5","339","","","","","","","",""
"819.5999999046326","arrowleft","psychophysics","550","772668","0.0-3.0-0.269","","key","arrowleft","16.655000000001806","670.5","339","270","10","1","24","35","25","35","false"
"null","null","psychophysics","551","773670","0.0-3.0-1.269","","key","null","16.655000000000317","670.5","339","","","","","","","",""
"612.2000000476837","arrowleft","psychophysics","552","774291","0.0-3.0-0.270","","key","arrowleft","16.65499999999962","670.5","339","271","10","-1","30","15","25","35","true"
"null","null","psychophysics","553","775304","0.0-3.0-1.270","","key","null","16.66149999999947","670.5","339","","","","","","","",""
"1086.3999998569489","arrowleft","psychophysics","554","776399","0.0-3.0-0.271","","key","arrowleft","16.654999999999283","670.5","339","272","10","-1","27","15","25","35","true"
"null","null","psychophysics","555","777403","0.0-3.0-1.271","","key","null","16.655000000000317","670.5","339","","","","","","","",""
"1234","arrowright","psychophysics","556","778645","0.0-3.0-0.272","","key","arrowright","16.655000000001195","670.5","339","273","10","-1","24","35","25","35","false"
"null","null","psychophysics","557","779649","0.0-3.0-1.272","","key","null","16.655000000000317","670.5","339","","","","","","","",""
"819.7000000476837","arrowright","psychophysics","558","780476","0.0-3.0-0.273","","key","arrowright","16.65499999999943","670.5","339","274","10","1","24","15","25","35","true"
"null","null","psychophysics","559","781488","0.0-3.0-1.273","","key","null","16.655000000000776","670.5","339","","","","","","","",""
"926.7999999523163","arrowleft","psychophysics","560","782419","0.0-3.0-0.274","","key","arrowleft","16.655000000000424","670.5","339","275","10","-1","30","15","25","35","true"
"null","null","psychophysics","561","783421","0.0-3.0-1.274","","key","null","16.655000000000317","670.5","339","","","","","","","",""
"1083.6999998092651","arrowright","psychophysics","562","784509","0.0-3.0-0.275","","key","arrowright","16.654999999998836","670.5","339","276","10","-1","20","15","25","35","false"
"null","null","psychophysics","563","785514","0.0-3.0-1.275","","key","null","16.66137288135508","670.5","339","","","","","","","",""
"818.5999999046326","arrowright","psychophysics","564","786341","0.0-3.0-0.276","","key","arrowright","16.65499999999943","670.5","339","277","10","-1","20","15","25","35","false"
"null","null","psychophysics","565","787353","0.0-3.0-1.276","","key","null","16.655000000000776","670.5","339","","","","","","","",""
"1196.5","arrowleft","psychophysics","566","788557","0.0-3.0-0.277","","key","arrowleft","16.655000000000065","670.5","339","278","10","-1","26","15","25","35","true"
"null","null","psychophysics","567","789561","0.0-3.0-1.277","","key","null","16.655000000000317","670.5","339","","","","","","","",""
"1504.0999999046326","arrowright","psychophysics","568","791074","0.0-3.0-0.278","","key","arrowright","16.654999999999482","670.5","339","279","10","-1","24","35","25","35","false"
"null","null","psychophysics","569","792077","0.0-3.0-1.278","","key","null","16.655000000000776","670.5","339","","","","","","","",""
"617.2999999523163","arrowleft","psychophysics","570","792700","0.0-3.0-0.279","","key","arrowleft","16.65500000000207","670.5","339","280","11","-1","25","15","25","35","true"
"null","null","psychophysics","571","793708","0.0-3.0-1.279","","key","null","16.655000000000317","670.5","339","","","","","","","",""
