"rt","response","trial_type","trial_index","time_elapsed","internal_node_id","stimulus","response_type","key_press","avg_frame_time","center_x","center_y","trial","block","test_pos","test_inner_radius","test_outer_radius","ref_inner_radius","ref_outer_radius","test_bigger"
"355609","{""p_id"":""1114"",""age"":""19"",""handedness"":""right"",""sex"":""female"",""other_sex"":""""}","survey-html-form","0","355596","0.0-0.0","","","","","","","","","","","","","",""
"10295.000000000058"," ","html-keyboard-response","1","365898","0.0-1.0","<p style=""color: white"">Welcome to the Size Judgment Experiment. <br>There will be 10 blocks in this experiment. <br>There will be 28 trials in each block. <br>You will be given a chance to take a break between blocks. <br>Press any key to start the experiment.</p>","","","","","","","","","","","","",""
"23696"," ","psychophysics","2","389627","0.0-2.0","","key"," ","16.655898876404493","720","410","","","","","","","",""
"11195","arrowleft","psychophysics","3","400849","0.0-3.0-0.0","","key","arrowleft","16.647845468053493","720","410","1","1","1","25","15","25","35","false"
"null","null","psychophysics","4","401852","0.0-3.0-1.0","","key","null","16.93220338983051","720","410","","","","","","","",""
"10457","arrowleft","psychophysics","5","412314","0.0-3.0-0.1","","key","arrowleft","16.666134185303516","720","410","2","1","-1","26","35","25","35","true"
"null","null","psychophysics","6","413316","0.0-3.0-1.1","","key","null","16.416666666666668","720","410","","","","","","","",""
"1560","arrowleft","psychophysics","7","414897","0.0-3.0-0.2","","key","arrowleft","16.617021276595743","720","410","3","1","-1","30","15","25","35","true"
"null","null","psychophysics","8","415899","0.0-3.0-1.2","","key","null","16.4","720","410","","","","","","","",""
"6091","arrowright","psychophysics","9","422002","0.0-3.0-0.3","","key","arrowright","16.65846994535519","720","410","4","1","1","26","35","25","35","true"
"null","null","psychophysics","10","423005","0.0-3.0-1.3","","key","null","16.566666666666666","720","410","","","","","","","",""
"2321","arrowleft","psychophysics","11","425329","0.0-3.0-0.4","","key","arrowleft","16.666666666666668","720","410","5","1","-1","24","15","25","35","true"
"null","null","psychophysics","12","426331","0.0-3.0-1.4","","key","null","16.433333333333334","720","410","","","","","","","",""
"1574.9999999999418","arrowright","psychophysics","13","427917","0.0-3.0-0.5","","key","arrowright","16.652631578947368","720","410","6","1","-1","25","35","25","35","false"
"null","null","psychophysics","14","428921","0.0-3.0-1.5","","key","null","16.583333333333332","720","410","","","","","","","",""
"10238","arrowleft","psychophysics","15","439162","0.0-3.0-0.6","","key","arrowleft","16.66557911908646","720","410","7","1","1","24","35","25","35","false"
"null","null","psychophysics","16","440167","0.0-3.0-1.6","","key","null","16.39344262295082","720","410","","","","","","","",""
"2260","arrowleft","psychophysics","17","442430","0.0-3.0-0.7","","key","arrowleft","16.66417910447761","720","410","8","1","1","20","15","25","35","false"
"null","null","psychophysics","18","443431","0.0-3.0-1.7","","key","null","16.4","720","410","","","","","","","",""
"1001","arrowleft","psychophysics","19","444445","0.0-3.0-0.8","","key","arrowleft","16.65","720","410","9","1","1","23","15","25","35","false"
"null","null","psychophysics","20","445448","0.0-3.0-1.8","","key","null","16.383333333333333","720","410","","","","","","","",""
"1849","arrowleft","psychophysics","21","447312","0.0-3.0-0.9","","key","arrowleft","16.64864864864865","720","410","10","1","-1","23","15","25","35","true"
"null","null","psychophysics","22","448315","0.0-3.0-1.9","","key","null","16.416666666666668","720","410","","","","","","","",""
"851","arrowleft","psychophysics","23","449179","0.0-3.0-0.10","","key","arrowleft","16.647058823529413","720","410","11","1","-1","23","15","25","35","true"
"null","null","psychophysics","24","450182","0.0-3.0-1.10","","key","null","16.4","720","410","","","","","","","",""
"690.9999999999418","arrowright","psychophysics","25","450896","0.0-3.0-0.11","","key","arrowright","16.523809523809526","720","410","12","1","-1","25","35","25","35","false"
"null","null","psychophysics","26","451897","0.0-3.0-1.11","","key","null","16.4","720","410","","","","","","","",""
"642","arrowright","psychophysics","27","452552","0.0-3.0-0.12","","key","arrowright","16.615384615384617","720","410","13","1","1","20","15","25","35","true"
"null","null","psychophysics","28","453554","0.0-3.0-1.12","","key","null","16.55","720","410","","","","","","","",""
"595","arrowleft","psychophysics","29","454152","0.0-3.0-0.13","","key","arrowleft","16.65714285714286","720","410","14","1","-1","20","35","25","35","true"
"null","null","psychophysics","30","455154","0.0-3.0-1.13","","key","null","16.583333333333332","720","410","","","","","","","",""
"2210","arrowright","psychophysics","31","457367","0.0-3.0-0.14","","key","arrowright","16.666666666666668","720","410","15","1","-1","24","35","25","35","false"
"null","null","psychophysics","32","458372","0.0-3.0-1.14","","key","null","16.533333333333335","720","410","","","","","","","",""
"1612","arrowleft","psychophysics","33","459988","0.0-3.0-0.15","","key","arrowleft","16.65625","720","410","16","1","1","23","35","25","35","false"
"null","null","psychophysics","34","460990","0.0-3.0-1.15","","key","null","16.516666666666666","720","410","","","","","","","",""
"1007","arrowright","psychophysics","35","462001","0.0-3.0-0.16","","key","arrowright","16.65","720","410","17","1","1","27","15","25","35","true"
"null","null","psychophysics","36","463003","0.0-3.0-1.16","","key","null","16.583333333333332","720","410","","","","","","","",""
"866","arrowright","psychophysics","37","463875","0.0-3.0-0.17","","key","arrowright","16.647058823529413","720","410","18","1","1","30","35","25","35","true"
"null","null","psychophysics","38","464876","0.0-3.0-1.17","","key","null","16.45","720","410","","","","","","","",""
"953","arrowleft","psychophysics","39","465832","0.0-3.0-0.18","","key","arrowleft","16.649122807017545","720","410","19","1","1","20","15","25","35","false"
"null","null","psychophysics","40","466834","0.0-3.0-1.18","","key","null","16.6","720","410","","","","","","","",""
"592","arrowright","psychophysics","41","467429","0.0-3.0-0.19","","key","arrowright","16.647058823529413","720","410","20","1","1","26","35","25","35","true"
"null","null","psychophysics","42","468431","0.0-3.0-1.19","","key","null","16.383333333333333","720","410","","","","","","","",""
"722.9999999999418","arrowright","psychophysics","43","469170","0.0-3.0-0.20","","key","arrowright","16.568181818181817","720","410","21","1","-1","20","15","25","35","false"
"null","null","psychophysics","44","470172","0.0-3.0-1.20","","key","null","16.533333333333335","720","410","","","","","","","",""
"553","arrowleft","psychophysics","45","470729","0.0-3.0-0.21","","key","arrowleft","16.6875","720","410","22","1","-1","26","15","25","35","true"
"null","null","psychophysics","46","471730","0.0-3.0-1.21","","key","null","16.383333333333333","720","410","","","","","","","",""
"599","arrowright","psychophysics","47","472342","0.0-3.0-0.22","","key","arrowright","16.583333333333332","720","410","23","1","1","30","15","25","35","true"
"null","null","psychophysics","48","473345","0.0-3.0-1.22","","key","null","16.433333333333334","720","410","","","","","","","",""
"589","arrowleft","psychophysics","49","473946","0.0-3.0-0.23","","key","arrowleft","16.685714285714287","720","410","24","1","-1","30","35","25","35","true"
"null","null","psychophysics","50","474949","0.0-3.0-1.23","","key","null","16.360655737704917","720","410","","","","","","","",""
"563","arrowright","psychophysics","51","475515","0.0-3.0-0.24","","key","arrowright","16.636363636363637","720","410","25","1","1","30","35","25","35","true"
"null","null","psychophysics","52","476517","0.0-3.0-1.24","","key","null","16.616666666666667","720","410","","","","","","","",""
"775","arrowleft","psychophysics","53","477295","0.0-3.0-0.25","","key","arrowleft","16.666666666666668","720","410","26","1","-1","30","35","25","35","true"
"null","null","psychophysics","54","478297","0.0-3.0-1.25","","key","null","16.366666666666667","720","410","","","","","","","",""
"623.9999999999418","arrowright","psychophysics","55","478933","0.0-3.0-0.26","","key","arrowright","16.57894736842105","720","410","27","1","1","25","15","25","35","true"
"null","null","psychophysics","56","479935","0.0-3.0-1.26","","key","null","16.6","720","410","","","","","","","",""
"2395.999999999942","arrowleft","psychophysics","57","482337","0.0-3.0-0.27","","key","arrowleft","16.67132867132867","720","410","28","2","-1","20","15","25","35","true"
"null","null","psychophysics","58","483339","0.0-3.0-1.27","","key","null","16.5","720","410","","","","","","","",""
"3515"," ","html-keyboard-response","59","486856","0.0-3.0-2.27-0.27","<div style=""color: white; text-align: center; vertical-align: top; display: inline-block; width: 800px; margin: auto""><p>You have completed 10% of the trials. You are on block 2 of 10. <br>Good job! Take a break if you need to.</p><p>Press any key to continue the experiment.</p></div>","","","","","","","","","","","","",""
"988","arrowright","psychophysics","60","488852","0.0-3.0-0.28","","key","arrowright","20.76595744680851","720","410","29","2","1","25","35","25","35","true"
"null","null","psychophysics","61","489853","0.0-3.0-1.28","","key","null","16.74576271186441","720","410","","","","","","","",""
"559","arrowright","psychophysics","62","490415","0.0-3.0-0.29","","key","arrowright","20.846153846153847","720","410","30","2","-1","24","35","25","35","false"
"null","null","psychophysics","63","491417","0.0-3.0-1.29","","key","null","16.55","720","410","","","","","","","",""
"608.9999999999418","arrowleft","psychophysics","64","492031","0.0-3.0-0.30","","key","arrowleft","20.066666666666666","720","410","31","2","-1","20","15","25","35","true"
"null","null","psychophysics","65","493033","0.0-3.0-1.30","","key","null","21.26086956521739","720","410","","","","","","","",""
"875","arrowleft","psychophysics","66","493926","0.0-3.0-0.31","","key","arrowleft","16.78846153846154","720","410","32","2","-1","25","35","25","35","true"
"null","null","psychophysics","67","494928","0.0-3.0-1.31","","key","null","16.360655737704917","720","410","","","","","","","",""
"1896","arrowright","psychophysics","68","496826","0.0-3.0-0.32","","key","arrowright","20.681318681318682","720","410","33","2","-1","24","35","25","35","false"
"null","null","psychophysics","69","497828","0.0-3.0-1.32","","key","null","16.779661016949152","720","410","","","","","","","",""
"658","arrowright","psychophysics","70","498489","0.0-3.0-0.33","","key","arrowright","16.58974358974359","720","410","34","2","1","25","35","25","35","true"
"null","null","psychophysics","71","499495","0.0-3.0-1.33","","key","null","16.466666666666665","720","410","","","","","","","",""
"570","arrowright","psychophysics","72","500067","0.0-3.0-0.34","","key","arrowright","16.647058823529413","720","410","35","2","1","26","35","25","35","true"
"null","null","psychophysics","73","501070","0.0-3.0-1.34","","key","null","16.583333333333332","720","410","","","","","","","",""
"599","arrowright","psychophysics","74","501672","0.0-3.0-0.35","","key","arrowright","20.785714285714285","720","410","36","2","-1","20","35","25","35","false"
"null","null","psychophysics","75","502674","0.0-3.0-1.35","","key","null","21.04255319148936","720","410","","","","","","","",""
"762","arrowright","psychophysics","76","503439","0.0-3.0-0.36","","key","arrowright","16.931818181818183","720","410","37","2","1","27","15","25","35","true"
"null","null","psychophysics","77","504440","0.0-3.0-1.36","","key","null","16.433333333333334","720","410","","","","","","","",""
"607.0000000000582","arrowright","psychophysics","78","505065","0.0-3.0-0.37","","key","arrowright","16.594594594594593","720","410","38","2","1","30","35","25","35","true"
"null","null","psychophysics","79","506067","0.0-3.0-1.37","","key","null","16.5","720","410","","","","","","","",""
"728.9999999999418","arrowleft","psychophysics","80","506799","0.0-3.0-0.38","","key","arrowleft","20.228571428571428","720","410","39","2","-1","30","35","25","35","true"
"null","null","psychophysics","81","507801","0.0-3.0-1.38","","key","null","20.97872340425532","720","410","","","","","","","",""
"618","arrowright","psychophysics","82","508422","0.0-3.0-0.39","","key","arrowright","17","720","410","40","2","-1","26","35","25","35","false"
"null","null","psychophysics","83","509424","0.0-3.0-1.39","","key","null","16.19672131147541","720","410","","","","","","","",""
"587","arrowleft","psychophysics","84","510013","0.0-3.0-0.40","","key","arrowleft","16.542857142857144","720","410","41","2","-1","26","15","25","35","true"
"null","null","psychophysics","85","511019","0.0-3.0-1.40","","key","null","16.5","720","410","","","","","","","",""
"583","arrowleft","psychophysics","86","511604","0.0-3.0-0.41","","key","arrowleft","19.133333333333333","720","410","42","2","-1","26","15","25","35","true"
"null","null","psychophysics","87","512606","0.0-3.0-1.41","","key","null","22.066666666666666","720","410","","","","","","","",""
"498.0000000000582","arrowright","psychophysics","88","513107","0.0-3.0-0.42","","key","arrowright","16.821428571428573","720","410","43","2","-1","23","35","25","35","false"
"null","null","psychophysics","89","514109","0.0-3.0-1.42","","key","null","16.37704918032787","720","410","","","","","","","",""
"323.9999999999418","arrowleft","psychophysics","90","514435","0.0-3.0-0.43","","key","arrowleft","16.72222222222222","720","410","44","2","-1","30","35","25","35","true"
"null","null","psychophysics","91","515437","0.0-3.0-1.43","","key","null","16.147540983606557","720","410","","","","","","","",""
"299.9999999999418","arrowright","psychophysics","92","515763","0.0-3.0-0.44","","key","arrowright","18.58823529411765","720","410","45","2","1","25","15","25","35","true"
"null","null","psychophysics","93","516765","0.0-3.0-1.44","","key","null","22.636363636363637","720","410","","","","","","","",""
"987","arrowright","psychophysics","94","517754","0.0-3.0-0.45","","key","arrowright","16.655172413793103","720","410","46","2","1","20","15","25","35","true"
"null","null","psychophysics","95","518756","0.0-3.0-1.45","","key","null","16.533333333333335","720","410","","","","","","","",""
"603.0000000000582","arrowright","psychophysics","96","519362","0.0-3.0-0.46","","key","arrowright","16.555555555555557","720","410","47","2","-1","27","35","25","35","false"
"null","null","psychophysics","97","520364","0.0-3.0-1.46","","key","null","16.6","720","410","","","","","","","",""
"640.9999999999418","arrowright","psychophysics","98","521007","0.0-3.0-0.47","","key","arrowright","20.933333333333334","720","410","48","2","1","26","15","25","35","true"
"null","null","psychophysics","99","522012","0.0-3.0-1.47","","key","null","22.044444444444444","720","410","","","","","","","",""
"943.9999999999418","arrowright","psychophysics","100","522960","0.0-3.0-0.48","","key","arrowright","16.660714285714285","720","410","49","2","-1","20","35","25","35","false"
"null","null","psychophysics","101","523961","0.0-3.0-1.48","","key","null","16.583333333333332","720","410","","","","","","","",""
"727","arrowright","psychophysics","102","524690","0.0-3.0-0.49","","key","arrowright","16.558139534883722","720","410","50","2","1","26","15","25","35","true"
"null","null","psychophysics","103","525691","0.0-3.0-1.49","","key","null","16.633333333333333","720","410","","","","","","","",""
"511","arrowleft","psychophysics","104","526205","0.0-3.0-0.50","","key","arrowleft","20.333333333333332","720","410","51","2","-1","27","15","25","35","true"
"null","null","psychophysics","105","527208","0.0-3.0-1.50","","key","null","21.282608695652176","720","410","","","","","","","",""
"1403","arrowright","psychophysics","106","528628","0.0-3.0-0.51","","key","arrowright","16.576470588235296","720","410","52","2","1","27","35","25","35","true"
"null","null","psychophysics","107","529630","0.0-3.0-1.51","","key","null","16.566666666666666","720","410","","","","","","","",""
"510","arrowleft","psychophysics","108","530142","0.0-3.0-0.52","","key","arrowleft","16.366666666666667","720","410","53","2","-1","25","15","25","35","true"
"null","null","psychophysics","109","531143","0.0-3.0-1.52","","key","null","16.466666666666665","720","410","","","","","","","",""
"540","arrowleft","psychophysics","110","531685","0.0-3.0-0.53","","key","arrowleft","19.071428571428573","720","410","54","2","-1","26","15","25","35","true"
"null","null","psychophysics","111","532687","0.0-3.0-1.53","","key","null","21.434782608695652","720","410","","","","","","","",""
"479","arrowright","psychophysics","112","533168","0.0-3.0-0.54","","key","arrowright","16.642857142857142","720","410","55","2","1","23","35","25","35","true"
"null","null","psychophysics","113","534174","0.0-3.0-1.54","","key","null","16.466666666666665","720","410","","","","","","","",""
"468","arrowleft","psychophysics","114","534645","0.0-3.0-0.55","","key","arrowleft","16.607142857142858","720","410","56","3","-1","20","35","25","35","true"
"null","null","psychophysics","115","535647","0.0-3.0-1.55","","key","null","16.566666666666666","720","410","","","","","","","",""
"1683.0000000001164"," ","html-keyboard-response","116","537331","0.0-3.0-2.55-0.55","<div style=""color: white; text-align: center; vertical-align: top; display: inline-block; width: 800px; margin: auto""><p>You have completed 20% of the trials. You are on block 3 of 10. <br>Good job! Take a break if you need to.</p><p>Press any key to continue the experiment.</p></div>","","","","","","","","","","","","",""
"796","arrowleft","psychophysics","117","539131","0.0-3.0-0.56","","key","arrowleft","20.42105263157895","720","410","57","3","-1","30","15","25","35","true"
"null","null","psychophysics","118","540136","0.0-3.0-1.56","","key","null","16.694915254237287","720","410","","","","","","","",""
"526.0000000001164","arrowleft","psychophysics","119","540687","0.0-3.0-0.57","","key","arrowleft","19.25","720","410","58","3","-1","27","15","25","35","true"
"null","null","psychophysics","120","541689","0.0-3.0-1.57","","key","null","21.127659574468087","720","410","","","","","","","",""
"398","arrowright","psychophysics","121","542088","0.0-3.0-0.58","","key","arrowright","16.818181818181817","720","410","59","3","1","24","15","25","35","true"
"null","null","psychophysics","122","543090","0.0-3.0-1.58","","key","null","16.327868852459016","720","410","","","","","","","",""
"688","arrowright","psychophysics","123","543780","0.0-3.0-0.59","","key","arrowright","16.625","720","410","60","3","-1","23","35","25","35","false"
"null","null","psychophysics","124","544782","0.0-3.0-1.59","","key","null","16.383333333333333","720","410","","","","","","","",""
"541","arrowright","psychophysics","125","545347","0.0-3.0-0.60","","key","arrowright","19.103448275862068","720","410","61","3","1","23","15","25","35","true"
"null","null","psychophysics","126","546350","0.0-3.0-1.60","","key","null","21.25531914893617","720","410","","","","","","","",""
"519","arrowleft","psychophysics","127","546871","0.0-3.0-0.61","","key","arrowleft","16.566666666666666","720","410","62","3","-1","30","15","25","35","true"
"null","null","psychophysics","128","547873","0.0-3.0-1.61","","key","null","16.533333333333335","720","410","","","","","","","",""
"520","arrowleft","psychophysics","129","548396","0.0-3.0-0.62","","key","arrowleft","16.633333333333333","720","410","63","3","-1","25","15","25","35","true"
"null","null","psychophysics","130","549398","0.0-3.0-1.62","","key","null","19.88","720","410","","","","","","","",""
"452","arrowright","psychophysics","131","549853","0.0-3.0-0.63","","key","arrowright","16.73076923076923","720","410","64","3","-1","26","35","25","35","false"
"null","null","psychophysics","132","550855","0.0-3.0-1.63","","key","null","16.55","720","410","","","","","","","",""
"886","arrowright","psychophysics","133","551747","0.0-3.0-0.64","","key","arrowright","16.884615384615383","720","410","65","3","1","24","35","25","35","true"
"null","null","psychophysics","134","552749","0.0-3.0-1.64","","key","null","21.77777777777778","720","410","","","","","","","",""
"763","arrowleft","psychophysics","135","553515","0.0-3.0-0.65","","key","arrowleft","16.91111111111111","720","410","66","3","1","20","35","25","35","false"
"null","null","psychophysics","136","554517","0.0-3.0-1.65","","key","null","16.55","720","410","","","","","","","",""
"476","arrowleft","psychophysics","137","554996","0.0-3.0-0.66","","key","arrowleft","16.642857142857142","720","410","67","3","-1","27","15","25","35","true"
"null","null","psychophysics","138","555998","0.0-3.0-1.66","","key","null","16.583333333333332","720","410","","","","","","","",""
"406.0000000001164","arrowright","psychophysics","139","556408","0.0-3.0-0.67","","key","arrowright","16.458333333333332","720","410","68","3","1","24","15","25","35","true"
"null","null","psychophysics","140","557413","0.0-3.0-1.67","","key","null","16.533333333333335","720","410","","","","","","","",""
"911","arrowleft","psychophysics","141","558328","0.0-3.0-0.68","","key","arrowleft","20.34090909090909","720","410","69","3","1","24","35","25","35","false"
"null","null","psychophysics","142","559330","0.0-3.0-1.68","","key","null","16.677966101694917","720","410","","","","","","","",""
"448","arrowright","psychophysics","143","559792","0.0-3.0-0.69","","key","arrowright","16.40740740740741","720","410","70","3","-1","24","35","25","35","false"
"null","null","psychophysics","144","560794","0.0-3.0-1.69","","key","null","16.4","720","410","","","","","","","",""
"494","arrowright","psychophysics","145","561303","0.0-3.0-0.70","","key","arrowright","19.96","720","410","71","3","1","27","35","25","35","true"
"null","null","psychophysics","146","562304","0.0-3.0-1.70","","key","null","20.851063829787233","720","410","","","","","","","",""
"512","arrowleft","psychophysics","147","562834","0.0-3.0-0.71","","key","arrowleft","16.516129032258064","720","410","72","3","1","27","35","25","35","false"
"null","null","psychophysics","148","563836","0.0-3.0-1.71","","key","null","16.4","720","410","","","","","","","",""
"680","arrowright","psychophysics","149","564530","0.0-3.0-0.72","","key","arrowright","16.5609756097561","720","410","73","3","1","27","35","25","35","true"
"null","null","psychophysics","150","565533","0.0-3.0-1.72","","key","null","16.39344262295082","720","410","","","","","","","",""
"645","arrowright","psychophysics","151","566180","0.0-3.0-0.73","","key","arrowright","20.9","720","410","74","3","1","30","35","25","35","true"
"null","null","psychophysics","152","567182","0.0-3.0-1.73","","key","null","20.306122448979593","720","410","","","","","","","",""
"523","arrowright","psychophysics","153","567708","0.0-3.0-0.74","","key","arrowright","16.9","720","410","75","3","-1","23","15","25","35","false"
"null","null","psychophysics","154","568714","0.0-3.0-1.74","","key","null","16.5","720","410","","","","","","","",""
"602","arrowleft","psychophysics","155","569319","0.0-3.0-0.75","","key","arrowleft","20.24137931034483","720","410","76","3","-1","25","35","25","35","true"
"null","null","psychophysics","156","570321","0.0-3.0-1.75","","key","null","20.040816326530614","720","410","","","","","","","",""
"462","arrowright","psychophysics","157","570785","0.0-3.0-0.76","","key","arrowright","18.541666666666668","720","410","77","3","1","27","15","25","35","true"
"null","null","psychophysics","158","571788","0.0-3.0-1.76","","key","null","16.533333333333335","720","410","","","","","","","",""
"593.0000000001164","arrowright","psychophysics","159","572383","0.0-3.0-0.77","","key","arrowright","20.137931034482758","720","410","78","3","-1","24","35","25","35","false"
"null","null","psychophysics","160","573384","0.0-3.0-1.77","","key","null","19.076923076923077","720","410","","","","","","","",""
"535","arrowright","psychophysics","161","573924","0.0-3.0-0.78","","key","arrowright","16.677419354838708","720","410","79","3","1","25","15","25","35","true"
"null","null","psychophysics","162","574927","0.0-3.0-1.78","","key","null","16.45","720","410","","","","","","","",""
"322","arrowright","psychophysics","163","575265","0.0-3.0-0.79","","key","arrowright","16.65","720","410","80","3","-1","25","15","25","35","false"
"null","null","psychophysics","164","576267","0.0-3.0-1.79","","key","null","16.566666666666666","720","410","","","","","","","",""
"1046","arrowleft","psychophysics","165","577318","0.0-3.0-0.80","","key","arrowleft","21.163265306122447","720","410","81","3","-1","26","35","25","35","true"
"null","null","psychophysics","166","578320","0.0-3.0-1.80","","key","null","16.71186440677966","720","410","","","","","","","",""
"460","arrowright","psychophysics","167","578782","0.0-3.0-0.81","","key","arrowright","16.59259259259259","720","410","82","3","1","26","15","25","35","true"
"null","null","psychophysics","168","579788","0.0-3.0-1.81","","key","null","16.39344262295082","720","410","","","","","","","",""
"782","arrowright","psychophysics","169","580573","0.0-3.0-0.82","","key","arrowright","16.695652173913043","720","410","83","3","-1","20","35","25","35","false"
"null","null","psychophysics","170","581575","0.0-3.0-1.82","","key","null","16.616666666666667","720","410","","","","","","","",""
"519","arrowright","psychophysics","171","582097","0.0-3.0-0.83","","key","arrowright","20.2","720","410","84","4","1","30","35","25","35","true"
"null","null","psychophysics","172","583100","0.0-3.0-1.83","","key","null","16.694915254237287","720","410","","","","","","","",""
"996"," ","html-keyboard-response","173","584097","0.0-3.0-2.83-0.83","<div style=""color: white; text-align: center; vertical-align: top; display: inline-block; width: 800px; margin: auto""><p>You have completed 30% of the trials. You are on block 4 of 10. <br>Good job! Take a break if you need to.</p><p>Press any key to continue the experiment.</p></div>","","","","","","","","","","","","",""
"871","arrowleft","psychophysics","174","585975","0.0-3.0-0.84","","key","arrowleft","16.607843137254903","720","410","85","4","1","20","15","25","35","false"
"null","null","psychophysics","175","586977","0.0-3.0-1.84","","key","null","16.583333333333332","720","410","","","","","","","",""
"1049","arrowleft","psychophysics","176","588029","0.0-3.0-0.85","","key","arrowleft","20.48","720","410","86","4","1","20","35","25","35","false"
"null","null","psychophysics","177","589030","0.0-3.0-1.85","","key","null","16.633333333333333","720","410","","","","","","","",""
"529","arrowright","psychophysics","178","589562","0.0-3.0-0.86","","key","arrowright","16.612903225806452","720","410","87","4","-1","26","15","25","35","false"
"null","null","psychophysics","179","590567","0.0-3.0-1.86","","key","null","16.533333333333335","720","410","","","","","","","",""
"553","arrowleft","psychophysics","180","591123","0.0-3.0-0.87","","key","arrowleft","16.6875","720","410","88","4","-1","27","15","25","35","true"
"null","null","psychophysics","181","592125","0.0-3.0-1.87","","key","null","16.295081967213115","720","410","","","","","","","",""
"2427.0000000001164","arrowright","psychophysics","182","594555","0.0-3.0-0.88","","key","arrowright","22.009174311926607","720","410","89","4","-1","24","35","25","35","false"
"null","null","psychophysics","183","595557","0.0-3.0-1.88","","key","null","16.4","720","410","","","","","","","",""
"1487","arrowright","psychophysics","184","597068","0.0-3.0-0.89","","key","arrowright","21.4","720","410","90","4","1","24","15","25","35","true"
"null","null","psychophysics","185","598069","0.0-3.0-1.89","","key","null","16.677966101694917","720","410","","","","","","","",""
"1959","arrowright","psychophysics","186","600040","0.0-3.0-0.90","","key","arrowright","16.652542372881356","720","410","91","4","-1","23","35","25","35","false"
"null","null","psychophysics","187","601042","0.0-3.0-1.90","","key","null","16.566666666666666","720","410","","","","","","","",""
"720","arrowright","psychophysics","188","601769","0.0-3.0-0.91","","key","arrowright","20.38235294117647","720","410","92","4","1","23","15","25","35","true"
"null","null","psychophysics","189","602770","0.0-3.0-1.91","","key","null","20.583333333333332","720","410","","","","","","","",""
"1115","arrowleft","psychophysics","190","603888","0.0-3.0-0.92","","key","arrowleft","16.560606060606062","720","410","93","4","-1","27","15","25","35","true"
"null","null","psychophysics","191","604889","0.0-3.0-1.92","","key","null","16.466666666666665","720","410","","","","","","","",""
"1963","arrowleft","psychophysics","192","606854","0.0-3.0-0.93","","key","arrowleft","21.417582417582416","720","410","94","4","1","23","35","25","35","false"
"null","null","psychophysics","193","607860","0.0-3.0-1.93","","key","null","16.93220338983051","720","410","","","","","","","",""
"2707","arrowright","psychophysics","194","610570","0.0-3.0-0.94","","key","arrowright","22.720338983050848","720","410","95","4","1","26","15","25","35","true"
"null","null","psychophysics","195","611573","0.0-3.0-1.94","","key","null","16.694915254237287","720","410","","","","","","","",""
"1284","arrowright","psychophysics","196","612871","0.0-3.0-0.95","","key","arrowright","16.766233766233768","720","410","96","4","1","26","35","25","35","true"
"null","null","psychophysics","197","613876","0.0-3.0-1.95","","key","null","16.5","720","410","","","","","","","",""
"966","arrowleft","psychophysics","198","614845","0.0-3.0-0.96","","key","arrowleft","20.717391304347824","720","410","97","4","1","20","15","25","35","false"
"null","null","psychophysics","199","615846","0.0-3.0-1.96","","key","null","21.369565217391305","720","410","","","","","","","",""
"769","arrowright","psychophysics","200","616618","0.0-3.0-0.97","","key","arrowright","20.63888888888889","720","410","98","4","1","27","35","25","35","true"
"null","null","psychophysics","201","617620","0.0-3.0-1.97","","key","null","16.65","720","410","","","","","","","",""
"945","arrowright","psychophysics","202","618567","0.0-3.0-0.98","","key","arrowright","21.904761904761905","720","410","99","4","-1","23","15","25","35","false"
"null","null","psychophysics","203","619573","0.0-3.0-1.98","","key","null","16.616666666666667","720","410","","","","","","","",""
"1089","arrowleft","psychophysics","204","620664","0.0-3.0-0.99","","key","arrowleft","16.65625","720","410","100","4","-1","27","35","25","35","true"
"null","null","psychophysics","205","621668","0.0-3.0-1.99","","key","null","16.37704918032787","720","410","","","","","","","",""
"1421","arrowright","psychophysics","206","623092","0.0-3.0-0.100","","key","arrowright","16.529411764705884","720","410","101","4","-1","23","15","25","35","false"
"null","null","psychophysics","207","624094","0.0-3.0-1.100","","key","null","16.6","720","410","","","","","","","",""
"825","arrowleft","psychophysics","208","624922","0.0-3.0-0.101","","key","arrowleft","20.894736842105264","720","410","102","4","1","26","35","25","35","false"
"null","null","psychophysics","209","625928","0.0-3.0-1.101","","key","null","16.37704918032787","720","410","","","","","","","",""
"474.0000000001164","arrowright","psychophysics","210","626404","0.0-3.0-0.102","","key","arrowright","16.62962962962963","720","410","103","4","1","26","35","25","35","true"
"null","null","psychophysics","211","627407","0.0-3.0-1.102","","key","null","16.37704918032787","720","410","","","","","","","",""
"787","arrowleft","psychophysics","212","628196","0.0-3.0-0.103","","key","arrowleft","16.67391304347826","720","410","104","4","-1","20","15","25","35","true"
"null","null","psychophysics","213","629199","0.0-3.0-1.103","","key","null","16.5","720","410","","","","","","","",""
"774","arrowleft","psychophysics","214","629975","0.0-3.0-0.104","","key","arrowleft","20.77777777777778","720","410","105","4","1","20","35","25","35","false"
"null","null","psychophysics","215","630976","0.0-3.0-1.104","","key","null","21.23404255319149","720","410","","","","","","","",""
"627","arrowleft","psychophysics","216","631609","0.0-3.0-0.105","","key","arrowleft","16.944444444444443","720","410","106","4","-1","30","15","25","35","true"
"null","null","psychophysics","217","632611","0.0-3.0-1.105","","key","null","16.55","720","410","","","","","","","",""
"666.0000000001164","arrowleft","psychophysics","218","633279","0.0-3.0-0.106","","key","arrowleft","16.743589743589745","720","410","107","4","-1","27","15","25","35","true"
"null","null","psychophysics","219","634281","0.0-3.0-1.106","","key","null","16.45","720","410","","","","","","","",""
"520","arrowleft","psychophysics","220","634804","0.0-3.0-0.107","","key","arrowleft","20.64","720","410","108","4","-1","30","35","25","35","true"
"null","null","psychophysics","221","635806","0.0-3.0-1.107","","key","null","16.728813559322035","720","410","","","","","","","",""
"733","arrowleft","psychophysics","222","636554","0.0-3.0-0.108","","key","arrowleft","20.685714285714287","720","410","109","4","1","20","35","25","35","false"
"null","null","psychophysics","223","637560","0.0-3.0-1.108","","key","null","19.096153846153847","720","410","","","","","","","",""
"515","arrowright","psychophysics","224","638078","0.0-3.0-0.109","","key","arrowright","20.791666666666668","720","410","110","4","-1","23","35","25","35","false"
"null","null","psychophysics","225","639080","0.0-3.0-1.109","","key","null","16.677966101694917","720","410","","","","","","","",""
"552","arrowleft","psychophysics","226","639635","0.0-3.0-0.110","","key","arrowleft","16.515151515151516","720","410","111","4","-1","30","35","25","35","true"
"null","null","psychophysics","227","640638","0.0-3.0-1.110","","key","null","16.516666666666666","720","410","","","","","","","",""
"577","arrowleft","psychophysics","228","641217","0.0-3.0-0.111","","key","arrowleft","20.22222222222222","720","410","112","5","1","25","15","25","35","false"
"null","null","psychophysics","229","642220","0.0-3.0-1.111","","key","null","19.54901960784314","720","410","","","","","","","",""
"1078"," ","html-keyboard-response","230","643300","0.0-3.0-2.111-0.111","<div style=""color: white; text-align: center; vertical-align: top; display: inline-block; width: 800px; margin: auto""><p>You have completed 40% of the trials. You are on block 5 of 10. <br>Good job! Take a break if you need to.</p><p>Press any key to continue the experiment.</p></div>","","","","","","","","","","","","",""
"866","arrowleft","psychophysics","231","645175","0.0-3.0-0.112","","key","arrowleft","16.56","720","410","113","5","-1","30","35","25","35","true"
"null","null","psychophysics","232","646177","0.0-3.0-1.112","","key","null","16.360655737704917","720","410","","","","","","","",""
"715","arrowright","psychophysics","233","646895","0.0-3.0-0.113","","key","arrowright","16.666666666666668","720","410","114","5","-1","25","35","25","35","false"
"null","null","psychophysics","234","647897","0.0-3.0-1.113","","key","null","16.6","720","410","","","","","","","",""
"594","arrowleft","psychophysics","235","648493","0.0-3.0-0.114","","key","arrowleft","21.25925925925926","720","410","115","5","-1","30","35","25","35","true"
"null","null","psychophysics","236","649495","0.0-3.0-1.114","","key","null","16.616666666666667","720","410","","","","","","","",""
"668","arrowleft","psychophysics","237","650168","0.0-3.0-0.115","","key","arrowleft","16.666666666666668","720","410","116","5","-1","23","35","25","35","true"
"null","null","psychophysics","238","651170","0.0-3.0-1.115","","key","null","16.76271186440678","720","410","","","","","","","",""
"512","arrowright","psychophysics","239","651686","0.0-3.0-0.116","","key","arrowright","16.233333333333334","720","410","117","5","1","27","15","25","35","true"
"null","null","psychophysics","240","652687","0.0-3.0-1.116","","key","null","21.06382978723404","720","410","","","","","","","",""
"655.0000000001164","arrowright","psychophysics","241","653345","0.0-3.0-0.117","","key","arrowright","16.605263157894736","720","410","118","5","1","30","15","25","35","true"
"null","null","psychophysics","242","654348","0.0-3.0-1.117","","key","null","16.360655737704917","720","410","","","","","","","",""
"698","arrowright","psychophysics","243","655049","0.0-3.0-0.118","","key","arrowright","16.585365853658537","720","410","119","5","-1","25","35","25","35","false"
"null","null","psychophysics","244","656055","0.0-3.0-1.118","","key","null","21.04255319148936","720","410","","","","","","","",""
"632","arrowright","psychophysics","245","656690","0.0-3.0-0.119","","key","arrowright","16.944444444444443","720","410","120","5","1","25","35","25","35","true"
"null","null","psychophysics","246","657692","0.0-3.0-1.119","","key","null","16.37704918032787","720","410","","","","","","","",""
"977.0000000001164","arrowright","psychophysics","247","658672","0.0-3.0-0.120","","key","arrowright","19.285714285714285","720","410","121","5","-1","26","35","25","35","false"
"null","null","psychophysics","248","659674","0.0-3.0-1.120","","key","null","21.19148936170213","720","410","","","","","","","",""
"680","arrowleft","psychophysics","249","660358","0.0-3.0-0.121","","key","arrowleft","16.923076923076923","720","410","122","5","-1","24","15","25","35","true"
"null","null","psychophysics","250","661359","0.0-3.0-1.121","","key","null","20.829787234042552","720","410","","","","","","","",""
"520","arrowright","psychophysics","251","661896","0.0-3.0-0.122","","key","arrowright","16.70967741935484","720","410","123","5","1","30","15","25","35","true"
"null","null","psychophysics","252","662900","0.0-3.0-1.122","","key","null","16.37704918032787","720","410","","","","","","","",""
"530.9999999998836","arrowleft","psychophysics","253","663434","0.0-3.0-0.123","","key","arrowleft","16.64516129032258","720","410","124","5","-1","27","15","25","35","true"
"null","null","psychophysics","254","664436","0.0-3.0-1.123","","key","null","20.6875","720","410","","","","","","","",""
"394","arrowright","psychophysics","255","664833","0.0-3.0-0.124","","key","arrowright","17.181818181818183","720","410","125","5","1","25","35","25","35","true"
"null","null","psychophysics","256","665834","0.0-3.0-1.124","","key","null","16.55","720","410","","","","","","","",""
"473","arrowright","psychophysics","257","666309","0.0-3.0-0.125","","key","arrowright","18.24","720","410","126","5","1","26","15","25","35","true"
"null","null","psychophysics","258","667311","0.0-3.0-1.125","","key","null","16.295081967213115","720","410","","","","","","","",""
"930.0000000001164","arrowright","psychophysics","259","668249","0.0-3.0-0.126","","key","arrowright","19.574468085106382","720","410","127","5","-1","20","35","25","35","false"
"null","null","psychophysics","260","669251","0.0-3.0-1.126","","key","null","18.25925925925926","720","410","","","","","","","",""
"600.0000000001164","arrowright","psychophysics","261","669854","0.0-3.0-0.127","","key","arrowright","22.23076923076923","720","410","128","5","1","30","35","25","35","true"
"null","null","psychophysics","262","670855","0.0-3.0-1.127","","key","null","16.6","720","410","","","","","","","",""
"3435","arrowleft","psychophysics","263","674293","0.0-3.0-0.128","","key","arrowleft","16.653658536585365","720","410","129","5","1","20","15","25","35","false"
"null","null","psychophysics","264","675298","0.0-3.0-1.128","","key","null","20.416666666666668","720","410","","","","","","","",""
"687.9999999998836","arrowright","psychophysics","265","675989","0.0-3.0-0.129","","key","arrowright","20.029411764705884","720","410","130","5","-1","30","35","25","35","false"
"null","null","psychophysics","266","676990","0.0-3.0-1.129","","key","null","21.391304347826086","720","410","","","","","","","",""
"799.9999999998836","arrowright","psychophysics","267","677793","0.0-3.0-0.130","","key","arrowright","20.333333333333332","720","410","131","5","-1","23","35","25","35","false"
"null","null","psychophysics","268","678796","0.0-3.0-1.130","","key","null","22.022222222222222","720","410","","","","","","","",""
"759","arrowright","psychophysics","269","679557","0.0-3.0-0.131","","key","arrowright","16.90909090909091","720","410","132","5","-1","23","35","25","35","false"
"null","null","psychophysics","270","680560","0.0-3.0-1.131","","key","null","16.5","720","410","","","","","","","",""
"2427.0000000001164","arrowleft","psychophysics","271","682993","0.0-3.0-0.132","","key","arrowleft","16.641379310344828","720","410","133","5","-1","27","35","25","35","true"
"null","null","psychophysics","272","683995","0.0-3.0-1.132","","key","null","16.433333333333334","720","410","","","","","","","",""
"789.9999999998836","arrowright","psychophysics","273","684788","0.0-3.0-0.133","","key","arrowright","20.763157894736842","720","410","134","5","1","25","35","25","35","true"
"null","null","psychophysics","274","685790","0.0-3.0-1.133","","key","null","21.085106382978722","720","410","","","","","","","",""
"775","arrowleft","psychophysics","275","686568","0.0-3.0-0.134","","key","arrowleft","16.866666666666667","720","410","135","5","-1","30","15","25","35","true"
"null","null","psychophysics","276","687575","0.0-3.0-1.134","","key","null","16.45","720","410","","","","","","","",""
"809","arrowright","psychophysics","277","688397","0.0-3.0-0.135","","key","arrowright","16.571428571428573","720","410","136","5","1","24","35","25","35","true"
"null","null","psychophysics","278","689400","0.0-3.0-1.135","","key","null","16.516666666666666","720","410","","","","","","","",""
"2524","arrowright","psychophysics","279","691927","0.0-3.0-0.136","","key","arrowright","22.087719298245613","720","410","137","5","-1","20","15","25","35","false"
"null","null","psychophysics","280","692933","0.0-3.0-1.136","","key","null","16.728813559322035","720","410","","","","","","","",""
"677","arrowright","psychophysics","281","693612","0.0-3.0-0.137","","key","arrowright","16.6","720","410","138","5","-1","27","35","25","35","false"
"null","null","psychophysics","282","694615","0.0-3.0-1.137","","key","null","16.37704918032787","720","410","","","","","","","",""
"883.9999999998836","arrowright","psychophysics","283","695501","0.0-3.0-0.138","","key","arrowright","19","720","410","139","5","1","26","35","25","35","true"
"null","null","psychophysics","284","696504","0.0-3.0-1.138","","key","null","16.666666666666668","720","410","","","","","","","",""
"2619","arrowleft","psychophysics","285","699126","0.0-3.0-0.139","","key","arrowleft","22.016949152542374","720","410","140","6","1","23","15","25","35","false"
"null","null","psychophysics","286","700132","0.0-3.0-1.139","","key","null","16.65","720","410","","","","","","","",""
"979"," ","html-keyboard-response","287","701112","0.0-3.0-2.139-0.139","<div style=""color: white; text-align: center; vertical-align: top; display: inline-block; width: 800px; margin: auto""><p>You have completed 50% of the trials. You are on block 6 of 10. <br>Good job! Take a break if you need to.</p><p>Press any key to continue the experiment.</p></div>","","","","","","","","","","","","",""
"833","arrowright","psychophysics","288","702948","0.0-3.0-0.140","","key","arrowright","16.591836734693878","720","410","141","6","1","27","15","25","35","true"
"null","null","psychophysics","289","703951","0.0-3.0-1.140","","key","null","16.516666666666666","720","410","","","","","","","",""
"924.9999999998836","arrowleft","psychophysics","290","704879","0.0-3.0-0.141","","key","arrowleft","20.568181818181817","720","410","142","6","1","25","35","25","35","false"
"null","null","psychophysics","291","705886","0.0-3.0-1.141","","key","null","20.666666666666668","720","410","","","","","","","",""
"626","arrowleft","psychophysics","292","706516","0.0-3.0-0.142","","key","arrowleft","17.647058823529413","720","410","143","6","-1","27","15","25","35","true"
"null","null","psychophysics","293","707518","0.0-3.0-1.142","","key","null","16.19672131147541","720","410","","","","","","","",""
"724.9999999998836","arrowright","psychophysics","294","708246","0.0-3.0-0.143","","key","arrowright","20.794117647058822","720","410","144","6","-1","23","35","25","35","false"
"null","null","psychophysics","295","709248","0.0-3.0-1.143","","key","null","16.5","720","410","","","","","","","",""
"639.9999999998836","arrowleft","psychophysics","296","709892","0.0-3.0-0.144","","key","arrowleft","21.133333333333333","720","410","145","6","-1","24","15","25","35","true"
"null","null","psychophysics","297","710894","0.0-3.0-1.144","","key","null","16.71186440677966","720","410","","","","","","","",""
"876","arrowright","psychophysics","298","711788","0.0-3.0-0.145","","key","arrowright","16.528301886792452","720","410","146","6","1","24","35","25","35","true"
"null","null","psychophysics","299","712790","0.0-3.0-1.145","","key","null","20.95744680851064","720","410","","","","","","","",""
"856","arrowleft","psychophysics","300","713651","0.0-3.0-0.146","","key","arrowleft","20.463414634146343","720","410","147","6","1","20","35","25","35","false"
"null","null","psychophysics","301","714653","0.0-3.0-1.146","","key","null","16.533333333333335","720","410","","","","","","","",""
"734","arrowright","psychophysics","302","715391","0.0-3.0-0.147","","key","arrowright","16.6046511627907","720","410","148","6","1","27","35","25","35","true"
"null","null","psychophysics","303","716393","0.0-3.0-1.147","","key","null","17.87272727272727","720","410","","","","","","","",""
"1833","arrowleft","psychophysics","304","718243","0.0-3.0-0.148","","key","arrowleft","16.6","720","410","149","6","-1","26","15","25","35","true"
"null","null","psychophysics","305","719245","0.0-3.0-1.148","","key","null","20.583333333333332","720","410","","","","","","","",""
"830.0000000001164","arrowright","psychophysics","306","720078","0.0-3.0-0.149","","key","arrowright","16.73469387755102","720","410","150","6","1","26","15","25","35","true"
"null","null","psychophysics","307","721079","0.0-3.0-1.149","","key","null","16.566666666666666","720","410","","","","","","","",""
"780","arrowleft","psychophysics","308","721862","0.0-3.0-0.150","","key","arrowleft","20.7027027027027","720","410","151","6","-1","24","15","25","35","true"
"null","null","psychophysics","309","722864","0.0-3.0-1.150","","key","null","22.477272727272727","720","410","","","","","","","",""
"1726","arrowright","psychophysics","310","724597","0.0-3.0-0.151","","key","arrowright","16.660194174757283","720","410","152","6","-1","23","35","25","35","false"
"null","null","psychophysics","311","725600","0.0-3.0-1.151","","key","null","16.466666666666665","720","410","","","","","","","",""
"971","arrowleft","psychophysics","312","726573","0.0-3.0-0.152","","key","arrowleft","20.574468085106382","720","410","153","6","1","20","35","25","35","false"
"null","null","psychophysics","313","727575","0.0-3.0-1.152","","key","null","16.779661016949152","720","410","","","","","","","",""
"1389","arrowright","psychophysics","314","728967","0.0-3.0-0.153","","key","arrowright","16.6144578313253","720","410","154","6","1","30","35","25","35","true"
"null","null","psychophysics","315","729974","0.0-3.0-1.153","","key","null","16.45","720","410","","","","","","","",""
"853","arrowright","psychophysics","316","730830","0.0-3.0-0.154","","key","arrowright","21.973684210526315","720","410","155","6","-1","20","35","25","35","false"
"null","null","psychophysics","317","731832","0.0-3.0-1.154","","key","null","16.5","720","410","","","","","","","",""
"1358.0000000001164","arrowright","psychophysics","318","733192","0.0-3.0-0.155","","key","arrowright","16.62962962962963","720","410","156","6","1","27","15","25","35","true"
"null","null","psychophysics","319","734195","0.0-3.0-1.155","","key","null","16.533333333333335","720","410","","","","","","","",""
"642","arrowright","psychophysics","320","734840","0.0-3.0-0.156","","key","arrowright","21.2","720","410","157","6","1","27","35","25","35","true"
"null","null","psychophysics","321","735847","0.0-3.0-1.156","","key","null","16.64406779661017","720","410","","","","","","","",""
"2430","arrowleft","psychophysics","322","738290","0.0-3.0-0.157","","key","arrowleft","16.623287671232877","720","410","158","6","1","20","35","25","35","false"
"null","null","psychophysics","323","739292","0.0-3.0-1.157","","key","null","21.456521739130434","720","410","","","","","","","",""
"2903","arrowright","psychophysics","324","742198","0.0-3.0-0.158","","key","arrowright","21.916666666666668","720","410","159","6","-1","27","35","25","35","false"
"null","null","psychophysics","325","743206","0.0-3.0-1.158","","key","null","16.633333333333333","720","410","","","","","","","",""
"2706","arrowleft","psychophysics","326","745915","0.0-3.0-0.159","","key","arrowleft","16.623456790123456","720","410","160","6","-1","23","15","25","35","true"
"null","null","psychophysics","327","746916","0.0-3.0-1.159","","key","null","16.633333333333333","720","410","","","","","","","",""
"1490","arrowright","psychophysics","328","748409","0.0-3.0-0.160","","key","arrowright","21.776119402985074","720","410","161","6","1","25","35","25","35","true"
"null","null","psychophysics","329","749416","0.0-3.0-1.160","","key","null","16.466666666666665","720","410","","","","","","","",""
"772.0000000001164","arrowright","psychophysics","330","750191","0.0-3.0-0.161","","key","arrowright","16.652173913043477","720","410","162","6","-1","27","35","25","35","false"
"null","null","psychophysics","331","751193","0.0-3.0-1.161","","key","null","16.55","720","410","","","","","","","",""
"623","arrowleft","psychophysics","332","751818","0.0-3.0-0.162","","key","arrowleft","21.25","720","410","163","6","-1","24","15","25","35","true"
"null","null","psychophysics","333","752821","0.0-3.0-1.162","","key","null","16.466666666666665","720","410","","","","","","","",""
"2232","arrowleft","psychophysics","334","755056","0.0-3.0-0.163","","key","arrowleft","21.764705882352942","720","410","164","6","1","23","15","25","35","false"
"null","null","psychophysics","335","756063","0.0-3.0-1.163","","key","null","16.633333333333333","720","410","","","","","","","",""
"882","arrowright","psychophysics","336","756948","0.0-3.0-0.164","","key","arrowright","16.46153846153846","720","410","165","6","1","30","15","25","35","true"
"null","null","psychophysics","337","757951","0.0-3.0-1.164","","key","null","16.39344262295082","720","410","","","","","","","",""
"768","arrowleft","psychophysics","338","758722","0.0-3.0-0.165","","key","arrowleft","20.833333333333332","720","410","166","6","1","20","35","25","35","false"
"null","null","psychophysics","339","759724","0.0-3.0-1.165","","key","null","16.728813559322035","720","410","","","","","","","",""
"709.9999999998836","arrowright","psychophysics","340","760449","0.0-3.0-0.166","","key","arrowright","21.666666666666668","720","410","167","6","1","25","15","25","35","true"
"null","null","psychophysics","341","761451","0.0-3.0-1.166","","key","null","16.677966101694917","720","410","","","","","","","",""
"925.0000000001164","arrowleft","psychophysics","342","762393","0.0-3.0-0.167","","key","arrowleft","17.433962264150942","720","410","168","7","1","23","15","25","35","false"
"null","null","psychophysics","343","763396","0.0-3.0-1.167","","key","null","16.466666666666665","720","410","","","","","","","",""
"1020.9999999998836"," ","html-keyboard-response","344","764418","0.0-3.0-2.167-0.167","<div style=""color: white; text-align: center; vertical-align: top; display: inline-block; width: 800px; margin: auto""><p>You have completed 60% of the trials. You are on block 7 of 10. <br>Good job! Take a break if you need to.</p><p>Press any key to continue the experiment.</p></div>","","","","","","","","","","","","",""
"1007","arrowleft","psychophysics","345","766432","0.0-3.0-0.168","","key","arrowleft","16.593220338983052","720","410","169","7","-1","27","15","25","35","true"
"null","null","psychophysics","346","767434","0.0-3.0-1.168","","key","null","16.533333333333335","720","410","","","","","","","",""
"562","arrowright","psychophysics","347","768004","0.0-3.0-0.169","","key","arrowright","18.333333333333332","720","410","170","7","-1","24","15","25","35","false"
"null","null","psychophysics","348","769006","0.0-3.0-1.169","","key","null","16.483333333333334","720","410","","","","","","","",""
"890","arrowleft","psychophysics","349","769900","0.0-3.0-0.170","","key","arrowleft","17.01923076923077","720","410","171","7","1","23","35","25","35","false"
"null","null","psychophysics","350","770902","0.0-3.0-1.170","","key","null","16.583333333333332","720","410","","","","","","","",""
"594.0000000001164","arrowright","psychophysics","351","771499","0.0-3.0-0.171","","key","arrowright","20.678571428571427","720","410","172","7","1","20","35","25","35","true"
"null","null","psychophysics","352","772501","0.0-3.0-1.171","","key","null","21.434782608695652","720","410","","","","","","","",""
"700","arrowright","psychophysics","353","773205","0.0-3.0-0.172","","key","arrowright","16.829268292682926","720","410","173","7","1","30","15","25","35","true"
"null","null","psychophysics","354","774211","0.0-3.0-1.172","","key","null","16.45","720","410","","","","","","","",""
"906","arrowright","psychophysics","355","775120","0.0-3.0-0.173","","key","arrowright","20.40909090909091","720","410","174","7","1","26","15","25","35","true"
"null","null","psychophysics","356","776121","0.0-3.0-1.173","","key","null","19.352941176470587","720","410","","","","","","","",""
"709.9999999998836","arrowleft","psychophysics","357","776833","0.0-3.0-0.174","","key","arrowleft","21.96875","720","410","175","7","-1","27","35","25","35","true"
"null","null","psychophysics","358","777835","0.0-3.0-1.174","","key","null","16.661016949152543","720","410","","","","","","","",""
"772.9999999998836","arrowright","psychophysics","359","778622","0.0-3.0-0.175","","key","arrowright","20.64864864864865","720","410","176","7","1","27","15","25","35","true"
"null","null","psychophysics","360","779624","0.0-3.0-1.175","","key","null","16.583333333333332","720","410","","","","","","","",""
"1044.0000000001164","arrowleft","psychophysics","361","780671","0.0-3.0-0.176","","key","arrowleft","16.64516129032258","720","410","177","7","-1","30","15","25","35","true"
"null","null","psychophysics","362","781673","0.0-3.0-1.176","","key","null","19.54","720","410","","","","","","","",""
"798","arrowleft","psychophysics","363","782496","0.0-3.0-0.177","","key","arrowleft","20.435897435897434","720","410","178","7","-1","27","35","25","35","true"
"null","null","psychophysics","364","783499","0.0-3.0-1.177","","key","null","21.369565217391305","720","410","","","","","","","",""
"1105","arrowleft","psychophysics","365","784606","0.0-3.0-0.178","","key","arrowleft","20.96153846153846","720","410","179","7","-1","25","15","25","35","true"
"null","null","psychophysics","366","785608","0.0-3.0-1.178","","key","null","16.6","720","410","","","","","","","",""
"854","arrowleft","psychophysics","367","786465","0.0-3.0-0.179","","key","arrowleft","17.595744680851062","720","410","180","7","-1","24","35","25","35","true"
"null","null","psychophysics","368","787467","0.0-3.0-1.179","","key","null","21.148936170212767","720","410","","","","","","","",""
"955","arrowright","psychophysics","369","788430","0.0-3.0-0.180","","key","arrowright","16.526315789473685","720","410","181","7","-1","23","15","25","35","false"
"null","null","psychophysics","370","789432","0.0-3.0-1.180","","key","null","16.6","720","410","","","","","","","",""
"824","arrowright","psychophysics","371","790259","0.0-3.0-0.181","","key","arrowright","17.106382978723403","720","410","182","7","1","24","35","25","35","true"
"null","null","psychophysics","372","791261","0.0-3.0-1.181","","key","null","16.45","720","410","","","","","","","",""
"678","arrowright","psychophysics","373","791953","0.0-3.0-0.182","","key","arrowright","21.09375","720","410","183","7","-1","20","35","25","35","false"
"null","null","psychophysics","374","792954","0.0-3.0-1.182","","key","null","16.483333333333334","720","410","","","","","","","",""
"992","arrowleft","psychophysics","375","793948","0.0-3.0-0.183","","key","arrowleft","16.677966101694917","720","410","184","7","-1","26","35","25","35","true"
"null","null","psychophysics","376","794956","0.0-3.0-1.183","","key","null","16.466666666666665","720","410","","","","","","","",""
"534.0000000001164","arrowright","psychophysics","377","795492","0.0-3.0-0.184","","key","arrowright","20.307692307692307","720","410","185","7","1","26","35","25","35","true"
"null","null","psychophysics","378","796495","0.0-3.0-1.184","","key","null","16.694915254237287","720","410","","","","","","","",""
"1076","arrowright","psychophysics","379","797584","0.0-3.0-0.185","","key","arrowright","21.235294117647058","720","410","186","7","-1","20","15","25","35","false"
"null","null","psychophysics","380","798585","0.0-3.0-1.185","","key","null","20.367346938775512","720","410","","","","","","","",""
"1401","arrowleft","psychophysics","381","799988","0.0-3.0-0.186","","key","arrowleft","16.76829268292683","720","410","187","7","-1","26","15","25","35","true"
"null","null","psychophysics","382","800990","0.0-3.0-1.186","","key","null","16.5","720","410","","","","","","","",""
"694","arrowright","psychophysics","383","801692","0.0-3.0-0.187","","key","arrowright","16.5609756097561","720","410","188","7","1","23","35","25","35","true"
"null","null","psychophysics","384","802694","0.0-3.0-1.187","","key","null","16.295081967213115","720","410","","","","","","","",""
"569.0000000001164","arrowright","psychophysics","385","803266","0.0-3.0-0.188","","key","arrowright","21.76","720","410","189","7","-1","24","35","25","35","false"
"null","null","psychophysics","386","804267","0.0-3.0-1.188","","key","null","16.466666666666665","720","410","","","","","","","",""
"641.9999999998836","arrowleft","psychophysics","387","804913","0.0-3.0-0.189","","key","arrowleft","16.736842105263158","720","410","190","7","-1","25","15","25","35","true"
"null","null","psychophysics","388","805916","0.0-3.0-1.189","","key","null","16.466666666666665","720","410","","","","","","","",""
"618","arrowright","psychophysics","389","806536","0.0-3.0-0.190","","key","arrowright","20.93103448275862","720","410","191","7","1","23","35","25","35","true"
"null","null","psychophysics","390","807538","0.0-3.0-1.190","","key","null","16.74576271186441","720","410","","","","","","","",""
"633","arrowleft","psychophysics","391","808190","0.0-3.0-0.191","","key","arrowleft","16.358974358974358","720","410","192","7","-1","24","15","25","35","true"
"null","null","psychophysics","392","809193","0.0-3.0-1.191","","key","null","16.466666666666665","720","410","","","","","","","",""
"377","arrowright","psychophysics","393","809572","0.0-3.0-0.192","","key","arrowright","19.31578947368421","720","410","193","7","-1","26","15","25","35","false"
"null","null","psychophysics","394","810574","0.0-3.0-1.192","","key","null","21.977777777777778","720","410","","","","","","","",""
"495","arrowleft","psychophysics","395","811072","0.0-3.0-0.193","","key","arrowleft","16.620689655172413","720","410","194","7","1","25","35","25","35","false"
"null","null","psychophysics","396","812074","0.0-3.0-1.193","","key","null","16.516666666666666","720","410","","","","","","","",""
"493","arrowright","psychophysics","397","812569","0.0-3.0-0.194","","key","arrowright","16.689655172413794","720","410","195","7","1","23","35","25","35","true"
"null","null","psychophysics","398","813571","0.0-3.0-1.194","","key","null","16.5","720","410","","","","","","","",""
"350","arrowright","psychophysics","399","813939","0.0-3.0-0.195","","key","arrowright","18.789473684210527","720","410","196","8","-1","26","35","25","35","false"
"null","null","psychophysics","400","814942","0.0-3.0-1.195","","key","null","16.5","720","410","","","","","","","",""
"828.0000000001164","arrowright","html-keyboard-response","401","815771","0.0-3.0-2.195-0.195","<div style=""color: white; text-align: center; vertical-align: top; display: inline-block; width: 800px; margin: auto""><p>You have completed 70% of the trials. You are on block 8 of 10. <br>Good job! Take a break if you need to.</p><p>Press any key to continue the experiment.</p></div>","","","","","","","","","","","","",""
"814","arrowright","psychophysics","402","817589","0.0-3.0-0.196","","key","arrowright","21.027027027027028","720","410","197","8","1","26","15","25","35","true"
"null","null","psychophysics","403","818591","0.0-3.0-1.196","","key","null","21.170212765957448","720","410","","","","","","","",""
"1141","arrowright","psychophysics","404","819735","0.0-3.0-0.197","","key","arrowright","21.07547169811321","720","410","198","8","-1","25","35","25","35","false"
"null","null","psychophysics","405","820741","0.0-3.0-1.197","","key","null","16.566666666666666","720","410","","","","","","","",""
"666.0000000001164","arrowright","psychophysics","406","821409","0.0-3.0-0.198","","key","arrowright","16.641025641025642","720","410","199","8","1","27","15","25","35","true"
"null","null","psychophysics","407","822412","0.0-3.0-1.198","","key","null","16.45","720","410","","","","","","","",""
"901.9999999998836","arrowright","psychophysics","408","823316","0.0-3.0-0.199","","key","arrowright","16.574074074074073","720","410","200","8","1","25","15","25","35","true"
"null","null","psychophysics","409","824318","0.0-3.0-1.199","","key","null","16.583333333333332","720","410","","","","","","","",""
"1136","arrowleft","psychophysics","410","825458","0.0-3.0-0.200","","key","arrowleft","20.849056603773583","720","410","201","8","1","26","35","25","35","false"
"null","null","psychophysics","411","826464","0.0-3.0-1.200","","key","null","19.64","720","410","","","","","","","",""
"685.9999999998836","arrowleft","psychophysics","412","827153","0.0-3.0-0.201","","key","arrowleft","19.142857142857142","720","410","202","8","-1","26","15","25","35","true"
"null","null","psychophysics","413","828157","0.0-3.0-1.201","","key","null","16.583333333333332","720","410","","","","","","","",""
"836.0000000001164","arrowleft","psychophysics","414","828996","0.0-3.0-0.202","","key","arrowleft","16.770833333333332","720","410","203","8","-1","25","35","25","35","true"
"null","null","psychophysics","415","829999","0.0-3.0-1.202","","key","null","16.416666666666668","720","410","","","","","","","",""
"2399","arrowleft","psychophysics","416","832411","0.0-3.0-0.203","","key","arrowleft","21.55855855855856","720","410","204","8","1","25","15","25","35","false"
"null","null","psychophysics","417","833418","0.0-3.0-1.203","","key","null","16.516666666666666","720","410","","","","","","","",""
"946","arrowright","psychophysics","418","834367","0.0-3.0-0.204","","key","arrowright","16.607142857142858","720","410","205","8","1","24","15","25","35","true"
"null","null","psychophysics","419","835368","0.0-3.0-1.204","","key","null","16.416666666666668","720","410","","","","","","","",""
"647","arrowright","psychophysics","420","836029","0.0-3.0-0.205","","key","arrowright","21.233333333333334","720","410","206","8","1","24","15","25","35","true"
"null","null","psychophysics","421","837032","0.0-3.0-1.205","","key","null","16.4","720","410","","","","","","","",""
"750","arrowright","psychophysics","422","837795","0.0-3.0-0.206","","key","arrowright","16.555555555555557","720","410","207","8","-1","20","35","25","35","false"
"null","null","psychophysics","423","838797","0.0-3.0-1.206","","key","null","17.137931034482758","720","410","","","","","","","",""
"621","arrowright","psychophysics","424","839426","0.0-3.0-0.207","","key","arrowright","17.166666666666668","720","410","208","8","1","23","15","25","35","true"
"null","null","psychophysics","425","840428","0.0-3.0-1.207","","key","null","16.6","720","410","","","","","","","",""
"671.9999999998836","arrowright","psychophysics","426","841104","0.0-3.0-0.208","","key","arrowright","16.641025641025642","720","410","209","8","1","24","15","25","35","true"
"null","null","psychophysics","427","842107","0.0-3.0-1.208","","key","null","20.458333333333332","720","410","","","","","","","",""
"753","arrowleft","psychophysics","428","842873","0.0-3.0-0.209","","key","arrowleft","16.68888888888889","720","410","210","8","-1","30","15","25","35","true"
"null","null","psychophysics","429","843876","0.0-3.0-1.209","","key","null","16.39344262295082","720","410","","","","","","","",""
"733","arrowleft","psychophysics","430","844612","0.0-3.0-0.210","","key","arrowleft","16.674418604651162","720","410","211","8","-1","30","35","25","35","true"
"null","null","psychophysics","431","845619","0.0-3.0-1.210","","key","null","16.311475409836067","720","410","","","","","","","",""
"1050","arrowright","psychophysics","432","846673","0.0-3.0-0.211","","key","arrowright","21.4375","720","410","212","8","1","25","15","25","35","true"
"null","null","psychophysics","433","847675","0.0-3.0-1.211","","key","null","16.533333333333335","720","410","","","","","","","",""
"771","arrowright","psychophysics","434","848450","0.0-3.0-0.212","","key","arrowright","16.630434782608695","720","410","213","8","1","25","35","25","35","true"
"null","null","psychophysics","435","849451","0.0-3.0-1.212","","key","null","16.6","720","410","","","","","","","",""
"678","arrowleft","psychophysics","436","850132","0.0-3.0-0.213","","key","arrowleft","20.78125","720","410","214","8","-1","23","15","25","35","true"
"null","null","psychophysics","437","851134","0.0-3.0-1.213","","key","null","16.728813559322035","720","410","","","","","","","",""
"708.0000000001164","arrowleft","psychophysics","438","851860","0.0-3.0-0.214","","key","arrowleft","21.058823529411764","720","410","215","8","-1","24","15","25","35","true"
"null","null","psychophysics","439","852861","0.0-3.0-1.214","","key","null","19.84","720","410","","","","","","","",""
"1556","arrowright","psychophysics","440","854420","0.0-3.0-0.215","","key","arrowright","22.246376811594203","720","410","216","8","1","23","35","25","35","true"
"null","null","psychophysics","441","855422","0.0-3.0-1.215","","key","null","16.633333333333333","720","410","","","","","","","",""
"1461","arrowleft","psychophysics","442","856886","0.0-3.0-0.216","","key","arrowleft","16.64367816091954","720","410","217","8","-1","30","15","25","35","true"
"null","null","psychophysics","443","857892","0.0-3.0-1.216","","key","null","17.714285714285715","720","410","","","","","","","",""
"559","arrowright","psychophysics","444","858455","0.0-3.0-0.217","","key","arrowright","20.615384615384617","720","410","218","8","1","30","35","25","35","true"
"null","null","psychophysics","445","859457","0.0-3.0-1.217","","key","null","16.6","720","410","","","","","","","",""
"1103","arrowleft","psychophysics","446","860563","0.0-3.0-0.218","","key","arrowleft","16.661538461538463","720","410","219","8","1","23","35","25","35","false"
"null","null","psychophysics","447","861565","0.0-3.0-1.218","","key","null","16.433333333333334","720","410","","","","","","","",""
"570","arrowleft","psychophysics","448","862148","0.0-3.0-0.219","","key","arrowleft","20.321428571428573","720","410","220","8","1","20","35","25","35","false"
"null","null","psychophysics","449","863150","0.0-3.0-1.219","","key","null","16.566666666666666","720","410","","","","","","","",""
"759","arrowleft","psychophysics","450","863919","0.0-3.0-0.220","","key","arrowleft","20.583333333333332","720","410","221","8","-1","26","35","25","35","true"
"null","null","psychophysics","451","864922","0.0-3.0-1.220","","key","null","21.47826086956522","720","410","","","","","","","",""
"645","arrowleft","psychophysics","452","865571","0.0-3.0-0.221","","key","arrowleft","16.945945945945947","720","410","222","8","-1","27","15","25","35","true"
"null","null","psychophysics","453","866573","0.0-3.0-1.221","","key","null","16.37704918032787","720","410","","","","","","","",""
"700","arrowright","psychophysics","454","867276","0.0-3.0-0.222","","key","arrowright","16.682926829268293","720","410","223","8","-1","23","35","25","35","false"
"null","null","psychophysics","455","868278","0.0-3.0-1.222","","key","null","16.5","720","410","","","","","","","",""
"629","arrowleft","psychophysics","456","868910","0.0-3.0-0.223","","key","arrowleft","21.413793103448278","720","410","224","9","-1","25","15","25","35","true"
"null","null","psychophysics","457","869919","0.0-3.0-1.223","","key","null","19.607843137254903","720","410","","","","","","","",""
"524","arrowright","html-keyboard-response","458","870445","0.0-3.0-2.223-0.223","<div style=""color: white; text-align: center; vertical-align: top; display: inline-block; width: 800px; margin: auto""><p>You have completed 80% of the trials. You are on block 9 of 10. <br>Good job! Take a break if you need to.</p><p>Press any key to continue the experiment.</p></div>","","","","","","","","","","","","",""
"715","arrowright","psychophysics","459","872165","0.0-3.0-0.224","","key","arrowright","21.21875","720","410","225","9","1","27","35","25","35","true"
"null","null","psychophysics","460","873167","0.0-3.0-1.224","","key","null","16.566666666666666","720","410","","","","","","","",""
"608","arrowright","psychophysics","461","873778","0.0-3.0-0.225","","key","arrowright","16.63888888888889","720","410","226","9","-1","25","35","25","35","false"
"null","null","psychophysics","462","874781","0.0-3.0-1.225","","key","null","18.528301886792452","720","410","","","","","","","",""
"953","arrowright","psychophysics","463","875751","0.0-3.0-0.226","","key","arrowright","16.517241379310345","720","410","227","9","-1","26","35","25","35","false"
"null","null","psychophysics","464","876753","0.0-3.0-1.226","","key","null","16.466666666666665","720","410","","","","","","","",""
"377.0000000001164","arrowright","psychophysics","465","877133","0.0-3.0-0.227","","key","arrowright","21.058823529411764","720","410","228","9","1","24","35","25","35","true"
"null","null","psychophysics","466","878135","0.0-3.0-1.227","","key","null","16.55","720","410","","","","","","","",""
"463","arrowright","psychophysics","467","878601","0.0-3.0-0.228","","key","arrowright","20.636363636363637","720","410","229","9","1","25","35","25","35","true"
"null","null","psychophysics","468","879603","0.0-3.0-1.228","","key","null","19.19607843137255","720","410","","","","","","","",""
"1011","arrowleft","psychophysics","469","880627","0.0-3.0-0.229","","key","arrowleft","16.721311475409838","720","410","230","9","-1","25","35","25","35","true"
"null","null","psychophysics","470","881630","0.0-3.0-1.229","","key","null","16.6","720","410","","","","","","","",""
"718.9999999998836","arrowright","psychophysics","471","882351","0.0-3.0-0.230","","key","arrowright","21.12121212121212","720","410","231","9","1","30","15","25","35","true"
"null","null","psychophysics","472","883353","0.0-3.0-1.230","","key","null","16.4","720","410","","","","","","","",""
"601","arrowleft","psychophysics","473","883979","0.0-3.0-0.231","","key","arrowleft","20.4","720","410","232","9","-1","27","35","25","35","true"
"null","null","psychophysics","474","884981","0.0-3.0-1.231","","key","null","16.6","720","410","","","","","","","",""
"591.9999999998836","arrowright","psychophysics","475","885576","0.0-3.0-0.232","","key","arrowright","20.642857142857142","720","410","233","9","1","24","15","25","35","true"
"null","null","psychophysics","476","886578","0.0-3.0-1.232","","key","null","19.352941176470587","720","410","","","","","","","",""
"494","arrowleft","psychophysics","477","887075","0.0-3.0-0.233","","key","arrowleft","20.304347826086957","720","410","234","9","-1","24","15","25","35","true"
"null","null","psychophysics","478","888077","0.0-3.0-1.233","","key","null","16.5","720","410","","","","","","","",""
"702","arrowleft","psychophysics","479","888781","0.0-3.0-0.234","","key","arrowleft","16.682926829268293","720","410","235","9","-1","27","35","25","35","true"
"null","null","psychophysics","480","889784","0.0-3.0-1.234","","key","null","16.34426229508197","720","410","","","","","","","",""
"562.9999999998836","arrowright","psychophysics","481","890349","0.0-3.0-0.235","","key","arrowright","21.48","720","410","236","9","1","24","15","25","35","true"
"null","null","psychophysics","482","891356","0.0-3.0-1.235","","key","null","20.75","720","410","","","","","","","",""
"673","arrowright","psychophysics","483","892033","0.0-3.0-0.236","","key","arrowright","19.818181818181817","720","410","237","9","1","24","35","25","35","true"
"null","null","psychophysics","484","893034","0.0-3.0-1.236","","key","null","21.170212765957448","720","410","","","","","","","",""
"548","arrowright","psychophysics","485","893585","0.0-3.0-0.237","","key","arrowright","16.59375","720","410","238","9","1","26","35","25","35","true"
"null","null","psychophysics","486","894587","0.0-3.0-1.237","","key","null","16.55","720","410","","","","","","","",""
"545.9999999998836","arrowright","psychophysics","487","895135","0.0-3.0-0.238","","key","arrowright","16.65625","720","410","239","9","1","20","15","25","35","true"
"null","null","psychophysics","488","896137","0.0-3.0-1.238","","key","null","16.516666666666666","720","410","","","","","","","",""
"902","arrowright","psychophysics","489","897043","0.0-3.0-0.239","","key","arrowright","16.59259259259259","720","410","240","9","-1","20","35","25","35","false"
"null","null","psychophysics","490","898050","0.0-3.0-1.239","","key","null","16.5","720","410","","","","","","","",""
"1273","arrowleft","psychophysics","491","899327","0.0-3.0-0.240","","key","arrowleft","21.655172413793103","720","410","241","9","-1","24","15","25","35","true"
"null","null","psychophysics","492","900328","0.0-3.0-1.240","","key","null","16.633333333333333","720","410","","","","","","","",""
"647.0000000001164","arrowleft","psychophysics","493","900977","0.0-3.0-0.241","","key","arrowleft","16.605263157894736","720","410","242","9","1","30","15","25","35","false"
"null","null","psychophysics","494","901979","0.0-3.0-1.241","","key","null","16.566666666666666","720","410","","","","","","","",""
"510","arrowright","psychophysics","495","902491","0.0-3.0-0.242","","key","arrowright","16.533333333333335","720","410","243","9","1","30","15","25","35","true"
"null","null","psychophysics","496","903494","0.0-3.0-1.242","","key","null","20.3265306122449","720","410","","","","","","","",""
"678.0000000001164","arrowright","psychophysics","497","904179","0.0-3.0-0.243","","key","arrowright","16.94871794871795","720","410","244","9","1","23","15","25","35","true"
"null","null","psychophysics","498","905182","0.0-3.0-1.243","","key","null","16.466666666666665","720","410","","","","","","","",""
"1330","arrowleft","psychophysics","499","906515","0.0-3.0-0.244","","key","arrowleft","16.645569620253166","720","410","245","9","1","20","15","25","35","false"
"null","null","psychophysics","500","907518","0.0-3.0-1.244","","key","null","16.39344262295082","720","410","","","","","","","",""
"540","arrowright","psychophysics","501","908062","0.0-3.0-0.245","","key","arrowright","20.72","720","410","246","9","-1","24","35","25","35","false"
"null","null","psychophysics","502","909063","0.0-3.0-1.245","","key","null","21.127659574468087","720","410","","","","","","","",""
"817","arrowright","psychophysics","503","909883","0.0-3.0-0.246","","key","arrowright","16.6875","720","410","247","9","-1","20","15","25","35","false"
"null","null","psychophysics","504","910892","0.0-3.0-1.246","","key","null","16.416666666666668","720","410","","","","","","","",""
"479.0000000001164","arrowright","psychophysics","505","911386","0.0-3.0-0.247","","key","arrowright","16.586206896551722","720","410","248","9","1","24","15","25","35","true"
"null","null","psychophysics","506","912389","0.0-3.0-1.247","","key","null","21.25531914893617","720","410","","","","","","","",""
"641","arrowleft","psychophysics","507","913033","0.0-3.0-0.248","","key","arrowleft","16.54054054054054","720","410","249","9","1","20","15","25","35","false"
"null","null","psychophysics","508","914035","0.0-3.0-1.248","","key","null","16.433333333333334","720","410","","","","","","","",""
"404.0000000001164","arrowright","psychophysics","509","914453","0.0-3.0-0.249","","key","arrowright","20.45","720","410","250","9","-1","20","15","25","35","false"
"null","null","psychophysics","510","915454","0.0-3.0-1.249","","key","null","20.081632653061224","720","410","","","","","","","",""
"437","arrowright","psychophysics","511","915894","0.0-3.0-0.250","","key","arrowright","19.40909090909091","720","410","251","9","1","30","15","25","35","true"
"null","null","psychophysics","512","916895","0.0-3.0-1.250","","key","null","17.385964912280702","720","410","","","","","","","",""
"621","arrowright","psychophysics","513","917523","0.0-3.0-0.251","","key","arrowright","19.548387096774192","720","410","252","10","1","25","15","25","35","true"
"null","null","psychophysics","514","918525","0.0-3.0-1.251","","key","null","20.3265306122449","720","410","","","","","","","",""
"605.0000000001164","arrowright","html-keyboard-response","515","919131","0.0-3.0-2.251-0.251","<div style=""color: white; text-align: center; vertical-align: top; display: inline-block; width: 800px; margin: auto""><p>You have completed 90% of the trials. You are on block 10 of 10. <br>Good job! Take a break if you need to.</p><p>Press any key to continue the experiment.</p></div>","","","","","","","","","","","","",""
"2673","arrowright","psychophysics","516","922810","0.0-3.0-0.252","","key","arrowright","18.17808219178082","720","410","253","10","-1","25","15","25","35","false"
"null","null","psychophysics","517","923818","0.0-3.0-1.252","","key","null","16.4","720","410","","","","","","","",""
"571","arrowright","psychophysics","518","924402","0.0-3.0-0.253","","key","arrowright","16.542857142857144","720","410","254","10","1","24","35","25","35","true"
"null","null","psychophysics","519","925405","0.0-3.0-1.253","","key","null","16.6","720","410","","","","","","","",""
"435","arrowright","psychophysics","520","925844","0.0-3.0-0.254","","key","arrowright","20.095238095238095","720","410","255","10","1","26","15","25","35","true"
"null","null","psychophysics","521","926846","0.0-3.0-1.254","","key","null","16.71186440677966","720","410","","","","","","","",""
"1186.0000000001164","arrowright","psychophysics","522","928044","0.0-3.0-0.255","","key","arrowright","16.928571428571427","720","410","256","10","1","27","35","25","35","true"
"null","null","psychophysics","523","929046","0.0-3.0-1.255","","key","null","16.45","720","410","","","","","","","",""
"722","arrowleft","psychophysics","524","929786","0.0-3.0-0.256","","key","arrowleft","20.228571428571428","720","410","257","10","-1","25","15","25","35","true"
"null","null","psychophysics","525","930788","0.0-3.0-1.256","","key","null","20.80851063829787","720","410","","","","","","","",""
"671","arrowleft","psychophysics","526","931471","0.0-3.0-0.257","","key","arrowleft","21.15625","720","410","258","10","-1","25","15","25","35","true"
"null","null","psychophysics","527","932473","0.0-3.0-1.257","","key","null","16.76271186440678","720","410","","","","","","","",""
"837.9999999998836","arrowright","psychophysics","528","933314","0.0-3.0-0.258","","key","arrowright","16.62","720","410","259","10","-1","23","15","25","35","false"
"null","null","psychophysics","529","934316","0.0-3.0-1.258","","key","null","16.516666666666666","720","410","","","","","","","",""
"1934","arrowright","psychophysics","530","936253","0.0-3.0-0.259","","key","arrowright","16.991150442477878","720","410","260","10","1","30","35","25","35","true"
"null","null","psychophysics","531","937260","0.0-3.0-1.259","","key","null","20.95744680851064","720","410","","","","","","","",""
"636","arrowright","psychophysics","532","937900","0.0-3.0-0.260","","key","arrowright","16.972972972972972","720","410","261","10","1","27","15","25","35","true"
"null","null","psychophysics","533","938902","0.0-3.0-1.260","","key","null","16.483333333333334","720","410","","","","","","","",""
"659","arrowright","psychophysics","534","939564","0.0-3.0-0.261","","key","arrowright","16.71794871794872","720","410","262","10","1","30","35","25","35","true"
"null","null","psychophysics","535","940567","0.0-3.0-1.261","","key","null","16.483333333333334","720","410","","","","","","","",""
"14883","arrowright","psychophysics","536","955452","0.0-3.0-0.262","","key","arrowright","21.32855093256815","720","410","263","10","-1","24","35","25","35","false"
"null","null","psychophysics","537","956460","0.0-3.0-1.262","","key","null","20.163265306122447","720","410","","","","","","","",""
"826","arrowright","psychophysics","538","957290","0.0-3.0-0.263","","key","arrowright","20.894736842105264","720","410","264","10","1","24","15","25","35","true"
"null","null","psychophysics","539","958292","0.0-3.0-1.263","","key","null","16.45","720","410","","","","","","","",""
"1169","arrowright","psychophysics","540","959465","0.0-3.0-0.264","","key","arrowright","21.22222222222222","720","410","265","10","-1","20","15","25","35","false"
"null","null","psychophysics","541","960467","0.0-3.0-1.264","","key","null","16.466666666666665","720","410","","","","","","","",""
"1042","arrowleft","psychophysics","542","961512","0.0-3.0-0.265","","key","arrowleft","21.224489795918366","720","410","266","10","1","23","15","25","35","false"
"null","null","psychophysics","543","962520","0.0-3.0-1.265","","key","null","16.661016949152543","720","410","","","","","","","",""
"430.9999999998836","arrowright","psychophysics","544","962964","0.0-3.0-0.266","","key","arrowright","16.5","720","410","267","10","1","27","15","25","35","true"
"null","null","psychophysics","545","963966","0.0-3.0-1.266","","key","null","16.466666666666665","720","410","","","","","","","",""
"805","arrowright","psychophysics","546","964774","0.0-3.0-0.267","","key","arrowright","16.6875","720","410","268","10","1","26","15","25","35","true"
"null","null","psychophysics","547","965777","0.0-3.0-1.267","","key","null","16.533333333333335","720","410","","","","","","","",""
"1333","arrowright","psychophysics","548","967114","0.0-3.0-0.268","","key","arrowright","21.883333333333333","720","410","269","10","1","27","35","25","35","true"
"null","null","psychophysics","549","968115","0.0-3.0-1.268","","key","null","16.533333333333335","720","410","","","","","","","",""
"755","arrowleft","psychophysics","550","968890","0.0-3.0-0.269","","key","arrowleft","16.58695652173913","720","410","270","10","-1","26","35","25","35","true"
"null","null","psychophysics","551","969892","0.0-3.0-1.269","","key","null","16.566666666666666","720","410","","","","","","","",""
"698","arrowleft","psychophysics","552","970594","0.0-3.0-0.270","","key","arrowleft","20.272727272727273","720","410","271","10","1","23","35","25","35","false"
"null","null","psychophysics","553","971596","0.0-3.0-1.270","","key","null","18.903846153846153","720","410","","","","","","","",""
"692","arrowleft","psychophysics","554","972301","0.0-3.0-0.271","","key","arrowleft","21.4375","720","410","272","10","-1","30","15","25","35","true"
"null","null","psychophysics","555","973303","0.0-3.0-1.271","","key","null","16.55","720","410","","","","","","","",""
"1127.9999999998836","arrowleft","psychophysics","556","974434","0.0-3.0-0.272","","key","arrowleft","16.611940298507463","720","410","273","10","1","24","35","25","35","false"
"null","null","psychophysics","557","975440","0.0-3.0-1.272","","key","null","19.86","720","410","","","","","","","",""
"1848","arrowright","psychophysics","558","977291","0.0-3.0-0.273","","key","arrowright","16.618181818181817","720","410","274","10","1","23","15","25","35","true"
"null","null","psychophysics","559","978293","0.0-3.0-1.273","","key","null","16.583333333333332","720","410","","","","","","","",""
"761","arrowright","psychophysics","560","979057","0.0-3.0-0.274","","key","arrowright","20.75","720","410","275","10","1","30","15","25","35","true"
"null","null","psychophysics","561","980058","0.0-3.0-1.274","","key","null","21.933333333333334","720","410","","","","","","","",""
"945.0000000001164","arrowright","psychophysics","562","981007","0.0-3.0-0.275","","key","arrowright","16.696428571428573","720","410","276","10","-1","20","15","25","35","false"
"null","null","psychophysics","563","982015","0.0-3.0-1.275","","key","null","18.072727272727274","720","410","","","","","","","",""
"614","arrowleft","psychophysics","564","982632","0.0-3.0-0.276","","key","arrowleft","16.52777777777778","720","410","277","10","-1","26","15","25","35","true"
"null","null","psychophysics","565","983634","0.0-3.0-1.276","","key","null","16.55","720","410","","","","","","","",""
"623.9999999998836","arrowleft","psychophysics","566","984262","0.0-3.0-0.277","","key","arrowleft","20.533333333333335","720","410","278","10","-1","25","15","25","35","true"
"null","null","psychophysics","567","985265","0.0-3.0-1.277","","key","null","16.666666666666668","720","410","","","","","","","",""
"601","arrowleft","psychophysics","568","985868","0.0-3.0-0.278","","key","arrowleft","19.82758620689655","720","410","279","10","-1","30","15","25","35","true"
"null","null","psychophysics","569","986870","0.0-3.0-1.278","","key","null","21.733333333333334","720","410","","","","","","","",""
"1503","arrowright","psychophysics","570","988393","0.0-3.0-0.279","","key","arrowright","16.615384615384617","720","410","280","11","-1","23","15","25","35","false"
"null","null","psychophysics","571","989395","0.0-3.0-1.279","","key","null","16.55","720","410","","","","","","","",""
