rt,response,trial_type,trial_index,time_elapsed,internal_node_id,stimulus,response_type,key_press,avg_frame_time,center_x,center_y,trial,block,test_pos,test_inner_radius,test_outer_radius,ref_inner_radius,ref_outer_radius,test_bigger
17232,"{""p_id"":""7927"",""age"":""20"",""handedness"":""right"",""sex"":""female"",""other_sex"":""""}",survey-html-form,0,17235,0.0-0.0,,,,,,,,,,,,,,
18598,,html-keyboard-response,1,35842,0.0-1.0,"<p style=""color: white"">Welcome to the Size Judgment Experiment. <br>There will be 10 blocks in this experiment. <br>There will be 28 trials in each block. <br>You will be given a chance to take a break between blocks. <br>Press any key to start the experiment.</p>",,,,,,,,,,,,,
12538,,psychophysics,2,48388,0.0-2.0,,key,,16.66711052,556,374,,,,,,,,
4049,arrowright,psychophysics,3,52445,0.0-3.0-0.0,,key,arrowright,16.64609053,556,374,1,1,-1,20,15,25,35,FALSE
null,null,psychophysics,4,53448,0.0-3.0-1.0,,key,null,16.6779661,556,374,,,,,,,,
1943,arrowright,psychophysics,5,55397,0.0-3.0-0.1,,key,arrowright,16.67241379,556,374,2,1,1,27,15,25,35,TRUE
null,null,psychophysics,6,56404,0.0-3.0-1.1,,key,null,16.66101695,556,374,,,,,,,,
3706,arrowright,psychophysics,7,60122,0.0-3.0-0.2,,key,arrowright,16.66666667,556,374,3,1,-1,23,35,25,35,FALSE
null,null,psychophysics,8,61125,0.0-3.0-1.2,,key,null,16.66101695,556,374,,,,,,,,
1020,arrowright,psychophysics,9,62158,0.0-3.0-0.3,,key,arrowright,16.57377049,556,374,4,1,-1,20,35,25,35,FALSE
null,null,psychophysics,10,63162,0.0-3.0-1.3,,key,null,16.63333333,556,374,,,,,,,,
4989,arrowright,psychophysics,11,68156,0.0-3.0-0.4,,key,arrowright,16.66778523,556,374,5,1,1,30,15,25,35,TRUE
null,null,psychophysics,12,69162,0.0-3.0-1.4,,key,null,16.63333333,556,374,,,,,,,,
925,arrowright,psychophysics,13,70091,0.0-3.0-0.5,,key,arrowright,16.66666667,556,374,6,1,1,30,35,25,35,TRUE
null,null,psychophysics,14,71096,0.0-3.0-1.5,,key,null,16.65,556,374,,,,,,,,
2321,arrowright,psychophysics,15,73420,0.0-3.0-0.6,,key,arrowright,16.66666667,556,374,7,1,-1,23,15,25,35,FALSE
null,null,psychophysics,16,74423,0.0-3.0-1.6,,key,null,16.66101695,556,374,,,,,,,,
809,arrowright,psychophysics,17,75240,0.0-3.0-0.7,,key,arrowright,16.58333333,556,374,8,1,-1,20,35,25,35,FALSE
null,null,psychophysics,18,76243,0.0-3.0-1.7,,key,null,16.6779661,556,374,,,,,,,,
1277,arrowleft,psychophysics,19,77530,0.0-3.0-0.8,,key,arrowleft,16.62337662,556,374,9,1,-1,24,15,25,35,TRUE
null,null,psychophysics,20,78533,0.0-3.0-1.8,,key,null,16.6779661,556,374,,,,,,,,
1307,arrowright,psychophysics,21,79844,0.0-3.0-0.9,,key,arrowright,16.66233766,556,374,10,1,1,25,15,25,35,TRUE
null,null,psychophysics,22,80849,0.0-3.0-1.9,,key,null,16.56666667,556,374,,,,,,,,
1138,arrowright,psychophysics,23,81992,0.0-3.0-0.10,,key,arrowright,16.65671642,556,374,11,1,-1,25,35,25,35,FALSE
null,null,psychophysics,24,82997,0.0-3.0-1.10,,key,null,16.65,556,374,,,,,,,,
1071,arrowleft,psychophysics,25,84072,0.0-3.0-0.11,,key,arrowleft,16.68253968,556,374,12,1,-1,26,35,25,35,TRUE
null,null,psychophysics,26,85075,0.0-3.0-1.11,,key,null,16.66101695,556,374,,,,,,,,
830,arrowright,psychophysics,27,85916,0.0-3.0-0.12,,key,arrowright,16.62,556,374,13,1,1,30,15,25,35,TRUE
null,null,psychophysics,28,86922,0.0-3.0-1.12,,key,null,16.66101695,556,374,,,,,,,,
1560,arrowright,psychophysics,29,88487,0.0-3.0-0.13,,key,arrowright,16.66666667,556,374,14,1,1,26,35,25,35,TRUE
null,null,psychophysics,30,89490,0.0-3.0-1.13,,key,null,16.6779661,556,374,,,,,,,,
1243,arrowleft,psychophysics,31,90736,0.0-3.0-0.14,,key,arrowleft,16.66216216,556,374,15,1,-1,26,15,25,35,TRUE
null,null,psychophysics,32,91739,0.0-3.0-1.14,,key,null,16.6440678,556,374,,,,,,,,
2553,arrowleft,psychophysics,33,94298,0.0-3.0-0.15,,key,arrowleft,16.65359477,556,374,16,1,-1,23,15,25,35,TRUE
null,null,psychophysics,34,95301,0.0-3.0-1.15,,key,null,16.6779661,556,374,,,,,,,,
1085,arrowright,psychophysics,35,96390,0.0-3.0-0.16,,key,arrowright,16.65625,556,374,17,1,1,25,35,25,35,TRUE
null,null,psychophysics,36,97394,0.0-3.0-1.16,,key,null,16.6779661,556,374,,,,,,,,
842,arrowright,psychophysics,37,98248,0.0-3.0-0.17,,key,arrowright,16.58823529,556,374,18,1,1,26,15,25,35,TRUE
null,null,psychophysics,38,99254,0.0-3.0-1.17,,key,null,16.66101695,556,374,,,,,,,,
1094,arrowright,psychophysics,39,100351,0.0-3.0-0.18,,key,arrowright,16.64615385,556,374,19,1,1,25,35,25,35,TRUE
null,null,psychophysics,40,101355,0.0-3.0-1.18,,key,null,16.66101695,556,374,,,,,,,,
796,arrowright,psychophysics,41,102155,0.0-3.0-0.19,,key,arrowright,16.65957447,556,374,20,1,1,25,15,25,35,TRUE
null,null,psychophysics,42,103158,0.0-3.0-1.19,,key,null,16.66101695,556,374,,,,,,,,
743,arrowright,psychophysics,43,103905,0.0-3.0-0.20,,key,arrowright,16.68181818,556,374,21,1,-1,26,35,25,35,FALSE
null,null,psychophysics,44,104908,0.0-3.0-1.20,,key,null,16.6779661,556,374,,,,,,,,
732,arrowleft,psychophysics,45,105656,0.0-3.0-0.21,,key,arrowleft,16.61363636,556,374,22,1,-1,30,15,25,35,TRUE
null,null,psychophysics,46,106659,0.0-3.0-1.21,,key,null,16.6779661,556,374,,,,,,,,
743,arrowright,psychophysics,47,107405,0.0-3.0-0.22,,key,arrowright,16.68181818,556,374,23,1,1,30,35,25,35,TRUE
null,null,psychophysics,48,108408,0.0-3.0-1.22,,key,null,16.6779661,556,374,,,,,,,,
961,arrowleft,psychophysics,49,109373,0.0-3.0-0.23,,key,arrowleft,16.68421053,556,374,24,1,1,20,35,25,35,FALSE
null,null,psychophysics,50,110375,0.0-3.0-1.23,,key,null,16.66101695,556,374,,,,,,,,
710,arrowright,psychophysics,51,111100,0.0-3.0-0.24,,key,arrowright,16.65116279,556,374,25,1,-1,25,35,25,35,FALSE
null,null,psychophysics,52,112104,0.0-3.0-1.24,,key,null,16.66101695,556,374,,,,,,,,
743,arrowright,psychophysics,53,112852,0.0-3.0-0.25,,key,arrowright,16.63636364,556,374,26,1,1,26,15,25,35,TRUE
null,null,psychophysics,54,113854,0.0-3.0-1.25,,key,null,16.6440678,556,374,,,,,,,,
533,arrowright,psychophysics,55,114391,0.0-3.0-0.26,,key,arrowright,16.67741935,556,374,27,1,1,30,15,25,35,TRUE
null,null,psychophysics,56,115393,0.0-3.0-1.26,,key,null,16.6779661,556,374,,,,,,,,
902,arrowright,psychophysics,57,116306,0.0-3.0-0.27,,key,arrowright,16.66666667,556,374,28,2,1,26,35,25,35,TRUE
null,null,psychophysics,58,117312,0.0-3.0-1.27,,key,null,16.6779661,556,374,,,,,,,,
18494,,html-keyboard-response,59,135809,0.0-3.0-2.27-0.27,"<div style=""color: white; text-align: center; vertical-align: top; display: inline-block; width: 800px; margin: auto""><p>You have completed 10% of the trials. You are on block 2 of 10. <br>Good job! Take a break if you need to.</p><p>Press any key to continue the experiment.</p></div>",,,,,,,,,,,,,
1390,arrowright,psychophysics,60,138208,0.0-3.0-0.28,,key,arrowright,16.65853659,556,374,29,2,1,25,35,25,35,TRUE
null,null,psychophysics,61,139212,0.0-3.0-1.28,,key,null,16.6779661,556,374,,,,,,,,
604,arrowleft,psychophysics,62,139819,0.0-3.0-0.29,,key,arrowleft,16.66666667,556,374,30,2,1,20,15,25,35,FALSE
null,null,psychophysics,63,140822,0.0-3.0-1.29,,key,null,16.6779661,556,374,,,,,,,,
716,arrowright,psychophysics,64,141542,0.0-3.0-0.30,,key,arrowright,16.66666667,556,374,31,2,1,23,15,25,35,TRUE
null,null,psychophysics,65,142548,0.0-3.0-1.30,,key,null,16.6440678,556,374,,,,,,,,
818,arrowleft,psychophysics,66,143377,0.0-3.0-0.31,,key,arrowleft,16.63265306,556,374,32,2,-1,30,35,25,35,TRUE
null,null,psychophysics,67,144380,0.0-3.0-1.31,,key,null,16.66101695,556,374,,,,,,,,
666,arrowright,psychophysics,68,145056,0.0-3.0-0.32,,key,arrowright,16.65,556,374,33,2,1,30,35,25,35,TRUE
null,null,psychophysics,69,146059,0.0-3.0-1.32,,key,null,16.66101695,556,374,,,,,,,,
1442,arrowleft,psychophysics,70,147504,0.0-3.0-0.33,,key,arrowleft,16.6627907,556,374,34,2,-1,25,15,25,35,TRUE
null,null,psychophysics,71,148509,0.0-3.0-1.33,,key,null,16.6779661,556,374,,,,,,,,
1158,arrowleft,psychophysics,72,149670,0.0-3.0-0.34,,key,arrowleft,16.65217391,556,374,35,2,1,23,35,25,35,FALSE
null,null,psychophysics,73,150672,0.0-3.0-1.34,,key,null,16.66101695,556,374,,,,,,,,
897,arrowleft,psychophysics,74,151574,0.0-3.0-0.35,,key,arrowleft,16.66037736,556,374,36,2,1,23,35,25,35,FALSE
null,null,psychophysics,75,152578,0.0-3.0-1.35,,key,null,16.6779661,556,374,,,,,,,,
711,arrowright,psychophysics,76,153292,0.0-3.0-0.36,,key,arrowright,16.66666667,556,374,37,2,1,27,15,25,35,TRUE
null,null,psychophysics,77,154300,0.0-3.0-1.36,,key,null,16.6779661,556,374,,,,,,,,
671,arrowright,psychophysics,78,154982,0.0-3.0-0.37,,key,arrowright,16.6,556,374,38,2,1,30,15,25,35,TRUE
null,null,psychophysics,79,155984,0.0-3.0-1.37,,key,null,16.6779661,556,374,,,,,,,,
679,arrowright,psychophysics,80,156672,0.0-3.0-0.38,,key,arrowright,16.58536585,556,374,39,2,1,26,15,25,35,TRUE
null,null,psychophysics,81,157675,0.0-3.0-1.38,,key,null,16.6779661,556,374,,,,,,,,
1000,arrowright,psychophysics,82,158679,0.0-3.0-0.39,,key,arrowright,16.66101695,556,374,40,2,1,26,35,25,35,TRUE
null,null,psychophysics,83,159681,0.0-3.0-1.39,,key,null,16.66101695,556,374,,,,,,,,
1275,arrowleft,psychophysics,84,160971,0.0-3.0-0.40,,key,arrowleft,16.61038961,556,374,41,2,1,23,15,25,35,FALSE
null,null,psychophysics,85,161974,0.0-3.0-1.40,,key,null,16.66101695,556,374,,,,,,,,
734,arrowright,psychophysics,86,162712,0.0-3.0-0.41,,key,arrowright,16.65116279,556,374,42,2,1,27,15,25,35,TRUE
null,null,psychophysics,87,163715,0.0-3.0-1.41,,key,null,16.6779661,556,374,,,,,,,,
1170,arrowleft,psychophysics,88,164899,0.0-3.0-0.42,,key,arrowleft,16.67142857,556,374,43,2,-1,25,15,25,35,TRUE
null,null,psychophysics,89,165902,0.0-3.0-1.42,,key,null,16.66101695,556,374,,,,,,,,
768,arrowright,psychophysics,90,166678,0.0-3.0-0.43,,key,arrowright,16.5,556,374,44,2,1,27,35,25,35,TRUE
null,null,psychophysics,91,167681,0.0-3.0-1.43,,key,null,16.6779661,556,374,,,,,,,,
940,arrowright,psychophysics,92,168624,0.0-3.0-0.44,,key,arrowright,16.67857143,556,374,45,2,1,24,15,25,35,TRUE
null,null,psychophysics,93,169627,0.0-3.0-1.44,,key,null,16.66101695,556,374,,,,,,,,
703,arrowright,psychophysics,94,170333,0.0-3.0-0.45,,key,arrowright,16.68292683,556,374,46,2,1,25,15,25,35,TRUE
null,null,psychophysics,95,171338,0.0-3.0-1.45,,key,null,16.65,556,374,,,,,,,,
1168,arrowright,psychophysics,96,172514,0.0-3.0-0.46,,key,arrowright,16.66666667,556,374,47,2,1,25,35,25,35,TRUE
null,null,psychophysics,97,173516,0.0-3.0-1.46,,key,null,16.66101695,556,374,,,,,,,,
1141,arrowright,psychophysics,98,174667,0.0-3.0-0.47,,key,arrowright,16.66176471,556,374,48,2,-1,24,15,25,35,FALSE
null,null,psychophysics,99,175669,0.0-3.0-1.47,,key,null,16.66101695,556,374,,,,,,,,
902,arrowleft,psychophysics,100,176584,0.0-3.0-0.48,,key,arrowleft,16.62962963,556,374,49,2,-1,30,15,25,35,TRUE
null,null,psychophysics,101,177590,0.0-3.0-1.48,,key,null,16.65,556,374,,,,,,,,
1545,arrowleft,psychophysics,102,179144,0.0-3.0-0.49,,key,arrowleft,16.66304348,556,374,50,2,1,20,15,25,35,FALSE
null,null,psychophysics,103,180147,0.0-3.0-1.49,,key,null,16.66101695,556,374,,,,,,,,
1364,arrowright,psychophysics,104,181514,0.0-3.0-0.50,,key,arrowright,16.66666667,556,374,51,2,-1,24,15,25,35,FALSE
null,null,psychophysics,105,182518,0.0-3.0-1.50,,key,null,16.6440678,556,374,,,,,,,,
1532,arrowleft,psychophysics,106,184063,0.0-3.0-0.51,,key,arrowleft,16.66304348,556,374,52,2,1,24,35,25,35,FALSE
null,null,psychophysics,107,185069,0.0-3.0-1.51,,key,null,16.6779661,556,374,,,,,,,,
1077,arrowright,psychophysics,108,186157,0.0-3.0-0.52,,key,arrowright,16.61538462,556,374,53,2,1,24,15,25,35,TRUE
null,null,psychophysics,109,187160,0.0-3.0-1.52,,key,null,16.66101695,556,374,,,,,,,,
1625,arrowleft,psychophysics,110,188792,0.0-3.0-0.53,,key,arrowleft,16.65979381,556,374,54,2,1,24,35,25,35,FALSE
null,null,psychophysics,111,189795,0.0-3.0-1.53,,key,null,16.6779661,556,374,,,,,,,,
1376,arrowleft,psychophysics,112,191179,0.0-3.0-0.54,,key,arrowleft,16.67073171,556,374,55,2,1,20,15,25,35,FALSE
null,null,psychophysics,113,192183,0.0-3.0-1.54,,key,null,16.66101695,556,374,,,,,,,,
1400,arrowleft,psychophysics,114,193586,0.0-3.0-0.55,,key,arrowleft,16.6746988,556,374,56,3,1,20,15,25,35,FALSE
null,null,psychophysics,115,194591,0.0-3.0-1.55,,key,null,16.65,556,374,,,,,,,,
8410,,html-keyboard-response,116,203002,0.0-3.0-2.55-0.55,"<div style=""color: white; text-align: center; vertical-align: top; display: inline-block; width: 800px; margin: auto""><p>You have completed 20% of the trials. You are on block 3 of 10. <br>Good job! Take a break if you need to.</p><p>Press any key to continue the experiment.</p></div>",,,,,,,,,,,,,
1224,arrowleft,psychophysics,117,205236,0.0-3.0-0.56,,key,arrowleft,16.66666667,556,374,57,3,-1,26,35,25,35,TRUE
null,null,psychophysics,118,206239,0.0-3.0-1.56,,key,null,16.66101695,556,374,,,,,,,,
763,arrowleft,psychophysics,119,207012,0.0-3.0-0.57,,key,arrowleft,16.58695652,556,374,58,3,-1,27,35,25,35,TRUE
null,null,psychophysics,120,208017,0.0-3.0-1.57,,key,null,16.6779661,556,374,,,,,,,,
845,arrowright,psychophysics,121,208865,0.0-3.0-0.58,,key,arrowright,16.66,556,374,59,3,1,26,35,25,35,TRUE
null,null,psychophysics,122,209871,0.0-3.0-1.58,,key,null,16.66101695,556,374,,,,,,,,
722,arrowright,psychophysics,123,210603,0.0-3.0-0.59,,key,arrowright,16.62790698,556,374,60,3,-1,20,35,25,35,FALSE
null,null,psychophysics,124,211606,0.0-3.0-1.59,,key,null,16.6779661,556,374,,,,,,,,
833,arrowleft,psychophysics,125,212449,0.0-3.0-0.60,,key,arrowleft,16.6,556,374,61,3,-1,30,15,25,35,TRUE
null,null,psychophysics,126,213452,0.0-3.0-1.60,,key,null,16.66101695,556,374,,,,,,,,
640,arrowleft,psychophysics,127,214095,0.0-3.0-0.61,,key,arrowleft,16.63157895,556,374,62,3,-1,30,15,25,35,TRUE
null,null,psychophysics,128,215098,0.0-3.0-1.61,,key,null,16.6779661,556,374,,,,,,,,
931,arrowleft,psychophysics,129,216038,0.0-3.0-0.62,,key,arrowleft,16.67272727,556,374,63,3,1,20,15,25,35,FALSE
null,null,psychophysics,130,217040,0.0-3.0-1.62,,key,null,16.66101695,556,374,,,,,,,,
598,arrowright,psychophysics,131,217647,0.0-3.0-0.63,,key,arrowright,16.61111111,556,374,64,3,1,30,15,25,35,TRUE
null,null,psychophysics,132,218651,0.0-3.0-1.63,,key,null,16.6779661,556,374,,,,,,,,
621,arrowright,psychophysics,133,219278,0.0-3.0-0.64,,key,arrowright,16.62162162,556,374,65,3,-1,20,15,25,35,FALSE
null,null,psychophysics,134,220281,0.0-3.0-1.64,,key,null,16.66101695,556,374,,,,,,,,
622,arrowright,psychophysics,135,220905,0.0-3.0-0.65,,key,arrowright,16.66666667,556,374,66,3,1,30,15,25,35,TRUE
null,null,psychophysics,136,221913,0.0-3.0-1.65,,key,null,16.58333333,556,374,,,,,,,,
619,arrowright,psychophysics,137,222536,0.0-3.0-0.66,,key,arrowright,16.66666667,556,374,67,3,1,30,15,25,35,TRUE
null,null,psychophysics,138,223539,0.0-3.0-1.66,,key,null,16.6779661,556,374,,,,,,,,
653,arrowleft,psychophysics,139,224204,0.0-3.0-0.67,,key,arrowleft,16.61538462,556,374,68,3,-1,30,15,25,35,TRUE
null,null,psychophysics,140,225208,0.0-3.0-1.67,,key,null,16.66101695,556,374,,,,,,,,
1059,arrowleft,psychophysics,141,226278,0.0-3.0-0.68,,key,arrowleft,16.609375,556,374,69,3,-1,26,35,25,35,TRUE
null,null,psychophysics,142,227286,0.0-3.0-1.68,,key,null,16.6779661,556,374,,,,,,,,
818,arrowright,psychophysics,143,228107,0.0-3.0-0.69,,key,arrowright,16.66666667,556,374,70,3,1,23,15,25,35,TRUE
null,null,psychophysics,144,229111,0.0-3.0-1.69,,key,null,16.65,556,374,,,,,,,,
632,arrowleft,psychophysics,145,229746,0.0-3.0-0.70,,key,arrowleft,16.62162162,556,374,71,3,-1,26,15,25,35,TRUE
null,null,psychophysics,146,230748,0.0-3.0-1.70,,key,null,16.69491525,556,374,,,,,,,,
737,arrowright,psychophysics,147,231489,0.0-3.0-0.71,,key,arrowright,16.6744186,556,374,72,3,1,24,35,25,35,TRUE
null,null,psychophysics,148,232492,0.0-3.0-1.71,,key,null,16.66101695,556,374,,,,,,,,
718,arrowleft,psychophysics,149,233225,0.0-3.0-0.72,,key,arrowleft,16.44186047,556,374,73,3,-1,27,15,25,35,TRUE
null,null,psychophysics,150,234228,0.0-3.0-1.72,,key,null,16.63333333,556,374,,,,,,,,
631,arrowright,psychophysics,151,234864,0.0-3.0-0.73,,key,arrowright,16.64864865,556,374,74,3,-1,24,35,25,35,FALSE
null,null,psychophysics,152,235866,0.0-3.0-1.73,,key,null,16.6779661,556,374,,,,,,,,
882,arrowright,psychophysics,153,236752,0.0-3.0-0.74,,key,arrowright,16.67307692,556,374,75,3,1,27,15,25,35,TRUE
null,null,psychophysics,154,237755,0.0-3.0-1.74,,key,null,16.6779661,556,374,,,,,,,,
945,arrowleft,psychophysics,155,238703,0.0-3.0-0.75,,key,arrowleft,16.67857143,556,374,76,3,-1,27,35,25,35,TRUE
null,null,psychophysics,156,239708,0.0-3.0-1.75,,key,null,16.6779661,556,374,,,,,,,,
946,arrowleft,psychophysics,157,240665,0.0-3.0-0.76,,key,arrowleft,16.64912281,556,374,77,3,1,20,15,25,35,FALSE
null,null,psychophysics,158,241668,0.0-3.0-1.76,,key,null,16.6440678,556,374,,,,,,,,
740,arrowright,psychophysics,159,242412,0.0-3.0-0.77,,key,arrowright,16.65909091,556,374,78,3,1,23,15,25,35,TRUE
null,null,psychophysics,160,243414,0.0-3.0-1.77,,key,null,16.6779661,556,374,,,,,,,,
790,arrowright,psychophysics,161,244207,0.0-3.0-0.78,,key,arrowright,16.63043478,556,374,79,3,-1,23,35,25,35,FALSE
null,null,psychophysics,162,245215,0.0-3.0-1.78,,key,null,16.56666667,556,374,,,,,,,,
865,arrowright,psychophysics,163,246082,0.0-3.0-0.79,,key,arrowright,16.68627451,556,374,80,3,1,27,35,25,35,TRUE
null,null,psychophysics,164,247084,0.0-3.0-1.79,,key,null,16.6779661,556,374,,,,,,,,
1337,arrowleft,psychophysics,165,248425,0.0-3.0-0.80,,key,arrowleft,16.67088608,556,374,81,3,-1,25,15,25,35,TRUE
null,null,psychophysics,166,249427,0.0-3.0-1.80,,key,null,16.6779661,556,374,,,,,,,,
902,arrowleft,psychophysics,167,250342,0.0-3.0-0.81,,key,arrowleft,16.59259259,556,374,82,3,1,27,35,25,35,FALSE
null,null,psychophysics,168,251348,0.0-3.0-1.81,,key,null,16.6,556,374,,,,,,,,
684,arrowleft,psychophysics,169,252037,0.0-3.0-0.82,,key,arrowleft,16.65,556,374,83,3,-1,30,35,25,35,TRUE
null,null,psychophysics,170,253039,0.0-3.0-1.82,,key,null,16.66101695,556,374,,,,,,,,
817,arrowright,psychophysics,171,253859,0.0-3.0-0.83,,key,arrowright,16.66666667,556,374,84,4,1,25,15,25,35,TRUE
null,null,psychophysics,172,254864,0.0-3.0-1.83,,key,null,16.65,556,374,,,,,,,,
4889,,html-keyboard-response,173,259754,0.0-3.0-2.83-0.83,"<div style=""color: white; text-align: center; vertical-align: top; display: inline-block; width: 800px; margin: auto""><p>You have completed 30% of the trials. You are on block 4 of 10. <br>Good job! Take a break if you need to.</p><p>Press any key to continue the experiment.</p></div>",,,,,,,,,,,,,
1053,arrowleft,psychophysics,174,261816,0.0-3.0-0.84,,key,arrowleft,16.69354839,556,374,85,4,-1,23,15,25,35,TRUE
null,null,psychophysics,175,262819,0.0-3.0-1.84,,key,null,16.66101695,556,374,,,,,,,,
675,arrowleft,psychophysics,176,263498,0.0-3.0-0.85,,key,arrowleft,16.65,556,374,86,4,1,23,35,25,35,FALSE
null,null,psychophysics,177,264501,0.0-3.0-1.85,,key,null,16.6779661,556,374,,,,,,,,
986,arrowright,psychophysics,178,265492,0.0-3.0-0.86,,key,arrowright,16.65517241,556,374,87,4,-1,26,35,25,35,FALSE
null,null,psychophysics,179,266500,0.0-3.0-1.86,,key,null,16.58333333,556,374,,,,,,,,
969,arrowright,psychophysics,180,267474,0.0-3.0-0.87,,key,arrowright,16.66666667,556,374,88,4,1,26,35,25,35,TRUE
null,null,psychophysics,181,268477,0.0-3.0-1.87,,key,null,16.6779661,556,374,,,,,,,,
697,arrowright,psychophysics,182,269186,0.0-3.0-0.88,,key,arrowright,16.5952381,556,374,89,4,-1,23,35,25,35,FALSE
null,null,psychophysics,183,270190,0.0-3.0-1.88,,key,null,16.6779661,556,374,,,,,,,,
997,arrowright,psychophysics,184,271190,0.0-3.0-0.89,,key,arrowright,16.6779661,556,374,90,4,1,27,35,25,35,TRUE
null,null,psychophysics,185,272199,0.0-3.0-1.89,,key,null,16.61666667,556,374,,,,,,,,
1142,arrowright,psychophysics,186,273345,0.0-3.0-0.90,,key,arrowright,16.67164179,556,374,91,4,-1,23,35,25,35,FALSE
null,null,psychophysics,187,274349,0.0-3.0-1.90,,key,null,16.65,556,374,,,,,,,,
1038,arrowleft,psychophysics,188,275391,0.0-3.0-0.91,,key,arrowleft,16.67213115,556,374,92,4,-1,26,15,25,35,TRUE
null,null,psychophysics,189,276394,0.0-3.0-1.91,,key,null,16.6779661,556,374,,,,,,,,
646,arrowright,psychophysics,190,277050,0.0-3.0-0.92,,key,arrowright,16.64102564,556,374,93,4,1,27,15,25,35,TRUE
null,null,psychophysics,191,278060,0.0-3.0-1.92,,key,null,16.6779661,556,374,,,,,,,,
954,arrowright,psychophysics,192,279024,0.0-3.0-0.93,,key,arrowright,16.64912281,556,374,94,4,-1,23,35,25,35,FALSE
null,null,psychophysics,193,280027,0.0-3.0-1.93,,key,null,16.6779661,556,374,,,,,,,,
701,arrowleft,psychophysics,194,280739,0.0-3.0-0.94,,key,arrowleft,16.64285714,556,374,95,4,-1,24,15,25,35,TRUE
null,null,psychophysics,195,281742,0.0-3.0-1.94,,key,null,16.66101695,556,374,,,,,,,,
802,arrowright,psychophysics,196,282546,0.0-3.0-0.95,,key,arrowright,16.65957447,556,374,96,4,1,24,15,25,35,TRUE
null,null,psychophysics,197,283554,0.0-3.0-1.95,,key,null,16.53333333,556,374,,,,,,,,
767,arrowleft,psychophysics,198,284327,0.0-3.0-0.96,,key,arrowleft,16.66666667,556,374,97,4,-1,27,35,25,35,TRUE
null,null,psychophysics,199,285330,0.0-3.0-1.96,,key,null,16.6779661,556,374,,,,,,,,
670,arrowright,psychophysics,200,286010,0.0-3.0-0.97,,key,arrowright,16.6,556,374,98,4,1,30,15,25,35,TRUE
null,null,psychophysics,201,287013,0.0-3.0-1.97,,key,null,16.6779661,556,374,,,,,,,,
901,arrowright,psychophysics,202,287924,0.0-3.0-0.98,,key,arrowright,16.61111111,556,374,99,4,-1,25,35,25,35,FALSE
null,null,psychophysics,203,288926,0.0-3.0-1.98,,key,null,16.66101695,556,374,,,,,,,,
710,arrowright,psychophysics,204,289652,0.0-3.0-0.99,,key,arrowright,16.55813953,556,374,100,4,1,30,35,25,35,TRUE
null,null,psychophysics,205,290655,0.0-3.0-1.99,,key,null,16.69491525,556,374,,,,,,,,
941,arrowright,psychophysics,206,291602,0.0-3.0-0.100,,key,arrowright,16.66071429,556,374,101,4,1,25,15,25,35,TRUE
null,null,psychophysics,207,292605,0.0-3.0-1.100,,key,null,16.6779661,556,374,,,,,,,,
770,arrowright,psychophysics,208,293379,0.0-3.0-0.101,,key,arrowright,16.66666667,556,374,102,4,1,25,35,25,35,TRUE
null,null,psychophysics,209,294381,0.0-3.0-1.101,,key,null,16.6779661,556,374,,,,,,,,
830,arrowright,psychophysics,210,295222,0.0-3.0-0.102,,key,arrowright,16.62,556,374,103,4,-1,27,35,25,35,FALSE
null,null,psychophysics,211,296230,0.0-3.0-1.102,,key,null,16.69491525,556,374,,,,,,,,
779,arrowleft,psychophysics,212,297019,0.0-3.0-0.103,,key,arrowleft,16.61702128,556,374,104,4,1,20,15,25,35,FALSE
null,null,psychophysics,213,298021,0.0-3.0-1.103,,key,null,16.66101695,556,374,,,,,,,,
922,arrowleft,psychophysics,214,298947,0.0-3.0-0.104,,key,arrowleft,16.66666667,556,374,105,4,-1,26,15,25,35,TRUE
null,null,psychophysics,215,299952,0.0-3.0-1.104,,key,null,16.61666667,556,374,,,,,,,,
720,arrowright,psychophysics,216,300676,0.0-3.0-0.105,,key,arrowright,16.66666667,556,374,106,4,-1,20,15,25,35,FALSE
null,null,psychophysics,217,301680,0.0-3.0-1.105,,key,null,16.66101695,556,374,,,,,,,,
718,arrowright,psychophysics,218,302407,0.0-3.0-0.106,,key,arrowright,16.65116279,556,374,107,4,1,30,35,25,35,TRUE
null,null,psychophysics,219,303415,0.0-3.0-1.106,,key,null,16.6779661,556,374,,,,,,,,
937,arrowleft,psychophysics,220,304362,0.0-3.0-0.107,,key,arrowleft,16.625,556,374,108,4,1,23,35,25,35,FALSE
null,null,psychophysics,221,305366,0.0-3.0-1.107,,key,null,16.6779661,556,374,,,,,,,,
821,arrowleft,psychophysics,222,306197,0.0-3.0-0.108,,key,arrowleft,16.6122449,556,374,109,4,-1,27,15,25,35,TRUE
null,null,psychophysics,223,307202,0.0-3.0-1.108,,key,null,16.65,556,374,,,,,,,,
960,arrowright,psychophysics,224,308166,0.0-3.0-0.109,,key,arrowright,16.66071429,556,374,110,4,-1,20,35,25,35,FALSE
null,null,psychophysics,225,309169,0.0-3.0-1.109,,key,null,16.63333333,556,374,,,,,,,,
897,arrowleft,psychophysics,226,310070,0.0-3.0-0.110,,key,arrowleft,16.66037736,556,374,111,4,-1,25,15,25,35,TRUE
null,null,psychophysics,227,311074,0.0-3.0-1.110,,key,null,16.6779661,556,374,,,,,,,,
1461,arrowleft,psychophysics,228,312553,0.0-3.0-0.111,,key,arrowleft,16.625,556,374,112,5,-1,25,35,25,35,TRUE
null,null,psychophysics,229,313556,0.0-3.0-1.111,,key,null,16.66101695,556,374,,,,,,,,
10619,,html-keyboard-response,230,324177,0.0-3.0-2.111-0.111,"<div style=""color: white; text-align: center; vertical-align: top; display: inline-block; width: 800px; margin: auto""><p>You have completed 40% of the trials. You are on block 5 of 10. <br>Good job! Take a break if you need to.</p><p>Press any key to continue the experiment.</p></div>",,,,,,,,,,,,,
960,arrowright,psychophysics,231,326148,0.0-3.0-0.112,,key,arrowright,16.66071429,556,374,113,5,1,24,15,25,35,TRUE
null,null,psychophysics,232,327154,0.0-3.0-1.112,,key,null,16.65,556,374,,,,,,,,
576,arrowright,psychophysics,233,327734,0.0-3.0-0.113,,key,arrowright,16.66666667,556,374,114,5,1,27,35,25,35,TRUE
null,null,psychophysics,234,328738,0.0-3.0-1.113,,key,null,16.65,556,374,,,,,,,,
920,arrowright,psychophysics,235,329664,0.0-3.0-0.114,,key,arrowright,16.66666667,556,374,115,5,-1,24,15,25,35,FALSE
null,null,psychophysics,236,330668,0.0-3.0-1.114,,key,null,16.66101695,556,374,,,,,,,,
583,arrowleft,psychophysics,237,331261,0.0-3.0-0.115,,key,arrowleft,16.6,556,374,116,5,-1,26,15,25,35,TRUE
null,null,psychophysics,238,332264,0.0-3.0-1.115,,key,null,16.66101695,556,374,,,,,,,,
836,arrowright,psychophysics,239,333111,0.0-3.0-0.116,,key,arrowright,16.54,556,374,117,5,-1,24,35,25,35,FALSE
null,null,psychophysics,240,334114,0.0-3.0-1.116,,key,null,16.6779661,556,374,,,,,,,,
1055,arrowright,psychophysics,241,335173,0.0-3.0-0.117,,key,arrowright,16.68253968,556,374,118,5,-1,25,35,25,35,FALSE
null,null,psychophysics,242,336175,0.0-3.0-1.117,,key,null,16.6779661,556,374,,,,,,,,
629,arrowleft,psychophysics,243,336808,0.0-3.0-0.118,,key,arrowleft,16.64864865,556,374,119,5,-1,30,35,25,35,TRUE
null,null,psychophysics,244,337810,0.0-3.0-1.118,,key,null,16.66101695,556,374,,,,,,,,
1051,arrowleft,psychophysics,245,338876,0.0-3.0-0.119,,key,arrowleft,16.66666667,556,374,120,5,-1,23,15,25,35,TRUE
null,null,psychophysics,246,339880,0.0-3.0-1.119,,key,null,16.6779661,556,374,,,,,,,,
1060,arrowright,psychophysics,247,340945,0.0-3.0-0.120,,key,arrowright,16.68253968,556,374,121,5,-1,23,15,25,35,FALSE
null,null,psychophysics,248,341949,0.0-3.0-1.120,,key,null,16.69491525,556,374,,,,,,,,
998,arrowright,psychophysics,249,342950,0.0-3.0-0.121,,key,arrowright,16.6779661,556,374,122,5,-1,24,15,25,35,FALSE
null,null,psychophysics,250,343953,0.0-3.0-1.121,,key,null,16.6779661,556,374,,,,,,,,
825,arrowleft,psychophysics,251,344789,0.0-3.0-0.122,,key,arrowleft,16.44,556,374,123,5,-1,25,15,25,35,TRUE
null,null,psychophysics,252,345792,0.0-3.0-1.122,,key,null,16.69491525,556,374,,,,,,,,
690,arrowright,psychophysics,253,346485,0.0-3.0-0.123,,key,arrowright,16.65,556,374,124,5,-1,24,35,25,35,FALSE
null,null,psychophysics,254,347490,0.0-3.0-1.123,,key,null,16.65,556,374,,,,,,,,
705,arrowright,psychophysics,255,348198,0.0-3.0-0.124,,key,arrowright,16.65853659,556,374,125,5,-1,24,35,25,35,FALSE
null,null,psychophysics,256,349202,0.0-3.0-1.124,,key,null,16.6779661,556,374,,,,,,,,
711,arrowright,psychophysics,257,349924,0.0-3.0-0.125,,key,arrowright,16.58139535,556,374,126,5,1,26,15,25,35,TRUE
null,null,psychophysics,258,350927,0.0-3.0-1.125,,key,null,16.6779661,556,374,,,,,,,,
1453,arrowright,psychophysics,259,352397,0.0-3.0-0.126,,key,arrowright,16.65517241,556,374,127,5,1,23,15,25,35,TRUE
null,null,psychophysics,260,353400,0.0-3.0-1.126,,key,null,16.6779661,556,374,,,,,,,,
697,arrowright,psychophysics,261,354101,0.0-3.0-0.127,,key,arrowright,16.65853659,556,374,128,5,-1,24,15,25,35,FALSE
null,null,psychophysics,262,355104,0.0-3.0-1.127,,key,null,16.6779661,556,374,,,,,,,,
662,arrowright,psychophysics,263,355775,0.0-3.0-0.128,,key,arrowright,16.575,556,374,129,5,-1,27,35,25,35,FALSE
null,null,psychophysics,264,356778,0.0-3.0-1.128,,key,null,16.6779661,556,374,,,,,,,,
773,arrowright,psychophysics,265,357558,0.0-3.0-0.129,,key,arrowright,16.65217391,556,374,130,5,1,26,15,25,35,TRUE
null,null,psychophysics,266,358562,0.0-3.0-1.129,,key,null,16.66101695,556,374,,,,,,,,
810,arrowright,psychophysics,267,359392,0.0-3.0-0.130,,key,arrowright,16.6122449,556,374,131,5,-1,25,35,25,35,FALSE
null,null,psychophysics,268,360394,0.0-3.0-1.130,,key,null,16.6779661,556,374,,,,,,,,
713,arrowright,psychophysics,269,361111,0.0-3.0-0.131,,key,arrowright,16.66666667,556,374,132,5,1,27,35,25,35,TRUE
null,null,psychophysics,270,362116,0.0-3.0-1.131,,key,null,16.6779661,556,374,,,,,,,,
576,arrowright,psychophysics,271,362695,0.0-3.0-0.132,,key,arrowright,16.67647059,556,374,133,5,1,27,35,25,35,TRUE
null,null,psychophysics,272,363699,0.0-3.0-1.132,,key,null,16.66101695,556,374,,,,,,,,
691,arrowright,psychophysics,273,364393,0.0-3.0-0.133,,key,arrowright,16.63414634,556,374,134,5,1,23,15,25,35,TRUE
null,null,psychophysics,274,365402,0.0-3.0-1.133,,key,null,16.66101695,556,374,,,,,,,,
902,arrowright,psychophysics,275,366313,0.0-3.0-0.134,,key,arrowright,16.66666667,556,374,135,5,1,24,15,25,35,TRUE
null,null,psychophysics,276,367317,0.0-3.0-1.134,,key,null,16.6440678,556,374,,,,,,,,
1772,arrowright,psychophysics,277,369100,0.0-3.0-0.135,,key,arrowright,16.66981132,556,374,136,5,1,24,35,25,35,TRUE
null,null,psychophysics,278,370104,0.0-3.0-1.135,,key,null,16.6779661,556,374,,,,,,,,
1179,arrowright,psychophysics,279,371301,0.0-3.0-0.136,,key,arrowright,16.54929577,556,374,137,5,-1,23,15,25,35,FALSE
null,null,psychophysics,280,372304,0.0-3.0-1.136,,key,null,16.66101695,556,374,,,,,,,,
679,arrowright,psychophysics,281,372994,0.0-3.0-0.137,,key,arrowright,16.6097561,556,374,138,5,1,30,35,25,35,TRUE
null,null,psychophysics,282,373997,0.0-3.0-1.137,,key,null,16.6779661,556,374,,,,,,,,
594,arrowright,psychophysics,283,374595,0.0-3.0-0.138,,key,arrowright,16.65714286,556,374,139,5,1,25,15,25,35,TRUE
null,null,psychophysics,284,375598,0.0-3.0-1.138,,key,null,16.66101695,556,374,,,,,,,,
952,arrowleft,psychophysics,285,376565,0.0-3.0-0.139,,key,arrowleft,16.64912281,556,374,140,6,-1,27,15,25,35,TRUE
null,null,psychophysics,286,377568,0.0-3.0-1.139,,key,null,16.6779661,556,374,,,,,,,,
8153,,html-keyboard-response,287,385723,0.0-3.0-2.139-0.139,"<div style=""color: white; text-align: center; vertical-align: top; display: inline-block; width: 800px; margin: auto""><p>You have completed 50% of the trials. You are on block 6 of 10. <br>Good job! Take a break if you need to.</p><p>Press any key to continue the experiment.</p></div>",,,,,,,,,,,,,
1200,arrowright,psychophysics,288,387937,0.0-3.0-0.140,,key,arrowright,16.67142857,556,374,141,6,-1,20,15,25,35,FALSE
null,null,psychophysics,289,388941,0.0-3.0-1.140,,key,null,16.66101695,556,374,,,,,,,,
621,arrowright,psychophysics,290,389572,0.0-3.0-0.141,,key,arrowright,16.59459459,556,374,142,6,1,30,35,25,35,TRUE
null,null,psychophysics,291,390577,0.0-3.0-1.141,,key,null,16.66666667,556,374,,,,,,,,
3686,arrowright,psychophysics,292,394266,0.0-3.0-0.142,,key,arrowright,16.66818182,556,374,143,6,-1,26,35,25,35,FALSE
null,null,psychophysics,293,395278,0.0-3.0-1.142,,key,null,16.65,556,374,,,,,,,,
1017,arrowright,psychophysics,294,396299,0.0-3.0-0.143,,key,arrowright,16.66666667,556,374,144,6,1,30,15,25,35,TRUE
null,null,psychophysics,295,397303,0.0-3.0-1.143,,key,null,16.66101695,556,374,,,,,,,,
1173,arrowright,psychophysics,296,398479,0.0-3.0-0.144,,key,arrowright,16.65714286,556,374,145,6,-1,24,15,25,35,FALSE
null,null,psychophysics,297,399481,0.0-3.0-1.144,,key,null,16.66101695,556,374,,,,,,,,
658,arrowright,psychophysics,298,400144,0.0-3.0-0.145,,key,arrowright,16.64102564,556,374,146,6,-1,20,35,25,35,FALSE
null,null,psychophysics,299,401154,0.0-3.0-1.145,,key,null,16.66101695,556,374,,,,,,,,
606,arrowright,psychophysics,300,401764,0.0-3.0-0.146,,key,arrowright,16.63888889,556,374,147,6,-1,26,35,25,35,FALSE
null,null,psychophysics,301,402766,0.0-3.0-1.146,,key,null,16.66101695,556,374,,,,,,,,
1135,arrowleft,psychophysics,302,403905,0.0-3.0-0.147,,key,arrowleft,16.67164179,556,374,148,6,-1,30,35,25,35,TRUE
null,null,psychophysics,303,404908,0.0-3.0-1.147,,key,null,16.6779661,556,374,,,,,,,,
1026,arrowleft,psychophysics,304,405945,0.0-3.0-0.148,,key,arrowleft,16.61290323,556,374,149,6,-1,30,35,25,35,TRUE
null,null,psychophysics,305,406954,0.0-3.0-1.148,,key,null,16.66101695,556,374,,,,,,,,
851,arrowleft,psychophysics,306,407808,0.0-3.0-0.149,,key,arrowleft,16.66,556,374,150,6,1,24,35,25,35,FALSE
null,null,psychophysics,307,408812,0.0-3.0-1.149,,key,null,16.65,556,374,,,,,,,,
1051,arrowleft,psychophysics,308,409869,0.0-3.0-0.150,,key,arrowleft,16.66129032,556,374,151,6,1,23,35,25,35,FALSE
null,null,psychophysics,309,410873,0.0-3.0-1.150,,key,null,16.66101695,556,374,,,,,,,,
937,arrowright,psychophysics,310,411814,0.0-3.0-0.151,,key,arrowright,16.66071429,556,374,152,6,1,24,35,25,35,TRUE
null,null,psychophysics,311,412817,0.0-3.0-1.151,,key,null,16.66101695,556,374,,,,,,,,
819,arrowright,psychophysics,312,413654,0.0-3.0-0.152,,key,arrowright,16.65306122,556,374,153,6,1,25,35,25,35,TRUE
null,null,psychophysics,313,414658,0.0-3.0-1.152,,key,null,16.69491525,556,374,,,,,,,,
1281,arrowright,psychophysics,314,415948,0.0-3.0-0.153,,key,arrowright,16.64935065,556,374,154,6,1,24,15,25,35,TRUE
null,null,psychophysics,315,416951,0.0-3.0-1.153,,key,null,16.6779661,556,374,,,,,,,,
1002,arrowleft,psychophysics,316,417956,0.0-3.0-0.154,,key,arrowleft,16.6779661,556,374,155,6,-1,25,15,25,35,TRUE
null,null,psychophysics,317,418959,0.0-3.0-1.154,,key,null,16.69491525,556,374,,,,,,,,
767,arrowleft,psychophysics,318,419743,0.0-3.0-0.155,,key,arrowleft,16.45652174,556,374,156,6,-1,30,35,25,35,TRUE
null,null,psychophysics,319,420747,0.0-3.0-1.155,,key,null,16.65,556,374,,,,,,,,
632,arrowright,psychophysics,320,421382,0.0-3.0-0.156,,key,arrowright,16.64864865,556,374,157,6,1,27,15,25,35,TRUE
null,null,psychophysics,321,422385,0.0-3.0-1.156,,key,null,16.6779661,556,374,,,,,,,,
507,arrowright,psychophysics,322,422898,0.0-3.0-0.157,,key,arrowright,16.7,556,374,158,6,1,27,35,25,35,TRUE
null,null,psychophysics,323,423901,0.0-3.0-1.157,,key,null,16.66101695,556,374,,,,,,,,
744,arrowleft,psychophysics,324,424649,0.0-3.0-0.158,,key,arrowleft,16.63636364,556,374,159,6,1,20,35,25,35,FALSE
null,null,psychophysics,325,425657,0.0-3.0-1.158,,key,null,16.6779661,556,374,,,,,,,,
491,arrowright,psychophysics,326,426152,0.0-3.0-0.159,,key,arrowright,16.65517241,556,374,160,6,1,27,15,25,35,TRUE
null,null,psychophysics,327,427156,0.0-3.0-1.159,,key,null,16.6779661,556,374,,,,,,,,
591,arrowright,psychophysics,328,427750,0.0-3.0-0.160,,key,arrowright,16.65714286,556,374,161,6,-1,23,35,25,35,FALSE
null,null,psychophysics,329,428752,0.0-3.0-1.160,,key,null,16.6779661,556,374,,,,,,,,
795,arrowright,psychophysics,330,429551,0.0-3.0-0.161,,key,arrowright,16.65957447,556,374,162,6,-1,23,35,25,35,FALSE
null,null,psychophysics,331,430554,0.0-3.0-1.161,,key,null,16.6779661,556,374,,,,,,,,
721,arrowright,psychophysics,332,431290,0.0-3.0-0.162,,key,arrowright,16.60465116,556,374,163,6,-1,20,15,25,35,FALSE
null,null,psychophysics,333,432292,0.0-3.0-1.162,,key,null,16.66101695,556,374,,,,,,,,
897,arrowleft,psychophysics,334,433200,0.0-3.0-0.163,,key,arrowleft,16.64814815,556,374,164,6,1,20,35,25,35,FALSE
null,null,psychophysics,335,434203,0.0-3.0-1.163,,key,null,16.6779661,556,374,,,,,,,,
992,arrowleft,psychophysics,336,435199,0.0-3.0-0.164,,key,arrowleft,16.62711864,556,374,165,6,1,23,35,25,35,FALSE
null,null,psychophysics,337,436202,0.0-3.0-1.164,,key,null,16.6779661,556,374,,,,,,,,
703,arrowright,psychophysics,338,436910,0.0-3.0-0.165,,key,arrowright,16.68292683,556,374,166,6,-1,24,35,25,35,FALSE
null,null,psychophysics,339,437917,0.0-3.0-1.165,,key,null,16.61666667,556,374,,,,,,,,
1502,arrowleft,psychophysics,340,439421,0.0-3.0-0.166,,key,arrowleft,16.66292135,556,374,167,6,-1,27,35,25,35,TRUE
null,null,psychophysics,341,440424,0.0-3.0-1.166,,key,null,16.69491525,556,374,,,,,,,,
499,arrowright,psychophysics,342,440927,0.0-3.0-0.167,,key,arrowright,16.65517241,556,374,168,7,-1,25,15,25,35,FALSE
null,null,psychophysics,343,441929,0.0-3.0-1.167,,key,null,16.66101695,556,374,,,,,,,,
1435,,html-keyboard-response,344,443365,0.0-3.0-2.167-0.167,"<div style=""color: white; text-align: center; vertical-align: top; display: inline-block; width: 800px; margin: auto""><p>You have completed 60% of the trials. You are on block 7 of 10. <br>Good job! Take a break if you need to.</p><p>Press any key to continue the experiment.</p></div>",,,,,,,,,,,,,
565,arrowright,psychophysics,345,444940,0.0-3.0-0.168,,key,arrowright,16.63636364,556,374,169,7,-1,20,35,25,35,FALSE
null,null,psychophysics,346,445942,0.0-3.0-1.168,,key,null,16.6779661,556,374,,,,,,,,
871,arrowleft,psychophysics,347,446817,0.0-3.0-0.169,,key,arrowleft,17,556,374,170,7,-1,26,15,25,35,TRUE
null,null,psychophysics,348,447819,0.0-3.0-1.169,,key,null,16.69491525,556,374,,,,,,,,
507,arrowright,psychophysics,349,448333,0.0-3.0-0.170,,key,arrowright,16.6,556,374,171,7,1,30,35,25,35,TRUE
null,null,psychophysics,350,449335,0.0-3.0-1.170,,key,null,16.6440678,556,374,,,,,,,,
1551,arrowright,psychophysics,351,450899,0.0-3.0-0.171,,key,arrowright,16.60215054,556,374,172,7,1,23,15,25,35,TRUE
null,null,psychophysics,352,451901,0.0-3.0-1.171,,key,null,16.6779661,556,374,,,,,,,,
724,arrowright,psychophysics,353,452644,0.0-3.0-0.172,,key,arrowright,16.5,556,374,173,7,1,27,35,25,35,TRUE
null,null,psychophysics,354,453647,0.0-3.0-1.172,,key,null,16.69491525,556,374,,,,,,,,
725,arrowright,psychophysics,355,454376,0.0-3.0-0.173,,key,arrowright,16.65116279,556,374,174,7,-1,25,35,25,35,FALSE
null,null,psychophysics,356,455378,0.0-3.0-1.173,,key,null,16.6779661,556,374,,,,,,,,
666,arrowright,psychophysics,357,456063,0.0-3.0-0.174,,key,arrowright,16.65,556,374,175,7,1,24,35,25,35,TRUE
null,null,psychophysics,358,457067,0.0-3.0-1.174,,key,null,16.6779661,556,374,,,,,,,,
533,arrowright,psychophysics,359,457604,0.0-3.0-0.175,,key,arrowright,16.67741935,556,374,176,7,-1,23,35,25,35,FALSE
null,null,psychophysics,360,458606,0.0-3.0-1.175,,key,null,16.66101695,556,374,,,,,,,,
585,arrowleft,psychophysics,361,459201,0.0-3.0-0.176,,key,arrowleft,16.6,556,374,177,7,1,20,35,25,35,FALSE
null,null,psychophysics,362,460204,0.0-3.0-1.176,,key,null,16.66101695,556,374,,,,,,,,
583,arrowleft,psychophysics,363,460799,0.0-3.0-0.177,,key,arrowleft,16.65714286,556,374,178,7,-1,27,15,25,35,TRUE
null,null,psychophysics,364,461803,0.0-3.0-1.177,,key,null,16.66101695,556,374,,,,,,,,
535,arrowright,psychophysics,365,462355,0.0-3.0-0.178,,key,arrowright,16.46875,556,374,179,7,1,30,15,25,35,TRUE
null,null,psychophysics,366,463359,0.0-3.0-1.178,,key,null,16.63333333,556,374,,,,,,,,
510,arrowleft,psychophysics,367,463871,0.0-3.0-0.179,,key,arrowleft,16.68965517,556,374,180,7,-1,30,15,25,35,TRUE
null,null,psychophysics,368,464874,0.0-3.0-1.179,,key,null,16.66101695,556,374,,,,,,,,
634,arrowright,psychophysics,369,465522,0.0-3.0-0.180,,key,arrowright,16.31578947,556,374,181,7,1,25,15,25,35,TRUE
null,null,psychophysics,370,466524,0.0-3.0-1.180,,key,null,16.66101695,556,374,,,,,,,,
836,arrowright,psychophysics,371,467371,0.0-3.0-0.181,,key,arrowright,16.6,556,374,182,7,1,25,15,25,35,TRUE
null,null,psychophysics,372,468380,0.0-3.0-1.181,,key,null,16.58333333,556,374,,,,,,,,
877,arrowright,psychophysics,373,469262,0.0-3.0-0.182,,key,arrowright,16.65384615,556,374,183,7,1,24,15,25,35,TRUE
null,null,psychophysics,374,470265,0.0-3.0-1.182,,key,null,16.6779661,556,374,,,,,,,,
904,arrowleft,psychophysics,375,471173,0.0-3.0-0.183,,key,arrowleft,16.67924528,556,374,184,7,1,23,35,25,35,FALSE
null,null,psychophysics,376,472175,0.0-3.0-1.183,,key,null,16.66101695,556,374,,,,,,,,
745,arrowright,psychophysics,377,472931,0.0-3.0-0.184,,key,arrowright,16.6,556,374,185,7,1,26,35,25,35,TRUE
null,null,psychophysics,378,473935,0.0-3.0-1.184,,key,null,16.66101695,556,374,,,,,,,,
630,arrowleft,psychophysics,379,474581,0.0-3.0-0.185,,key,arrowleft,16.57894737,556,374,186,7,-1,24,35,25,35,TRUE
null,null,psychophysics,380,475583,0.0-3.0-1.185,,key,null,16.66101695,556,374,,,,,,,,
2005,arrowright,psychophysics,381,477592,0.0-3.0-0.186,,key,arrowright,16.67226891,556,374,187,7,1,24,15,25,35,TRUE
null,null,psychophysics,382,478596,0.0-3.0-1.186,,key,null,16.61666667,556,374,,,,,,,,
1098,arrowleft,psychophysics,383,479698,0.0-3.0-0.187,,key,arrowleft,16.66153846,556,374,188,7,-1,27,35,25,35,TRUE
null,null,psychophysics,384,480709,0.0-3.0-1.187,,key,null,16.6779661,556,374,,,,,,,,
1047,arrowleft,psychophysics,385,481767,0.0-3.0-0.188,,key,arrowleft,16.61904762,556,374,189,7,1,20,15,25,35,FALSE
null,null,psychophysics,386,482771,0.0-3.0-1.188,,key,null,16.6779661,556,374,,,,,,,,
898,arrowright,psychophysics,387,483673,0.0-3.0-0.189,,key,arrowright,16.66037736,556,374,190,7,1,26,35,25,35,TRUE
null,null,psychophysics,388,484676,0.0-3.0-1.189,,key,null,16.6779661,556,374,,,,,,,,
745,arrowleft,psychophysics,389,485431,0.0-3.0-0.190,,key,arrowleft,16.6,556,374,191,7,-1,24,35,25,35,TRUE
null,null,psychophysics,390,486442,0.0-3.0-1.190,,key,null,16.6779661,556,374,,,,,,,,
794,arrowleft,psychophysics,391,487246,0.0-3.0-0.191,,key,arrowleft,16.625,556,374,192,7,-1,30,15,25,35,TRUE
null,null,psychophysics,392,488248,0.0-3.0-1.191,,key,null,16.6779661,556,374,,,,,,,,
603,arrowleft,psychophysics,393,488854,0.0-3.0-0.192,,key,arrowleft,16.65714286,556,374,193,7,-1,30,15,25,35,TRUE
null,null,psychophysics,394,489861,0.0-3.0-1.192,,key,null,16.66101695,556,374,,,,,,,,
741,arrowleft,psychophysics,395,490614,0.0-3.0-0.193,,key,arrowleft,16.55555556,556,374,194,7,1,20,35,25,35,FALSE
null,null,psychophysics,396,491617,0.0-3.0-1.193,,key,null,16.66101695,556,374,,,,,,,,
1119,arrowright,psychophysics,397,492754,0.0-3.0-0.194,,key,arrowright,16.64179104,556,374,195,7,-1,23,15,25,35,FALSE
null,null,psychophysics,398,493759,0.0-3.0-1.194,,key,null,16.6779661,556,374,,,,,,,,
867,arrowright,psychophysics,399,494638,0.0-3.0-0.195,,key,arrowright,16.65384615,556,374,196,8,-1,20,35,25,35,FALSE
null,null,psychophysics,400,495640,0.0-3.0-1.195,,key,null,16.66101695,556,374,,,,,,,,
4316,,html-keyboard-response,401,499958,0.0-3.0-2.195-0.195,"<div style=""color: white; text-align: center; vertical-align: top; display: inline-block; width: 800px; margin: auto""><p>You have completed 70% of the trials. You are on block 8 of 10. <br>Good job! Take a break if you need to.</p><p>Press any key to continue the experiment.</p></div>",,,,,,,,,,,,,
786,arrowright,psychophysics,402,501756,0.0-3.0-0.196,,key,arrowright,16.66666667,556,374,197,8,1,26,35,25,35,TRUE
null,null,psychophysics,403,502759,0.0-3.0-1.196,,key,null,16.66101695,556,374,,,,,,,,
571,arrowleft,psychophysics,404,503333,0.0-3.0-0.197,,key,arrowleft,16.70588235,556,374,198,8,-1,27,15,25,35,TRUE
null,null,psychophysics,405,504337,0.0-3.0-1.197,,key,null,16.6779661,556,374,,,,,,,,
634,arrowleft,psychophysics,406,504976,0.0-3.0-0.198,,key,arrowleft,16.67567568,556,374,199,8,-1,26,15,25,35,TRUE
null,null,psychophysics,407,505983,0.0-3.0-1.198,,key,null,16.66666667,556,374,,,,,,,,
559,arrowright,psychophysics,408,506554,0.0-3.0-0.199,,key,arrowright,16.6969697,556,374,200,8,1,30,35,25,35,TRUE
null,null,psychophysics,409,507558,0.0-3.0-1.199,,key,null,16.66101695,556,374,,,,,,,,
806,arrowright,psychophysics,410,508367,0.0-3.0-0.200,,key,arrowright,16.6875,556,374,201,8,1,23,15,25,35,TRUE
null,null,psychophysics,411,509370,0.0-3.0-1.200,,key,null,16.66101695,556,374,,,,,,,,
852,arrowright,psychophysics,412,510226,0.0-3.0-0.201,,key,arrowright,16.66,556,374,202,8,1,26,35,25,35,TRUE
null,null,psychophysics,413,511229,0.0-3.0-1.201,,key,null,16.6779661,556,374,,,,,,,,
764,arrowleft,psychophysics,414,512004,0.0-3.0-0.202,,key,arrowleft,16.63043478,556,374,203,8,-1,27,15,25,35,TRUE
null,null,psychophysics,415,513013,0.0-3.0-1.202,,key,null,16.6779661,556,374,,,,,,,,
784,arrowright,psychophysics,416,513807,0.0-3.0-0.203,,key,arrowright,16.61702128,556,374,204,8,-1,20,35,25,35,FALSE
null,null,psychophysics,417,514810,0.0-3.0-1.203,,key,null,16.6779661,556,374,,,,,,,,
518,arrowleft,psychophysics,418,515340,0.0-3.0-0.204,,key,arrowleft,16.4516129,556,374,205,8,-1,30,15,25,35,TRUE
null,null,psychophysics,419,516344,0.0-3.0-1.204,,key,null,16.66101695,556,374,,,,,,,,
1203,arrowright,psychophysics,420,517559,0.0-3.0-0.205,,key,arrowright,16.65277778,556,374,206,8,-1,24,15,25,35,FALSE
null,null,psychophysics,421,518561,0.0-3.0-1.205,,key,null,16.66101695,556,374,,,,,,,,
750,arrowright,psychophysics,422,519329,0.0-3.0-0.206,,key,arrowright,16.46666667,556,374,207,8,1,23,15,25,35,TRUE
null,null,psychophysics,423,520334,0.0-3.0-1.206,,key,null,16.65,556,374,,,,,,,,
624,arrowleft,psychophysics,424,520962,0.0-3.0-0.207,,key,arrowleft,16.66666667,556,374,208,8,1,20,35,25,35,FALSE
null,null,psychophysics,425,521964,0.0-3.0-1.207,,key,null,16.6779661,556,374,,,,,,,,
638,arrowleft,psychophysics,426,522613,0.0-3.0-0.208,,key,arrowleft,16.57894737,556,374,209,8,-1,26,15,25,35,TRUE
null,null,psychophysics,427,523618,0.0-3.0-1.208,,key,null,16.65,556,374,,,,,,,,
574,arrowleft,psychophysics,428,524195,0.0-3.0-0.209,,key,arrowleft,16.66666667,556,374,210,8,-1,26,15,25,35,TRUE
null,null,psychophysics,429,525201,0.0-3.0-1.209,,key,null,16.66666667,556,374,,,,,,,,
1089,arrowright,psychophysics,430,526302,0.0-3.0-0.210,,key,arrowright,16.67692308,556,374,211,8,1,24,15,25,35,TRUE
null,null,psychophysics,431,527306,0.0-3.0-1.210,,key,null,16.6779661,556,374,,,,,,,,
648,arrowleft,psychophysics,432,527958,0.0-3.0-0.211,,key,arrowleft,16.68421053,556,374,212,8,-1,30,35,25,35,TRUE
null,null,psychophysics,433,528961,0.0-3.0-1.211,,key,null,16.6779661,556,374,,,,,,,,
697,arrowleft,psychophysics,434,529662,0.0-3.0-0.212,,key,arrowleft,16.68292683,556,374,213,8,-1,27,15,25,35,TRUE
null,null,psychophysics,435,530665,0.0-3.0-1.212,,key,null,16.6779661,556,374,,,,,,,,
465,arrowright,psychophysics,436,531140,0.0-3.0-0.213,,key,arrowright,16.57142857,556,374,214,8,-1,20,15,25,35,FALSE
null,null,psychophysics,437,532152,0.0-3.0-1.213,,key,null,16.65,556,374,,,,,,,,
588,arrowleft,psychophysics,438,532743,0.0-3.0-0.214,,key,arrowleft,16.67647059,556,374,215,8,1,20,35,25,35,FALSE
null,null,psychophysics,439,533746,0.0-3.0-1.214,,key,null,16.66101695,556,374,,,,,,,,
1075,arrowleft,psychophysics,440,534831,0.0-3.0-0.215,,key,arrowleft,16.671875,556,374,216,8,1,24,35,25,35,FALSE
null,null,psychophysics,441,535836,0.0-3.0-1.215,,key,null,16.66666667,556,374,,,,,,,,
1485,arrowleft,psychophysics,442,537326,0.0-3.0-0.216,,key,arrowleft,16.67045455,556,374,217,8,-1,27,35,25,35,TRUE
null,null,psychophysics,443,538336,0.0-3.0-1.216,,key,null,16.61666667,556,374,,,,,,,,
787,arrowleft,psychophysics,444,539127,0.0-3.0-0.217,,key,arrowleft,16.65217391,556,374,218,8,-1,27,15,25,35,TRUE
null,null,psychophysics,445,540129,0.0-3.0-1.217,,key,null,16.6779661,556,374,,,,,,,,
917,arrowleft,psychophysics,446,541049,0.0-3.0-0.218,,key,arrowleft,16.66666667,556,374,219,8,1,23,35,25,35,FALSE
null,null,psychophysics,447,542053,0.0-3.0-1.218,,key,null,16.63333333,556,374,,,,,,,,
542,arrowright,psychophysics,448,542598,0.0-3.0-0.219,,key,arrowright,16.67741935,556,374,220,8,1,27,35,25,35,TRUE
null,null,psychophysics,449,543600,0.0-3.0-1.219,,key,null,16.66101695,556,374,,,,,,,,
634,arrowleft,psychophysics,450,544255,0.0-3.0-0.220,,key,arrowleft,16.38461538,556,374,221,8,-1,26,15,25,35,TRUE
null,null,psychophysics,451,545257,0.0-3.0-1.220,,key,null,16.66101695,556,374,,,,,,,,
600,arrowright,psychophysics,452,545861,0.0-3.0-0.221,,key,arrowright,16.65714286,556,374,222,8,-1,20,15,25,35,FALSE
null,null,psychophysics,453,546866,0.0-3.0-1.221,,key,null,16.66101695,556,374,,,,,,,,
554,arrowright,psychophysics,454,547430,0.0-3.0-0.222,,key,arrowright,16.57575758,556,374,223,8,-1,23,15,25,35,FALSE
null,null,psychophysics,455,548433,0.0-3.0-1.222,,key,null,16.66101695,556,374,,,,,,,,
638,arrowright,psychophysics,456,549082,0.0-3.0-0.223,,key,arrowright,16.57894737,556,374,224,9,1,26,15,25,35,TRUE
null,null,psychophysics,457,550087,0.0-3.0-1.223,,key,null,16.66666667,556,374,,,,,,,,
1680,,html-keyboard-response,458,551779,0.0-3.0-2.223-0.223,"<div style=""color: white; text-align: center; vertical-align: top; display: inline-block; width: 800px; margin: auto""><p>You have completed 80% of the trials. You are on block 9 of 10. <br>Good job! Take a break if you need to.</p><p>Press any key to continue the experiment.</p></div>",,,,,,,,,,,,,
883,arrowright,psychophysics,459,553666,0.0-3.0-0.224,,key,arrowright,16.66666667,556,374,225,9,1,27,15,25,35,TRUE
null,null,psychophysics,460,554671,0.0-3.0-1.224,,key,null,16.65,556,374,,,,,,,,
781,arrowright,psychophysics,461,555454,0.0-3.0-0.225,,key,arrowright,16.65217391,556,374,226,9,-1,25,35,25,35,FALSE
null,null,psychophysics,462,556458,0.0-3.0-1.225,,key,null,16.6779661,556,374,,,,,,,,
438,arrowright,psychophysics,463,556912,0.0-3.0-0.226,,key,arrowright,16.57692308,556,374,227,9,1,30,35,25,35,TRUE
null,null,psychophysics,464,557916,0.0-3.0-1.226,,key,null,16.6779661,556,374,,,,,,,,
719,arrowleft,psychophysics,465,558645,0.0-3.0-0.227,,key,arrowleft,16.65116279,556,374,228,9,1,25,35,25,35,FALSE
null,null,psychophysics,466,559654,0.0-3.0-1.227,,key,null,16.65,556,374,,,,,,,,
622,arrowright,psychophysics,467,560280,0.0-3.0-0.228,,key,arrowright,16.66666667,556,374,229,9,1,25,35,25,35,TRUE
null,null,psychophysics,468,561283,0.0-3.0-1.228,,key,null,16.66101695,556,374,,,,,,,,
497,arrowleft,psychophysics,469,561790,0.0-3.0-0.229,,key,arrowleft,16.6,556,374,230,9,1,20,35,25,35,FALSE
null,null,psychophysics,470,562792,0.0-3.0-1.229,,key,null,16.66101695,556,374,,,,,,,,
822,arrowleft,psychophysics,471,563630,0.0-3.0-0.230,,key,arrowleft,16.65306122,556,374,231,9,1,23,35,25,35,FALSE
null,null,psychophysics,472,564633,0.0-3.0-1.230,,key,null,16.66101695,556,374,,,,,,,,
464,arrowright,psychophysics,473,565108,0.0-3.0-0.231,,key,arrowright,16.64285714,556,374,232,9,-1,20,15,25,35,FALSE
null,null,psychophysics,474,566111,0.0-3.0-1.231,,key,null,16.66101695,556,374,,,,,,,,
1350,arrowright,psychophysics,475,567465,0.0-3.0-0.232,,key,arrowright,16.675,556,374,233,9,-1,23,15,25,35,FALSE
null,null,psychophysics,476,568468,0.0-3.0-1.232,,key,null,16.6779661,556,374,,,,,,,,
582,arrowright,psychophysics,477,569072,0.0-3.0-0.233,,key,arrowright,16.30555556,556,374,234,9,1,27,15,25,35,TRUE
null,null,psychophysics,478,570075,0.0-3.0-1.233,,key,null,16.66101695,556,374,,,,,,,,
731,arrowright,psychophysics,479,570813,0.0-3.0-0.234,,key,arrowright,16.6744186,556,374,235,9,1,25,35,25,35,TRUE
null,null,psychophysics,480,571816,0.0-3.0-1.234,,key,null,16.6779661,556,374,,,,,,,,
909,arrowright,psychophysics,481,572729,0.0-3.0-0.235,,key,arrowright,16.68518519,556,374,236,9,1,26,15,25,35,TRUE
null,null,psychophysics,482,573733,0.0-3.0-1.235,,key,null,16.6779661,556,374,,,,,,,,
575,arrowright,psychophysics,483,574311,0.0-3.0-0.236,,key,arrowright,16.67647059,556,374,237,9,1,23,15,25,35,TRUE
null,null,psychophysics,484,575314,0.0-3.0-1.236,,key,null,16.66101695,556,374,,,,,,,,
569,arrowleft,psychophysics,485,575901,0.0-3.0-0.237,,key,arrowleft,16.5,556,374,238,9,-1,30,15,25,35,TRUE
null,null,psychophysics,486,576906,0.0-3.0-1.237,,key,null,16.65,556,374,,,,,,,,
1063,arrowleft,psychophysics,487,577974,0.0-3.0-0.238,,key,arrowleft,16.66666667,556,374,239,9,1,20,15,25,35,FALSE
null,null,psychophysics,488,578977,0.0-3.0-1.238,,key,null,16.66101695,556,374,,,,,,,,
576,arrowright,psychophysics,489,579557,0.0-3.0-0.239,,key,arrowright,16.61764706,556,374,240,9,-1,20,15,25,35,FALSE
null,null,psychophysics,490,580566,0.0-3.0-1.239,,key,null,16.66101695,556,374,,,,,,,,
506,arrowright,psychophysics,491,581077,0.0-3.0-0.240,,key,arrowright,16.66666667,556,374,241,9,-1,20,35,25,35,FALSE
null,null,psychophysics,492,582080,0.0-3.0-1.240,,key,null,16.66101695,556,374,,,,,,,,
1166,arrowright,psychophysics,493,583265,0.0-3.0-0.241,,key,arrowright,16.6,556,374,242,9,-1,27,35,25,35,FALSE
null,null,psychophysics,494,584268,0.0-3.0-1.241,,key,null,16.69491525,556,374,,,,,,,,
954,arrowright,psychophysics,495,585232,0.0-3.0-0.242,,key,arrowright,16.64912281,556,374,243,9,1,20,15,25,35,TRUE
null,null,psychophysics,496,586235,0.0-3.0-1.242,,key,null,16.6779661,556,374,,,,,,,,
519,arrowright,psychophysics,497,586764,0.0-3.0-0.243,,key,arrowright,16.67741935,556,374,244,9,1,27,15,25,35,TRUE
null,null,psychophysics,498,587767,0.0-3.0-1.243,,key,null,16.66101695,556,374,,,,,,,,
762,arrowright,psychophysics,499,588532,0.0-3.0-0.244,,key,arrowright,16.68888889,556,374,245,9,1,26,35,25,35,TRUE
null,null,psychophysics,500,589544,0.0-3.0-1.244,,key,null,16.56666667,556,374,,,,,,,,
813,arrowright,psychophysics,501,590360,0.0-3.0-0.245,,key,arrowright,16.64583333,556,374,246,9,-1,24,35,25,35,FALSE
null,null,psychophysics,502,591362,0.0-3.0-1.245,,key,null,16.66101695,556,374,,,,,,,,
525,arrowright,psychophysics,503,591892,0.0-3.0-0.246,,key,arrowright,16.64516129,556,374,247,9,1,26,15,25,35,TRUE
null,null,psychophysics,504,592897,0.0-3.0-1.246,,key,null,16.6779661,556,374,,,,,,,,
1092,arrowright,psychophysics,505,593993,0.0-3.0-0.247,,key,arrowright,16.64615385,556,374,248,9,-1,24,35,25,35,FALSE
null,null,psychophysics,506,594996,0.0-3.0-1.247,,key,null,16.66101695,556,374,,,,,,,,
871,arrowleft,psychophysics,507,595887,0.0-3.0-0.248,,key,arrowleft,16.55769231,556,374,249,9,-1,30,35,25,35,TRUE
null,null,psychophysics,508,596889,0.0-3.0-1.248,,key,null,16.6440678,556,374,,,,,,,,
1092,arrowright,psychophysics,509,597992,0.0-3.0-0.249,,key,arrowright,16.62121212,556,374,250,9,-1,23,15,25,35,FALSE
null,null,psychophysics,510,598995,0.0-3.0-1.249,,key,null,16.6440678,556,374,,,,,,,,
562,arrowright,psychophysics,511,599561,0.0-3.0-0.250,,key,arrowright,16.63636364,556,374,251,9,1,26,15,25,35,TRUE
null,null,psychophysics,512,600563,0.0-3.0-1.250,,key,null,16.6779661,556,374,,,,,,,,
635,arrowleft,psychophysics,513,601203,0.0-3.0-0.251,,key,arrowleft,16.67567568,556,374,252,10,-1,25,15,25,35,TRUE
null,null,psychophysics,514,602213,0.0-3.0-1.251,,key,null,16.53333333,556,374,,,,,,,,
1445,,html-keyboard-response,515,603661,0.0-3.0-2.251-0.251,"<div style=""color: white; text-align: center; vertical-align: top; display: inline-block; width: 800px; margin: auto""><p>You have completed 90% of the trials. You are on block 10 of 10. <br>Good job! Take a break if you need to.</p><p>Press any key to continue the experiment.</p></div>",,,,,,,,,,,,,
896,arrowright,psychophysics,516,605563,0.0-3.0-0.252,,key,arrowright,16.67307692,556,374,253,10,-1,24,35,25,35,FALSE
null,null,psychophysics,517,606568,0.0-3.0-1.252,,key,null,16.66101695,556,374,,,,,,,,
649,arrowright,psychophysics,518,607220,0.0-3.0-0.253,,key,arrowright,16.65789474,556,374,254,10,1,25,15,25,35,TRUE
null,null,psychophysics,519,608232,0.0-3.0-1.253,,key,null,16.51666667,556,374,,,,,,,,
1243,arrowright,psychophysics,520,609478,0.0-3.0-0.254,,key,arrowright,16.64864865,556,374,255,10,-1,27,35,25,35,FALSE
null,null,psychophysics,521,610480,0.0-3.0-1.254,,key,null,16.66101695,556,374,,,,,,,,
663,arrowleft,psychophysics,522,611148,0.0-3.0-0.255,,key,arrowleft,16.66666667,556,374,256,10,-1,25,15,25,35,TRUE
null,null,psychophysics,523,612151,0.0-3.0-1.255,,key,null,16.66101695,556,374,,,,,,,,
917,arrowright,psychophysics,524,613071,0.0-3.0-0.256,,key,arrowright,16.68518519,556,374,257,10,-1,20,15,25,35,FALSE
null,null,psychophysics,525,614083,0.0-3.0-1.256,,key,null,16.5,556,374,,,,,,,,
1108,arrowright,psychophysics,526,615194,0.0-3.0-0.257,,key,arrowright,16.65151515,556,374,258,10,1,24,35,25,35,TRUE
null,null,psychophysics,527,616197,0.0-3.0-1.257,,key,null,16.66101695,556,374,,,,,,,,
560,arrowright,psychophysics,528,616761,0.0-3.0-0.258,,key,arrowright,16.63636364,556,374,259,10,-1,20,35,25,35,FALSE
null,null,psychophysics,529,617764,0.0-3.0-1.258,,key,null,16.66101695,556,374,,,,,,,,
931,arrowright,psychophysics,530,618701,0.0-3.0-0.259,,key,arrowright,16.65454545,556,374,260,10,1,24,35,25,35,TRUE
null,null,psychophysics,531,619705,0.0-3.0-1.259,,key,null,16.66101695,556,374,,,,,,,,
954,arrowright,psychophysics,532,620682,0.0-3.0-0.260,,key,arrowright,16.48275862,556,374,261,10,-1,26,35,25,35,FALSE
null,null,psychophysics,533,621686,0.0-3.0-1.260,,key,null,16.69491525,556,374,,,,,,,,
755,arrowleft,psychophysics,534,622445,0.0-3.0-0.261,,key,arrowleft,16.64444444,556,374,262,10,-1,30,35,25,35,TRUE
null,null,psychophysics,535,623448,0.0-3.0-1.261,,key,null,16.6779661,556,374,,,,,,,,
752,arrowleft,psychophysics,536,624204,0.0-3.0-0.262,,key,arrowleft,16.68181818,556,374,263,10,-1,27,15,25,35,TRUE
null,null,psychophysics,537,625207,0.0-3.0-1.262,,key,null,16.6779661,556,374,,,,,,,,
830,arrowright,psychophysics,538,626047,0.0-3.0-0.263,,key,arrowright,16.6,556,374,264,10,1,26,15,25,35,TRUE
null,null,psychophysics,539,627058,0.0-3.0-1.263,,key,null,16.6779661,556,374,,,,,,,,
694,arrowright,psychophysics,540,627762,0.0-3.0-0.264,,key,arrowright,16.57142857,556,374,265,10,1,24,15,25,35,TRUE
null,null,psychophysics,541,628766,0.0-3.0-1.264,,key,null,16.6779661,556,374,,,,,,,,
639,arrowleft,psychophysics,542,629411,0.0-3.0-0.265,,key,arrowleft,16.65789474,556,374,266,10,1,20,35,25,35,FALSE
null,null,psychophysics,543,630415,0.0-3.0-1.265,,key,null,16.6779661,556,374,,,,,,,,
884,arrowleft,psychophysics,544,631303,0.0-3.0-0.266,,key,arrowleft,16.65384615,556,374,267,10,-1,26,35,25,35,TRUE
null,null,psychophysics,545,632306,0.0-3.0-1.266,,key,null,16.66101695,556,374,,,,,,,,
906,arrowright,psychophysics,546,633237,0.0-3.0-0.267,,key,arrowright,16.45454545,556,374,268,10,-1,23,35,25,35,FALSE
null,null,psychophysics,547,634240,0.0-3.0-1.267,,key,null,16.69491525,556,374,,,,,,,,
692,arrowleft,psychophysics,548,634942,0.0-3.0-0.268,,key,arrowleft,16.65853659,556,374,269,10,-1,27,15,25,35,TRUE
null,null,psychophysics,549,635946,0.0-3.0-1.268,,key,null,16.65,556,374,,,,,,,,
741,arrowright,psychophysics,550,636690,0.0-3.0-0.269,,key,arrowright,16.6744186,556,374,270,10,-1,23,35,25,35,FALSE
null,null,psychophysics,551,637693,0.0-3.0-1.269,,key,null,16.66101695,556,374,,,,,,,,
603,arrowright,psychophysics,552,638306,0.0-3.0-0.270,,key,arrowright,16.58333333,556,374,271,10,-1,25,35,25,35,FALSE
null,null,psychophysics,553,639317,0.0-3.0-1.270,,key,null,16.53333333,556,374,,,,,,,,
699,arrowright,psychophysics,554,640020,0.0-3.0-0.271,,key,arrowright,16.68292683,556,374,272,10,1,25,15,25,35,TRUE
null,null,psychophysics,555,641023,0.0-3.0-1.271,,key,null,16.6779661,556,374,,,,,,,,
822,arrowright,psychophysics,556,641855,0.0-3.0-0.272,,key,arrowright,16.67346939,556,374,273,10,1,25,35,25,35,TRUE
null,null,psychophysics,557,642858,0.0-3.0-1.272,,key,null,16.66101695,556,374,,,,,,,,
1184,arrowright,psychophysics,558,644054,0.0-3.0-0.273,,key,arrowright,16.61971831,556,374,274,10,-1,24,15,25,35,FALSE
null,null,psychophysics,559,645066,0.0-3.0-1.273,,key,null,16.56666667,556,374,,,,,,,,
787,arrowleft,psychophysics,560,645858,0.0-3.0-0.274,,key,arrowleft,16.65217391,556,374,275,10,1,23,35,25,35,FALSE
null,null,psychophysics,561,646864,0.0-3.0-1.274,,key,null,16.65,556,374,,,,,,,,
664,arrowleft,psychophysics,562,647532,0.0-3.0-0.275,,key,arrowleft,16.64102564,556,374,276,10,-1,30,35,25,35,TRUE
null,null,psychophysics,563,648534,0.0-3.0-1.275,,key,null,16.6779661,556,374,,,,,,,,
795,arrowright,psychophysics,564,649333,0.0-3.0-0.276,,key,arrowright,16.65957447,556,374,277,10,-1,26,35,25,35,FALSE
null,null,psychophysics,565,650336,0.0-3.0-1.276,,key,null,16.66101695,556,374,,,,,,,,
642,arrowleft,psychophysics,566,651000,0.0-3.0-0.277,,key,arrowleft,16.51282051,556,374,278,10,1,20,35,25,35,FALSE
null,null,psychophysics,567,652006,0.0-3.0-1.277,,key,null,16.6779661,556,374,,,,,,,,
758,arrowleft,psychophysics,568,652768,0.0-3.0-0.278,,key,arrowleft,16.66666667,556,374,279,10,-1,25,15,25,35,TRUE
null,null,psychophysics,569,653772,0.0-3.0-1.278,,key,null,16.66101695,556,374,,,,,,,,
2525,arrowleft,psychophysics,570,656301,0.0-3.0-0.279,,key,arrowleft,16.66225166,556,374,280,11,-1,25,35,25,35,TRUE
null,null,psychophysics,571,657316,0.0-3.0-1.279,,key,null,16.63333333,556,374,,,,,,,,