rt,response,trial_type,trial_index,time_elapsed,internal_node_id,stimulus,response_type,key_press,avg_frame_time,center_x,center_y,trial,block,test_pos,test_inner_radius,test_outer_radius,ref_inner_radius,ref_outer_radius,test_bigger
14056.9,"{""p_id"":""4007"",""age"":""20"",""handedness"":""right"",""sex"":""female"",""other_sex"":""""}",survey-html-form,0,14060,0.0-0.0,,,,,,,,,,,,,,
19071.7, ,html-keyboard-response,1,33137,0.0-1.0,"<p style=""color: white"">Welcome to the Size Judgment Experiment. <br>There will be 10 blocks in this experiment. <br>There will be 28 trials in each block. <br>You will be given a chance to take a break between blocks. <br>Press any key to start the experiment.</p>",,,,,,,,,,,,,
3716.1,unidentified,psychophysics,2,36872,0.0-2.0,,key,unidentified,16.67195964,800,394.5,,,,,,,,
32780.7,arrowleft,psychophysics,3,69671,0.0-3.0-0.0,,key,arrowleft,16.67173462,800,394.5,1,1,1,20,15,25,35,FALSE
null,null,psychophysics,4,70674,0.0-3.0-1.0,,key,null,16.95915517,800,394.5,,,,,,,,
1417.8,arrowright,psychophysics,5,72095,0.0-3.0-0.1,,key,arrowright,16.67160714,800,394.5,2,1,1,26,15,25,35,TRUE
null,null,psychophysics,6,73097,0.0-3.0-1.1,,key,null,16.67137288,800,394.5,,,,,,,,
3838.4,arrowright,psychophysics,7,76937,0.0-3.0-0.2,,key,arrowright,16.6717,800,394.5,3,1,1,26,35,25,35,TRUE
null,null,psychophysics,8,77941,0.0-3.0-1.2,,key,null,16.67138983,800,394.5,,,,,,,,
5745.7,arrowright,psychophysics,9,83689,0.0-3.0-0.3,,key,arrowright,16.67163953,800,394.5,4,1,-1,24,35,25,35,FALSE
null,null,psychophysics,10,84692,0.0-3.0-1.3,,key,null,16.67128814,800,394.5,,,,,,,,
4003.4,arrowleft,psychophysics,11,88697,0.0-3.0-0.4,,key,arrowleft,16.67179498,800,394.5,5,1,1,23,15,25,35,FALSE
null,null,psychophysics,12,89700,0.0-3.0-1.4,,key,null,16.67213559,800,394.5,,,,,,,,
7468.1,arrowleft,psychophysics,13,97172,0.0-3.0-0.5,,key,arrowleft,16.67159732,800,394.5,6,1,1,24,15,25,35,FALSE
null,null,psychophysics,14,98174,0.0-3.0-1.5,,key,null,16.67179661,800,394.5,,,,,,,,
9361.5,arrowleft,psychophysics,15,107541,0.0-3.0-0.6,,key,arrowleft,16.67205169,800,394.5,7,1,1,24,35,25,35,FALSE
null,null,psychophysics,16,108547,0.0-3.0-1.6,,key,null,16.67178333,800,394.5,,,,,,,,
3189.1,arrowleft,psychophysics,17,111751,0.0-3.0-0.7,,key,arrowleft,16.75761579,800,394.5,8,1,1,23,15,25,35,FALSE
null,null,psychophysics,18,112753,0.0-3.0-1.7,,key,null,16.6719661,800,394.5,,,,,,,,
7587.7,arrowright,psychophysics,19,120343,0.0-3.0-0.8,,key,arrowright,16.78309091,800,394.5,9,1,1,23,15,25,35,TRUE
null,null,psychophysics,20,121348,0.0-3.0-1.8,,key,null,16.6750339,800,394.5,,,,,,,,
5639,arrowright,psychophysics,21,126998,0.0-3.0-0.9,,key,arrowright,16.72115134,800,394.5,10,1,1,25,35,25,35,TRUE
null,null,psychophysics,22,128007,0.0-3.0-1.9,,key,null,16.67368333,800,394.5,,,,,,,,
9108.8,arrowleft,psychophysics,23,137123,0.0-3.0-0.10,,key,arrowleft,16.67144872,800,394.5,11,1,1,23,15,25,35,FALSE
null,null,psychophysics,24,138131,0.0-3.0-1.10,,key,null,16.67398305,800,394.5,,,,,,,,
2277.8,arrowleft,psychophysics,25,140421,0.0-3.0-0.11,,key,arrowleft,16.67225,800,394.5,12,1,-1,26,15,25,35,TRUE
null,null,psychophysics,26,141426,0.0-3.0-1.11,,key,null,16.67238333,800,394.5,,,,,,,,
2064.6,arrowright,psychophysics,27,143497,0.0-3.0-0.12,,key,arrowright,16.6730813,800,394.5,13,1,-1,23,35,25,35,FALSE
null,null,psychophysics,28,144505,0.0-3.0-1.12,,key,null,16.67084746,800,394.5,,,,,,,,
7596,arrowright,psychophysics,29,152112,0.0-3.0-0.13,,key,arrowright,16.81936947,800,394.5,14,1,-1,25,35,25,35,FALSE
null,null,psychophysics,30,153119,0.0-3.0-1.13,,key,null,16.67081356,800,394.5,,,,,,,,
2936.3,arrowright,psychophysics,31,156067,0.0-3.0-0.14,,key,arrowright,16.671875,800,394.5,15,1,1,25,35,25,35,TRUE
null,null,psychophysics,32,157070,0.0-3.0-1.14,,key,null,16.67220339,800,394.5,,,,,,,,
5045.4,arrowright,psychophysics,33,162141,0.0-3.0-0.15,,key,arrowright,16.6709868,800,394.5,16,1,1,26,15,25,35,TRUE
null,null,psychophysics,34,163146,0.0-3.0-1.15,,key,null,16.67518333,800,394.5,,,,,,,,
1478.4,arrowleft,psychophysics,35,164631,0.0-3.0-0.16,,key,arrowleft,16.67025,800,394.5,17,1,-1,27,15,25,35,TRUE
null,null,psychophysics,36,165635,0.0-3.0-1.16,,key,null,16.66654237,800,394.5,,,,,,,,
2112.8,arrowleft,psychophysics,37,167751,0.0-3.0-0.17,,key,arrowleft,16.67315079,800,394.5,18,1,-1,27,15,25,35,TRUE
null,null,psychophysics,38,168757,0.0-3.0-1.17,,key,null,16.67250847,800,394.5,,,,,,,,
1431.8,arrowleft,psychophysics,39,170200,0.0-3.0-0.18,,key,arrowleft,16.66816279,800,394.5,19,1,-1,27,15,25,35,TRUE
null,null,psychophysics,40,171201,0.0-3.0-1.18,,key,null,16.67135593,800,394.5,,,,,,,,
1740.7,arrowright,psychophysics,41,172945,0.0-3.0-0.19,,key,arrowright,16.67479612,800,394.5,20,1,1,30,15,25,35,TRUE
null,null,psychophysics,42,173950,0.0-3.0-1.19,,key,null,16.67136667,800,394.5,,,,,,,,
2015.4,arrowleft,psychophysics,43,175976,0.0-3.0-0.20,,key,arrowleft,16.67243333,800,394.5,21,1,-1,27,35,25,35,TRUE
null,null,psychophysics,44,176979,0.0-3.0-1.20,,key,null,16.67059322,800,394.5,,,,,,,,
2379.2,arrowright,psychophysics,45,179369,0.0-3.0-0.21,,key,arrowright,16.67076923,800,394.5,22,1,-1,20,35,25,35,FALSE
null,null,psychophysics,46,180375,0.0-3.0-1.21,,key,null,16.67279661,800,394.5,,,,,,,,
1829.5,arrowright,psychophysics,47,182213,0.0-3.0-0.22,,key,arrowright,16.67088991,800,394.5,23,1,-1,23,35,25,35,FALSE
null,null,psychophysics,48,183217,0.0-3.0-1.22,,key,null,16.67179661,800,394.5,,,,,,,,
6227.5,arrowright,psychophysics,49,189454,0.0-3.0-0.23,,key,arrowright,16.67162567,800,394.5,24,1,1,27,35,25,35,TRUE
null,null,psychophysics,50,190460,0.0-3.0-1.23,,key,null,16.67547458,800,394.5,,,,,,,,
3335.4,arrowleft,psychophysics,51,193804,0.0-3.0-0.24,,key,arrowleft,16.67263317,800,394.5,25,1,1,24,35,25,35,FALSE
null,null,psychophysics,52,194807,0.0-3.0-1.24,,key,null,16.67166667,800,394.5,,,,,,,,
993.5,arrowright,psychophysics,53,195808,0.0-3.0-0.25,,key,arrowright,16.66994915,800,394.5,26,1,1,24,15,25,35,TRUE
null,null,psychophysics,54,196821,0.0-3.0-1.25,,key,null,16.67269492,800,394.5,,,,,,,,
4611.3,arrowright,psychophysics,55,201446,0.0-3.0-0.26,,key,arrowright,16.671,800,394.5,27,1,-1,24,35,25,35,FALSE
null,null,psychophysics,56,202448,0.0-3.0-1.26,,key,null,16.67350847,800,394.5,,,,,,,,
8046.6,arrowright,psychophysics,57,210498,0.0-3.0-0.27,,key,arrowright,16.67133195,800,394.5,28,2,1,27,35,25,35,TRUE
null,null,psychophysics,58,211503,0.0-3.0-1.27,,key,null,16.67354237,800,394.5,,,,,,,,
11962.8,arrowdown,html-keyboard-response,59,223467,0.0-3.0-2.27-0.27,"<div style=""color: white; text-align: center; vertical-align: top; display: inline-block; width: 800px; margin: auto""><p>You have completed 10% of the trials. You are on block 2 of 10. <br>Good job! Take a break if you need to.</p><p>Press any key to continue the experiment.</p></div>",,,,,,,,,,,,,
949.5,arrowleft,psychophysics,60,225436,0.0-3.0-0.28,,key,arrowleft,16.67573684,800,394.5,29,2,-1,23,15,25,35,TRUE
null,null,psychophysics,61,226442,0.0-3.0-1.28,,key,null,16.67025424,800,394.5,,,,,,,,
883.3,arrowright,psychophysics,62,227336,0.0-3.0-0.29,,key,arrowright,16.67018868,800,394.5,30,2,1,30,35,25,35,TRUE
null,null,psychophysics,63,228344,0.0-3.0-1.29,,key,null,16.67069492,800,394.5,,,,,,,,
1062.7,arrowright,psychophysics,64,229415,0.0-3.0-0.30,,key,arrowright,16.67220635,800,394.5,31,2,1,26,15,25,35,TRUE
null,null,psychophysics,65,230428,0.0-3.0-1.30,,key,null,16.66931667,800,394.5,,,,,,,,
1042,arrowleft,psychophysics,66,231484,0.0-3.0-0.31,,key,arrowleft,16.67350794,800,394.5,32,2,-1,24,15,25,35,TRUE
null,null,psychophysics,67,232491,0.0-3.0-1.31,,key,null,16.67205085,800,394.5,,,,,,,,
3188.1,arrowright,psychophysics,68,235684,0.0-3.0-0.32,,key,arrowright,16.67236842,800,394.5,33,2,1,25,15,25,35,TRUE
null,null,psychophysics,69,236695,0.0-3.0-1.32,,key,null,16.67266667,800,394.5,,,,,,,,
4572.2,arrowright,psychophysics,70,241278,0.0-3.0-0.33,,key,arrowright,16.67224453,800,394.5,34,2,-1,24,35,25,35,FALSE
null,null,psychophysics,71,242288,0.0-3.0-1.33,,key,null,16.67028333,800,394.5,,,,,,,,
9586.5,arrowleft,psychophysics,72,251881,0.0-3.0-0.34,,key,arrowleft,16.67196516,800,394.5,35,2,-1,26,35,25,35,TRUE
null,null,psychophysics,73,252890,0.0-3.0-1.34,,key,null,16.66686667,800,394.5,,,,,,,,
3963.8,arrowleft,psychophysics,74,256862,0.0-3.0-0.35,,key,arrowleft,16.67181013,800,394.5,36,2,-1,25,15,25,35,TRUE
null,null,psychophysics,75,257865,0.0-3.0-1.35,,key,null,16.67333898,800,394.5,,,,,,,,
1300.9,arrowleft,psychophysics,76,259171,0.0-3.0-0.36,,key,arrowleft,16.67305195,800,394.5,37,2,-1,27,35,25,35,TRUE
null,null,psychophysics,77,260191,0.0-3.0-1.36,,key,null,16.67351667,800,394.5,,,,,,,,
955,arrowright,psychophysics,78,261157,0.0-3.0-0.37,,key,arrowright,16.66808772,800,394.5,38,2,1,26,15,25,35,TRUE
null,null,psychophysics,79,262174,0.0-3.0-1.37,,key,null,16.67231667,800,394.5,,,,,,,,
839.5,arrowleft,psychophysics,80,263024,0.0-3.0-0.38,,key,arrowleft,16.67014,800,394.5,39,2,-1,26,15,25,35,TRUE
null,null,psychophysics,81,264028,0.0-3.0-1.38,,key,null,16.67485,800,394.5,,,,,,,,
2182.6,arrowleft,psychophysics,82,266217,0.0-3.0-0.39,,key,arrowleft,16.67175385,800,394.5,40,2,-1,30,15,25,35,TRUE
null,null,psychophysics,83,267225,0.0-3.0-1.39,,key,null,16.6710678,800,394.5,,,,,,,,
1440.2,arrowright,psychophysics,84,268670,0.0-3.0-0.40,,key,arrowright,16.67419767,800,394.5,41,2,1,30,35,25,35,TRUE
null,null,psychophysics,85,269675,0.0-3.0-1.40,,key,null,16.67133898,800,394.5,,,,,,,,
4305.8,arrowright,psychophysics,86,273993,0.0-3.0-0.41,,key,arrowright,16.67184496,800,394.5,42,2,-1,24,15,25,35,FALSE
null,null,psychophysics,87,275012,0.0-3.0-1.41,,key,null,16.67178333,800,394.5,,,,,,,,
3270.5,arrowright,psychophysics,88,278292,0.0-3.0-0.42,,key,arrowright,16.67092347,800,394.5,43,2,-1,20,15,25,35,FALSE
null,null,psychophysics,89,279296,0.0-3.0-1.42,,key,null,16.67410169,800,394.5,,,,,,,,
3312.2,arrowright,psychophysics,90,282619,0.0-3.0-0.43,,key,arrowright,16.67161307,800,394.5,44,2,-1,20,15,25,35,FALSE
null,null,psychophysics,91,283631,0.0-3.0-1.43,,key,null,16.67098305,800,394.5,,,,,,,,
1057.6,arrowright,psychophysics,92,284698,0.0-3.0-0.44,,key,arrowright,16.66803175,800,394.5,45,2,1,30,15,25,35,TRUE
null,null,psychophysics,93,285705,0.0-3.0-1.44,,key,null,16.67431667,800,394.5,,,,,,,,
6614.9,arrowleft,psychophysics,94,292326,0.0-3.0-0.45,,key,arrowleft,16.67178788,800,394.5,46,2,-1,23,15,25,35,TRUE
null,null,psychophysics,95,293336,0.0-3.0-1.45,,key,null,16.67205,800,394.5,,,,,,,,
5446.6,arrowleft,psychophysics,96,298788,0.0-3.0-0.46,,key,arrowleft,16.67161043,800,394.5,47,2,-1,23,15,25,35,TRUE
null,null,psychophysics,97,299799,0.0-3.0-1.46,,key,null,16.66938983,800,394.5,,,,,,,,
1575.9,arrowright,psychophysics,98,301386,0.0-3.0-0.47,,key,arrowright,16.67230851,800,394.5,48,2,-1,23,15,25,35,FALSE
null,null,psychophysics,99,302389,0.0-3.0-1.47,,key,null,16.67443333,800,394.5,,,,,,,,
1018.4,arrowleft,psychophysics,100,303420,0.0-3.0-0.48,,key,arrowleft,16.67161667,800,394.5,49,2,-1,25,35,25,35,TRUE
null,null,psychophysics,101,304423,0.0-3.0-1.48,,key,null,16.67225,800,394.5,,,,,,,,
3568.1,arrowleft,psychophysics,102,307999,0.0-3.0-0.49,,key,arrowleft,16.67204225,800,394.5,50,2,-1,26,15,25,35,TRUE
null,null,psychophysics,103,309021,0.0-3.0-1.49,,key,null,16.67055,800,394.5,,,,,,,,
3158.9,arrowleft,psychophysics,104,312187,0.0-3.0-0.50,,key,arrowleft,16.67269841,800,394.5,51,2,1,20,35,25,35,FALSE
null,null,psychophysics,105,313192,0.0-3.0-1.50,,key,null,16.67173333,800,394.5,,,,,,,,
1660.1,arrowright,psychophysics,106,314860,0.0-3.0-0.51,,key,arrowright,16.67045455,800,394.5,52,2,1,26,15,25,35,TRUE
null,null,psychophysics,107,315874,0.0-3.0-1.51,,key,null,16.6749322,800,394.5,,,,,,,,
1260.6,arrowleft,psychophysics,108,317146,0.0-3.0-0.52,,key,arrowleft,16.67256579,800,394.5,53,2,1,23,35,25,35,FALSE
null,null,psychophysics,109,318158,0.0-3.0-1.52,,key,null,16.66872881,800,394.5,,,,,,,,
976.4,arrowright,psychophysics,110,319146,0.0-3.0-0.53,,key,arrowright,16.67416949,800,394.5,54,2,1,25,15,25,35,TRUE
null,null,psychophysics,111,320156,0.0-3.0-1.53,,key,null,16.67323729,800,394.5,,,,,,,,
1364.5,arrowleft,psychophysics,112,321533,0.0-3.0-0.54,,key,arrowleft,16.67381707,800,394.5,55,2,-1,26,35,25,35,TRUE
null,null,psychophysics,113,322540,0.0-3.0-1.54,,key,null,16.67759322,800,394.5,,,,,,,,
831.1,arrowright,psychophysics,114,323383,0.0-3.0-0.55,,key,arrowright,16.67102,800,394.5,56,3,1,26,35,25,35,TRUE
null,null,psychophysics,115,324389,0.0-3.0-1.55,,key,null,16.67332203,800,394.5,,,,,,,,
3050.3, ,html-keyboard-response,116,327458,0.0-3.0-2.55-0.55,"<div style=""color: white; text-align: center; vertical-align: top; display: inline-block; width: 800px; margin: auto""><p>You have completed 20% of the trials. You are on block 3 of 10. <br>Good job! Take a break if you need to.</p><p>Press any key to continue the experiment.</p></div>",,,,,,,,,,,,,
932,arrowright,psychophysics,117,329411,0.0-3.0-0.56,,key,arrowright,16.97383636,800,394.5,57,3,-1,20,35,25,35,FALSE
null,null,psychophysics,118,330428,0.0-3.0-1.56,,key,null,16.66966667,800,394.5,,,,,,,,
1448.9,arrowright,psychophysics,119,331883,0.0-3.0-0.57,,key,arrowright,16.67033333,800,394.5,58,3,1,24,15,25,35,TRUE
null,null,psychophysics,120,332885,0.0-3.0-1.57,,key,null,16.67654237,800,394.5,,,,,,,,
781.7,arrowleft,psychophysics,121,333673,0.0-3.0-0.58,,key,arrowleft,16.67021739,800,394.5,59,3,-1,25,15,25,35,TRUE
null,null,psychophysics,122,334680,0.0-3.0-1.58,,key,null,16.67230508,800,394.5,,,,,,,,
616.3,arrowright,psychophysics,123,335307,0.0-3.0-0.59,,key,arrowright,16.66764865,800,394.5,60,3,-1,25,35,25,35,FALSE
null,null,psychophysics,124,336326,0.0-3.0-1.59,,key,null,16.67158333,800,394.5,,,,,,,,
1013.7,arrowright,psychophysics,125,337352,0.0-3.0-0.60,,key,arrowright,16.66972131,800,394.5,61,3,1,27,15,25,35,TRUE
null,null,psychophysics,126,338364,0.0-3.0-1.60,,key,null,16.67471186,800,394.5,,,,,,,,
1081.2,arrowleft,psychophysics,127,339456,0.0-3.0-0.61,,key,arrowleft,16.67143077,800,394.5,62,3,-1,27,35,25,35,TRUE
null,null,psychophysics,128,340465,0.0-3.0-1.61,,key,null,16.67433898,800,394.5,,,,,,,,
682,arrowright,psychophysics,129,341157,0.0-3.0-0.62,,key,arrowright,16.67229268,800,394.5,63,3,1,27,35,25,35,TRUE
null,null,psychophysics,130,342165,0.0-3.0-1.62,,key,null,16.67045763,800,394.5,,,,,,,,
554.6,arrowleft,psychophysics,131,342739,0.0-3.0-0.63,,key,arrowleft,16.66994118,800,394.5,64,3,1,20,15,25,35,FALSE
null,null,psychophysics,132,343745,0.0-3.0-1.63,,key,null,16.66720339,800,394.5,,,,,,,,
776.7,arrowright,psychophysics,133,344524,0.0-3.0-0.64,,key,arrowright,16.67317391,800,394.5,65,3,-1,23,35,25,35,FALSE
null,null,psychophysics,134,345534,0.0-3.0-1.64,,key,null,16.67461017,800,394.5,,,,,,,,
10182.5,arrowleft,psychophysics,135,355726,0.0-3.0-0.65,,key,arrowleft,16.67127332,800,394.5,66,3,-1,23,15,25,35,TRUE
null,null,psychophysics,136,356735,0.0-3.0-1.65,,key,null,16.67772881,800,394.5,,,,,,,,
1174.3,arrowleft,psychophysics,137,357923,0.0-3.0-0.66,,key,arrowleft,16.67090141,800,394.5,67,3,-1,26,15,25,35,TRUE
null,null,psychophysics,138,358928,0.0-3.0-1.66,,key,null,16.67427119,800,394.5,,,,,,,,
4263.9,arrowleft,psychophysics,139,363198,0.0-3.0-0.67,,key,arrowleft,16.67146667,800,394.5,68,3,-1,25,35,25,35,TRUE
null,null,psychophysics,140,364221,0.0-3.0-1.67,,key,null,16.67295,800,394.5,,,,,,,,
1010.9,arrowright,psychophysics,141,365244,0.0-3.0-0.68,,key,arrowright,16.67208197,800,394.5,69,3,-1,24,15,25,35,FALSE
null,null,psychophysics,142,366254,0.0-3.0-1.68,,key,null,16.67122034,800,394.5,,,,,,,,
1630,arrowleft,psychophysics,143,367895,0.0-3.0-0.69,,key,arrowleft,16.67269388,800,394.5,70,3,-1,30,35,25,35,TRUE
null,null,psychophysics,144,368905,0.0-3.0-1.69,,key,null,16.67145763,800,394.5,,,,,,,,
963.8,arrowright,psychophysics,145,369879,0.0-3.0-0.70,,key,arrowright,16.673,800,394.5,71,3,1,23,15,25,35,TRUE
null,null,psychophysics,146,370893,0.0-3.0-1.70,,key,null,16.67183333,800,394.5,,,,,,,,
1834.1,arrowleft,psychophysics,147,372732,0.0-3.0-0.71,,key,arrowleft,16.67151376,800,394.5,72,3,-1,27,35,25,35,TRUE
null,null,psychophysics,148,373742,0.0-3.0-1.71,,key,null,16.67281356,800,394.5,,,,,,,,
2397.9,arrowright,psychophysics,149,376154,0.0-3.0-0.72,,key,arrowright,16.67192361,800,394.5,73,3,1,20,35,25,35,TRUE
null,null,psychophysics,150,377159,0.0-3.0-1.72,,key,null,16.67171186,800,394.5,,,,,,,,
12296.6,arrowright,psychophysics,151,389470,0.0-3.0-0.73,,key,arrowright,16.67176287,800,394.5,74,3,-1,24,35,25,35,FALSE
null,null,psychophysics,152,390472,0.0-3.0-1.73,,key,null,16.67427119,800,394.5,,,,,,,,
1513.9,arrowright,psychophysics,153,392000,0.0-3.0-0.74,,key,arrowright,16.67108791,800,394.5,75,3,1,25,15,25,35,TRUE
null,null,psychophysics,154,393002,0.0-3.0-1.74,,key,null,16.67444068,800,394.5,,,,,,,,
1095.2,arrowleft,psychophysics,155,394103,0.0-3.0-0.75,,key,arrowleft,16.67290769,800,394.5,76,3,1,24,35,25,35,FALSE
null,null,psychophysics,156,395113,0.0-3.0-1.75,,key,null,16.66920339,800,394.5,,,,,,,,
1828.5,arrowright,psychophysics,157,396951,0.0-3.0-0.76,,key,arrowright,16.67049091,800,394.5,77,3,-1,20,35,25,35,FALSE
null,null,psychophysics,158,397954,0.0-3.0-1.76,,key,null,16.67613559,800,394.5,,,,,,,,
2021.5,arrowleft,psychophysics,159,399982,0.0-3.0-0.77,,key,arrowleft,16.6722,800,394.5,78,3,1,24,35,25,35,FALSE
null,null,psychophysics,160,400985,0.0-3.0-1.77,,key,null,16.66878333,800,394.5,,,,,,,,
664.3,arrowright,psychophysics,161,401654,0.0-3.0-0.78,,key,arrowright,16.67438462,800,394.5,79,3,1,30,35,25,35,TRUE
null,null,psychophysics,162,402659,0.0-3.0-1.78,,key,null,16.67057627,800,394.5,,,,,,,,
1410.6,arrowleft,psychophysics,163,404076,0.0-3.0-0.79,,key,arrowleft,16.66929762,800,394.5,80,3,-1,25,15,25,35,TRUE
null,null,psychophysics,164,405091,0.0-3.0-1.79,,key,null,16.67095,800,394.5,,,,,,,,
761.8,arrowright,psychophysics,165,405858,0.0-3.0-0.80,,key,arrowright,16.67028889,800,394.5,81,3,-1,20,35,25,35,FALSE
null,null,psychophysics,166,406862,0.0-3.0-1.80,,key,null,16.67491525,800,394.5,,,,,,,,
1470.5,arrowright,psychophysics,167,408340,0.0-3.0-0.81,,key,arrowright,16.67136364,800,394.5,82,3,1,23,35,25,35,TRUE
null,null,psychophysics,168,409353,0.0-3.0-1.81,,key,null,16.67050847,800,394.5,,,,,,,,
1162.5,arrowleft,psychophysics,169,410526,0.0-3.0-0.82,,key,arrowleft,16.67127143,800,394.5,83,3,1,24,35,25,35,FALSE
null,null,psychophysics,170,411533,0.0-3.0-1.82,,key,null,16.67344068,800,394.5,,,,,,,,
1484.6,arrowleft,psychophysics,171,413038,0.0-3.0-0.83,,key,arrowleft,16.67280899,800,394.5,84,4,1,20,35,25,35,FALSE
null,null,psychophysics,172,414043,0.0-3.0-1.83,,key,null,16.6735,800,394.5,,,,,,,,
1267.2,arrowleft,html-keyboard-response,173,415313,0.0-3.0-2.83-0.83,"<div style=""color: white; text-align: center; vertical-align: top; display: inline-block; width: 800px; margin: auto""><p>You have completed 30% of the trials. You are on block 4 of 10. <br>Good job! Take a break if you need to.</p><p>Press any key to continue the experiment.</p></div>",,,,,,,,,,,,,
736.8,arrowright,psychophysics,174,417066,0.0-3.0-0.84,,key,arrowright,16.66829545,800,394.5,85,4,1,27,35,25,35,TRUE
null,null,psychophysics,175,418071,0.0-3.0-1.84,,key,null,16.66723729,800,394.5,,,,,,,,
655.6,arrowleft,psychophysics,176,418742,0.0-3.0-0.85,,key,arrowleft,16.671175,800,394.5,86,4,1,20,35,25,35,FALSE
null,null,psychophysics,177,419755,0.0-3.0-1.85,,key,null,16.67149153,800,394.5,,,,,,,,
1303.9,arrowright,psychophysics,178,421069,0.0-3.0-0.86,,key,arrowright,16.67133333,800,394.5,87,4,1,25,15,25,35,TRUE
null,null,psychophysics,179,422072,0.0-3.0-1.86,,key,null,16.67086441,800,394.5,,,,,,,,
1068.6,arrowleft,psychophysics,180,423154,0.0-3.0-0.87,,key,arrowleft,16.6720625,800,394.5,88,4,-1,24,35,25,35,TRUE
null,null,psychophysics,181,424158,0.0-3.0-1.87,,key,null,16.6751,800,394.5,,,,,,,,
1774.6,arrowright,psychophysics,182,425954,0.0-3.0-0.88,,key,arrowright,16.67069811,800,394.5,89,4,-1,26,35,25,35,FALSE
null,null,psychophysics,183,426957,0.0-3.0-1.88,,key,null,16.6719661,800,394.5,,,,,,,,
2202.5,arrowleft,psychophysics,184,429169,0.0-3.0-0.89,,key,arrowleft,16.67127273,800,394.5,90,4,-1,24,15,25,35,TRUE
null,null,psychophysics,185,430175,0.0-3.0-1.89,,key,null,16.67371186,800,394.5,,,,,,,,
2932.4,arrowright,psychophysics,186,433117,0.0-3.0-0.90,,key,arrowright,16.67218182,800,394.5,91,4,-1,27,15,25,35,FALSE
null,null,psychophysics,187,434142,0.0-3.0-1.90,,key,null,16.67013333,800,394.5,,,,,,,,
991.8,arrowright,psychophysics,188,435146,0.0-3.0-0.91,,key,arrowright,16.67313333,800,394.5,92,4,1,24,15,25,35,TRUE
null,null,psychophysics,189,436160,0.0-3.0-1.91,,key,null,16.67335593,800,394.5,,,,,,,,
1571.4,arrowright,psychophysics,190,437739,0.0-3.0-0.92,,key,arrowright,16.67155319,800,394.5,93,4,-1,20,15,25,35,FALSE
null,null,psychophysics,191,438744,0.0-3.0-1.92,,key,null,16.67210169,800,394.5,,,,,,,,
1073.2,arrowright,psychophysics,192,439828,0.0-3.0-0.93,,key,arrowright,16.67292187,800,394.5,94,4,1,27,15,25,35,TRUE
null,null,psychophysics,193,440845,0.0-3.0-1.93,,key,null,16.67376667,800,394.5,,,,,,,,
2223.8,arrowleft,psychophysics,194,443079,0.0-3.0-0.94,,key,arrowleft,16.67096241,800,394.5,95,4,-1,24,35,25,35,TRUE
null,null,psychophysics,195,444082,0.0-3.0-1.94,,key,null,16.6755,800,394.5,,,,,,,,
828.9,arrowright,psychophysics,196,444917,0.0-3.0-0.95,,key,arrowright,16.66961224,800,394.5,96,4,1,30,35,25,35,TRUE
null,null,psychophysics,197,445930,0.0-3.0-1.95,,key,null,16.6710678,800,394.5,,,,,,,,
832.9,arrowleft,psychophysics,198,446779,0.0-3.0-0.96,,key,arrowleft,16.6708,800,394.5,97,4,-1,27,15,25,35,TRUE
null,null,psychophysics,199,447801,0.0-3.0-1.96,,key,null,16.66740984,800,394.5,,,,,,,,
1150,arrowright,psychophysics,200,448955,0.0-3.0-0.97,,key,arrowright,16.67520588,800,394.5,98,4,1,25,15,25,35,TRUE
null,null,psychophysics,201,449965,0.0-3.0-1.97,,key,null,16.67032203,800,394.5,,,,,,,,
1399.4,arrowright,psychophysics,202,451374,0.0-3.0-0.98,,key,arrowright,16.67092857,800,394.5,99,4,1,23,15,25,35,TRUE
null,null,psychophysics,203,452380,0.0-3.0-1.98,,key,null,16.67301695,800,394.5,,,,,,,,
1378.1,arrowleft,psychophysics,204,453769,0.0-3.0-0.99,,key,arrowleft,16.66931325,800,394.5,100,4,-1,30,35,25,35,TRUE
null,null,psychophysics,205,454783,0.0-3.0-1.99,,key,null,16.6770678,800,394.5,,,,,,,,
4833.4,arrowright,psychophysics,206,459628,0.0-3.0-0.100,,key,arrowright,16.67166552,800,394.5,101,4,1,20,15,25,35,TRUE
null,null,psychophysics,207,460634,0.0-3.0-1.100,,key,null,16.67111864,800,394.5,,,,,,,,
1326.8,arrowleft,psychophysics,208,461985,0.0-3.0-0.101,,key,arrowleft,16.6713625,800,394.5,102,4,1,23,35,25,35,FALSE
null,null,psychophysics,209,462988,0.0-3.0-1.101,,key,null,16.67283333,800,394.5,,,,,,,,
1544.3,arrowleft,psychophysics,210,464539,0.0-3.0-0.102,,key,arrowleft,16.67101087,800,394.5,103,4,-1,27,35,25,35,TRUE
null,null,psychophysics,211,465544,0.0-3.0-1.102,,key,null,16.67220339,800,394.5,,,,,,,,
1505.2,arrowleft,psychophysics,212,467056,0.0-3.0-0.103,,key,arrowleft,16.67206667,800,394.5,104,4,-1,27,15,25,35,TRUE
null,null,psychophysics,213,468070,0.0-3.0-1.103,,key,null,16.67511864,800,394.5,,,,,,,,
1502.1,arrowright,psychophysics,214,469593,0.0-3.0-0.104,,key,arrowright,16.67320879,800,394.5,105,4,1,25,35,25,35,TRUE
null,null,psychophysics,215,470602,0.0-3.0-1.104,,key,null,16.66837288,800,394.5,,,,,,,,
992.1,arrowleft,psychophysics,216,471604,0.0-3.0-0.105,,key,arrowleft,16.67322034,800,394.5,106,4,-1,20,15,25,35,TRUE
null,null,psychophysics,217,472605,0.0-3.0-1.105,,key,null,16.67326667,800,394.5,,,,,,,,
1176.5,arrowright,psychophysics,218,473786,0.0-3.0-0.106,,key,arrowright,16.67249275,800,394.5,107,4,-1,27,15,25,35,FALSE
null,null,psychophysics,219,474801,0.0-3.0-1.106,,key,null,16.67146667,800,394.5,,,,,,,,
783.3,arrowleft,psychophysics,220,475594,0.0-3.0-0.107,,key,arrowleft,16.66825532,800,394.5,108,4,-1,30,15,25,35,TRUE
null,null,psychophysics,221,476597,0.0-3.0-1.107,,key,null,16.67164407,800,394.5,,,,,,,,
851,arrowright,psychophysics,222,477453,0.0-3.0-0.108,,key,arrowright,16.67074,800,394.5,109,4,1,30,15,25,35,TRUE
null,null,psychophysics,223,478456,0.0-3.0-1.108,,key,null,16.6710339,800,394.5,,,,,,,,
885.4,arrowleft,psychophysics,224,479362,0.0-3.0-0.109,,key,arrowleft,16.67190741,800,394.5,110,4,1,20,35,25,35,FALSE
null,null,psychophysics,225,480374,0.0-3.0-1.109,,key,null,16.67094915,800,394.5,,,,,,,,
2252.9,arrowright,psychophysics,226,482644,0.0-3.0-0.110,,key,arrowright,16.67185294,800,394.5,111,4,-1,20,15,25,35,FALSE
null,null,psychophysics,227,483648,0.0-3.0-1.110,,key,null,16.67164407,800,394.5,,,,,,,,
4931,arrowright,psychophysics,228,488586,0.0-3.0-0.111,,key,arrowright,16.67162373,800,394.5,112,5,-1,24,15,25,35,FALSE
null,null,psychophysics,229,489610,0.0-3.0-1.111,,key,null,16.66746667,800,394.5,,,,,,,,
958.2,arrowright,html-keyboard-response,230,490571,0.0-3.0-2.111-0.111,"<div style=""color: white; text-align: center; vertical-align: top; display: inline-block; width: 800px; margin: auto""><p>You have completed 40% of the trials. You are on block 5 of 10. <br>Good job! Take a break if you need to.</p><p>Press any key to continue the experiment.</p></div>",,,,,,,,,,,,,
1342,arrowright,psychophysics,231,492932,0.0-3.0-0.112,,key,arrowright,16.67228395,800,394.5,113,5,1,26,35,25,35,TRUE
null,null,psychophysics,232,493934,0.0-3.0-1.112,,key,null,16.67301695,800,394.5,,,,,,,,
1028.2,arrowright,psychophysics,233,494968,0.0-3.0-0.113,,key,arrowright,16.66932787,800,394.5,114,5,1,24,15,25,35,TRUE
null,null,psychophysics,234,495988,0.0-3.0-1.113,,key,null,16.67618333,800,394.5,,,,,,,,
811.9,arrowleft,psychophysics,235,496804,0.0-3.0-0.114,,key,arrowleft,16.67125,800,394.5,115,5,-1,25,15,25,35,TRUE
null,null,psychophysics,236,497808,0.0-3.0-1.114,,key,null,16.66305085,800,394.5,,,,,,,,
1349.7,arrowleft,psychophysics,237,499160,0.0-3.0-0.115,,key,arrowleft,16.675825,800,394.5,116,5,-1,26,35,25,35,TRUE
null,null,psychophysics,238,500163,0.0-3.0-1.115,,key,null,16.67128814,800,394.5,,,,,,,,
1160.4,arrowright,psychophysics,239,501334,0.0-3.0-0.116,,key,arrowright,16.67158571,800,394.5,117,5,1,25,35,25,35,TRUE
null,null,psychophysics,240,502351,0.0-3.0-1.116,,key,null,16.67128333,800,394.5,,,,,,,,
772.2,arrowleft,psychophysics,241,503131,0.0-3.0-0.117,,key,arrowleft,16.671,800,394.5,118,5,-1,24,15,25,35,TRUE
null,null,psychophysics,242,504134,0.0-3.0-1.117,,key,null,16.6728,800,394.5,,,,,,,,
1543.8,arrowright,psychophysics,243,505685,0.0-3.0-0.118,,key,arrowright,16.67086957,800,394.5,119,5,-1,20,35,25,35,FALSE
null,null,psychophysics,244,506691,0.0-3.0-1.118,,key,null,16.67108475,800,394.5,,,,,,,,
864.7,arrowleft,psychophysics,245,507562,0.0-3.0-0.119,,key,arrowleft,16.67443137,800,394.5,120,5,1,26,35,25,35,FALSE
null,null,psychophysics,246,508566,0.0-3.0-1.119,,key,null,16.67276271,800,394.5,,,,,,,,
543.4,arrowright,psychophysics,247,509153,0.0-3.0-0.120,,key,arrowright,17.15882353,800,394.5,121,5,1,27,35,25,35,TRUE
null,null,psychophysics,248,510163,0.0-3.0-1.120,,key,null,16.66564407,800,394.5,,,,,,,,
1067.8,arrowright,psychophysics,249,511234,0.0-3.0-0.121,,key,arrowright,16.6777619,800,394.5,122,5,1,23,15,25,35,TRUE
null,null,psychophysics,250,512248,0.0-3.0-1.121,,key,null,16.6683,800,394.5,,,,,,,,
1093.1,arrowleft,psychophysics,251,513347,0.0-3.0-0.122,,key,arrowleft,16.67055385,800,394.5,123,5,1,25,35,25,35,FALSE
null,null,psychophysics,252,514350,0.0-3.0-1.122,,key,null,16.67105085,800,394.5,,,,,,,,
1464.3,arrowleft,psychophysics,253,515824,0.0-3.0-0.123,,key,arrowleft,16.67294318,800,394.5,124,5,-1,26,35,25,35,TRUE
null,null,psychophysics,254,516844,0.0-3.0-1.123,,key,null,16.67125,800,394.5,,,,,,,,
656.1,arrowright,psychophysics,255,517505,0.0-3.0-0.124,,key,arrowright,16.67241026,800,394.5,125,5,1,24,15,25,35,TRUE
null,null,psychophysics,256,518515,0.0-3.0-1.124,,key,null,16.66950847,800,394.5,,,,,,,,
867.3,arrowleft,psychophysics,257,519394,0.0-3.0-0.125,,key,arrowleft,16.66738462,800,394.5,126,5,1,25,15,25,35,FALSE
null,null,psychophysics,258,520403,0.0-3.0-1.125,,key,null,16.67161017,800,394.5,,,,,,,,
668.8,arrowleft,psychophysics,259,521082,0.0-3.0-0.126,,key,arrowleft,16.670925,800,394.5,127,5,1,23,35,25,35,FALSE
null,null,psychophysics,260,522087,0.0-3.0-1.126,,key,null,16.67186441,800,394.5,,,,,,,,
776.9,arrowleft,psychophysics,261,522874,0.0-3.0-0.127,,key,arrowleft,16.67068085,800,394.5,128,5,-1,30,15,25,35,TRUE
null,null,psychophysics,262,523898,0.0-3.0-1.127,,key,null,16.66961667,800,394.5,,,,,,,,
750,arrowright,psychophysics,263,524660,0.0-3.0-0.128,,key,arrowright,16.66762222,800,394.5,129,5,1,24,15,25,35,TRUE
null,null,psychophysics,264,525667,0.0-3.0-1.128,,key,null,16.67274576,800,394.5,,,,,,,,
943.4,arrowright,psychophysics,265,526622,0.0-3.0-0.129,,key,arrowright,16.67066071,800,394.5,130,5,-1,20,35,25,35,FALSE
null,null,psychophysics,266,527638,0.0-3.0-1.129,,key,null,16.66973333,800,394.5,,,,,,,,
751.7,arrowleft,psychophysics,267,528399,0.0-3.0-0.130,,key,arrowleft,16.66775556,800,394.5,131,5,-1,27,35,25,35,TRUE
null,null,psychophysics,268,529405,0.0-3.0-1.130,,key,null,16.67447458,800,394.5,,,,,,,,
1364.2,arrowleft,psychophysics,269,530788,0.0-3.0-0.131,,key,arrowleft,16.67106098,800,394.5,132,5,-1,26,15,25,35,TRUE
null,null,psychophysics,270,531790,0.0-3.0-1.131,,key,null,16.6770678,800,394.5,,,,,,,,
5628.3,arrowleft,psychophysics,271,537427,0.0-3.0-0.132,,key,arrowleft,16.67121302,800,394.5,133,5,1,23,35,25,35,FALSE
null,null,psychophysics,272,538444,0.0-3.0-1.132,,key,null,16.6734,800,394.5,,,,,,,,
1615.2,arrowleft,psychophysics,273,540065,0.0-3.0-0.133,,key,arrowleft,16.66859375,800,394.5,134,5,1,20,35,25,35,FALSE
null,null,psychophysics,274,541070,0.0-3.0-1.133,,key,null,16.67510169,800,394.5,,,,,,,,
786.5,arrowright,psychophysics,275,541868,0.0-3.0-0.134,,key,arrowright,16.67034043,800,394.5,135,5,1,27,15,25,35,TRUE
null,null,psychophysics,276,542877,0.0-3.0-1.134,,key,null,16.66979661,800,394.5,,,,,,,,
1010.5,arrowright,psychophysics,277,543897,0.0-3.0-0.135,,key,arrowright,16.67147541,800,394.5,136,5,1,20,15,25,35,TRUE
null,null,psychophysics,278,544912,0.0-3.0-1.135,,key,null,16.67226667,800,394.5,,,,,,,,
4014.7,arrowleft,psychophysics,279,548933,0.0-3.0-0.136,,key,arrowleft,16.67196667,800,394.5,137,5,-1,25,35,25,35,TRUE
null,null,psychophysics,280,549946,0.0-3.0-1.136,,key,null,16.67184746,800,394.5,,,,,,,,
1650.6,arrowright,psychophysics,281,551607,0.0-3.0-0.137,,key,arrowright,16.67064646,800,394.5,138,5,1,27,15,25,35,TRUE
null,null,psychophysics,282,552630,0.0-3.0-1.137,,key,null,16.67383333,800,394.5,,,,,,,,
1311.8,arrowleft,psychophysics,283,553950,0.0-3.0-0.138,,key,arrowleft,16.67216456,800,394.5,139,5,1,24,35,25,35,FALSE
null,null,psychophysics,284,554958,0.0-3.0-1.138,,key,null,16.673,800,394.5,,,,,,,,
1221.2,arrowleft,psychophysics,285,556185,0.0-3.0-0.139,,key,arrowleft,16.67161644,800,394.5,140,6,1,20,35,25,35,FALSE
null,null,psychophysics,286,557199,0.0-3.0-1.139,,key,null,16.67376667,800,394.5,,,,,,,,
6590.8,arrowleft,html-keyboard-response,287,563793,0.0-3.0-2.139-0.139,"<div style=""color: white; text-align: center; vertical-align: top; display: inline-block; width: 800px; margin: auto""><p>You have completed 50% of the trials. You are on block 6 of 10. <br>Good job! Take a break if you need to.</p><p>Press any key to continue the experiment.</p></div>",,,,,,,,,,,,,
626.8,arrowleft,psychophysics,288,565452,0.0-3.0-0.140,,key,arrowleft,16.67305263,800,394.5,141,6,1,30,15,25,35,FALSE
null,null,psychophysics,289,566455,0.0-3.0-1.140,,key,null,16.67355932,800,394.5,,,,,,,,
765,arrowright,psychophysics,290,567225,0.0-3.0-0.141,,key,arrowright,16.6684,800,394.5,142,6,1,30,15,25,35,TRUE
null,null,psychophysics,291,568234,0.0-3.0-1.141,,key,null,16.67030508,800,394.5,,,,,,,,
719.7,arrowleft,psychophysics,292,568963,0.0-3.0-0.142,,key,arrowleft,16.67302326,800,394.5,143,6,1,27,35,25,35,FALSE
null,null,psychophysics,293,569967,0.0-3.0-1.142,,key,null,16.66494915,800,394.5,,,,,,,,
715.2,arrowleft,psychophysics,294,570695,0.0-3.0-0.143,,key,arrowleft,16.67634884,800,394.5,144,6,1,20,15,25,35,FALSE
null,null,psychophysics,295,571702,0.0-3.0-1.143,,key,null,16.67120339,800,394.5,,,,,,,,
911.4,arrowright,psychophysics,296,572619,0.0-3.0-0.144,,key,arrowright,16.6727963,800,394.5,145,6,-1,23,35,25,35,FALSE
null,null,psychophysics,297,573623,0.0-3.0-1.144,,key,null,16.67326667,800,394.5,,,,,,,,
947.5,arrowleft,psychophysics,298,574576,0.0-3.0-0.145,,key,arrowleft,16.66932143,800,394.5,146,6,1,25,35,25,35,FALSE
null,null,psychophysics,299,575586,0.0-3.0-1.145,,key,null,16.67283051,800,394.5,,,,,,,,
856.3,arrowleft,psychophysics,300,576449,0.0-3.0-0.146,,key,arrowleft,16.67676471,800,394.5,147,6,-1,26,15,25,35,TRUE
null,null,psychophysics,301,577471,0.0-3.0-1.146,,key,null,16.67248333,800,394.5,,,,,,,,
734.5,arrowleft,psychophysics,302,578216,0.0-3.0-0.147,,key,arrowleft,16.665,800,394.5,148,6,-1,26,15,25,35,TRUE
null,null,psychophysics,303,579221,0.0-3.0-1.147,,key,null,16.67698305,800,394.5,,,,,,,,
560.1,arrowright,psychophysics,304,579791,0.0-3.0-0.148,,key,arrowright,16.67085294,800,394.5,149,6,-1,20,15,25,35,FALSE
null,null,psychophysics,305,580798,0.0-3.0-1.148,,key,null,16.67071186,800,394.5,,,,,,,,
609.3,arrowleft,psychophysics,306,581412,0.0-3.0-0.149,,key,arrowleft,16.67413889,800,394.5,150,6,1,25,35,25,35,FALSE
null,null,psychophysics,307,582422,0.0-3.0-1.149,,key,null,16.66876271,800,394.5,,,,,,,,
863.8,arrowright,psychophysics,308,583295,0.0-3.0-0.150,,key,arrowright,16.67096154,800,394.5,151,6,1,23,15,25,35,TRUE
null,null,psychophysics,309,584315,0.0-3.0-1.150,,key,null,16.67395,800,394.5,,,,,,,,
4390.1,arrowleft,psychophysics,310,588712,0.0-3.0-0.151,,key,arrowleft,16.67126616,800,394.5,152,6,-1,25,35,25,35,TRUE
null,null,psychophysics,311,589719,0.0-3.0-1.151,,key,null,16.67354237,800,394.5,,,,,,,,
680.4,arrowleft,psychophysics,312,590405,0.0-3.0-0.152,,key,arrowleft,16.673225,800,394.5,153,6,1,20,15,25,35,FALSE
null,null,psychophysics,313,591425,0.0-3.0-1.152,,key,null,16.67371667,800,394.5,,,,,,,,
764,arrowleft,psychophysics,314,592199,0.0-3.0-0.153,,key,arrowleft,16.66928261,800,394.5,154,6,-1,30,15,25,35,TRUE
null,null,psychophysics,315,593207,0.0-3.0-1.153,,key,null,16.66732203,800,394.5,,,,,,,,
682.4,arrowright,psychophysics,316,593916,0.0-3.0-0.154,,key,arrowright,16.67495238,800,394.5,155,6,1,26,15,25,35,TRUE
null,null,psychophysics,317,594921,0.0-3.0-1.154,,key,null,16.67367797,800,394.5,,,,,,,,
746.3,arrowright,psychophysics,318,595676,0.0-3.0-0.155,,key,arrowright,16.67438636,800,394.5,156,6,1,27,15,25,35,TRUE
null,null,psychophysics,319,596680,0.0-3.0-1.155,,key,null,16.67331667,800,394.5,,,,,,,,
5705.3,arrowright,psychophysics,320,602429,0.0-3.0-0.156,,key,arrowright,16.67159302,800,394.5,157,6,-1,27,35,25,35,FALSE
null,null,psychophysics,321,603433,0.0-3.0-1.156,,key,null,16.67622034,800,394.5,,,,,,,,
2783.6,arrowright,psychophysics,322,606237,0.0-3.0-0.157,,key,arrowright,16.6722515,800,394.5,158,6,1,27,35,25,35,TRUE
null,null,psychophysics,323,607240,0.0-3.0-1.157,,key,null,16.6689322,800,394.5,,,,,,,,
1169.8,arrowleft,psychophysics,324,608433,0.0-3.0-0.158,,key,arrowleft,16.67153521,800,394.5,159,6,-1,27,15,25,35,TRUE
null,null,psychophysics,325,609436,0.0-3.0-1.158,,key,null,16.67181356,800,394.5,,,,,,,,
1460.8,arrowright,psychophysics,326,610903,0.0-3.0-0.159,,key,arrowright,16.67418391,800,394.5,160,6,1,26,15,25,35,TRUE
null,null,psychophysics,327,611924,0.0-3.0-1.159,,key,null,16.67233333,800,394.5,,,,,,,,
998.7,arrowright,psychophysics,328,612927,0.0-3.0-0.160,,key,arrowright,16.66942373,800,394.5,161,6,1,27,15,25,35,TRUE
null,null,psychophysics,329,613930,0.0-3.0-1.160,,key,null,16.6770678,800,394.5,,,,,,,,
721.8,arrowleft,psychophysics,330,614665,0.0-3.0-0.161,,key,arrowleft,16.66927907,800,394.5,162,6,-1,26,15,25,35,TRUE
null,null,psychophysics,331,615669,0.0-3.0-1.161,,key,null,16.67205,800,394.5,,,,,,,,
662.4,arrowright,psychophysics,332,616337,0.0-3.0-0.162,,key,arrowright,16.66882051,800,394.5,163,6,1,30,15,25,35,TRUE
null,null,psychophysics,333,617342,0.0-3.0-1.162,,key,null,16.6720678,800,394.5,,,,,,,,
950.2,arrowleft,psychophysics,334,618319,0.0-3.0-0.163,,key,arrowleft,16.67072414,800,394.5,164,6,1,26,35,25,35,FALSE
null,null,psychophysics,335,619329,0.0-3.0-1.163,,key,null,16.67171186,800,394.5,,,,,,,,
722.4,arrowright,psychophysics,336,620061,0.0-3.0-0.164,,key,arrowright,16.67146512,800,394.5,165,6,-1,20,35,25,35,FALSE
null,null,psychophysics,337,621065,0.0-3.0-1.164,,key,null,16.67247458,800,394.5,,,,,,,,
2898.9,arrowright,psychophysics,338,623975,0.0-3.0-0.165,,key,arrowright,16.6718908,800,394.5,166,6,-1,23,15,25,35,FALSE
null,null,psychophysics,339,624995,0.0-3.0-1.165,,key,null,16.67245,800,394.5,,,,,,,,
10423.5,arrowright,psychophysics,340,635425,0.0-3.0-0.166,,key,arrowright,16.671608,800,394.5,167,6,-1,26,35,25,35,FALSE
null,null,psychophysics,341,636446,0.0-3.0-1.166,,key,null,16.6729,800,394.5,,,,,,,,
1061.2,arrowright,psychophysics,342,637511,0.0-3.0-0.167,,key,arrowright,16.67285714,800,394.5,168,7,-1,24,35,25,35,FALSE
null,null,psychophysics,343,638515,0.0-3.0-1.167,,key,null,16.6730339,800,394.5,,,,,,,,
1608.1,arrowright,html-keyboard-response,344,640126,0.0-3.0-2.167-0.167,"<div style=""color: white; text-align: center; vertical-align: top; display: inline-block; width: 800px; margin: auto""><p>You have completed 60% of the trials. You are on block 7 of 10. <br>Good job! Take a break if you need to.</p><p>Press any key to continue the experiment.</p></div>",,,,,,,,,,,,,
944,arrowright,psychophysics,345,642100,0.0-3.0-0.168,,key,arrowright,16.9645614,800,394.5,169,7,1,26,15,25,35,TRUE
null,null,psychophysics,346,643125,0.0-3.0-1.168,,key,null,16.6737377,800,394.5,,,,,,,,
772,arrowright,psychophysics,347,643904,0.0-3.0-0.169,,key,arrowright,16.66475556,800,394.5,170,7,1,25,15,25,35,TRUE
null,null,psychophysics,348,644907,0.0-3.0-1.169,,key,null,16.68113559,800,394.5,,,,,,,,
1017,arrowleft,psychophysics,349,645933,0.0-3.0-0.170,,key,arrowleft,16.67298361,800,394.5,171,7,1,26,35,25,35,FALSE
null,null,psychophysics,350,646940,0.0-3.0-1.170,,key,null,16.66781356,800,394.5,,,,,,,,
728.5,arrowright,psychophysics,351,647675,0.0-3.0-0.171,,key,arrowright,16.66870455,800,394.5,172,7,1,30,15,25,35,TRUE
null,null,psychophysics,352,648677,0.0-3.0-1.171,,key,null,16.67515254,800,394.5,,,,,,,,
657.4,arrowleft,psychophysics,353,649363,0.0-3.0-0.172,,key,arrowleft,16.670825,800,394.5,173,7,-1,30,15,25,35,TRUE
null,null,psychophysics,354,650369,0.0-3.0-1.172,,key,null,16.67462712,800,394.5,,,,,,,,
1978.2,arrowleft,psychophysics,355,652354,0.0-3.0-0.173,,key,arrowleft,16.67211017,800,394.5,174,7,-1,20,15,25,35,TRUE
null,null,psychophysics,356,653360,0.0-3.0-1.173,,key,null,16.67554237,800,394.5,,,,,,,,
1242.7,arrowright,psychophysics,357,654614,0.0-3.0-0.174,,key,arrowright,16.67086667,800,394.5,175,7,1,27,35,25,35,TRUE
null,null,psychophysics,358,655623,0.0-3.0-1.174,,key,null,16.67625424,800,394.5,,,,,,,,
644.8,arrowright,psychophysics,359,656293,0.0-3.0-0.175,,key,arrowright,16.67474359,800,394.5,176,7,1,27,15,25,35,TRUE
null,null,psychophysics,360,657297,0.0-3.0-1.175,,key,null,16.67206667,800,394.5,,,,,,,,
664.6,arrowleft,psychophysics,361,657988,0.0-3.0-0.176,,key,arrowleft,16.67195,800,394.5,177,7,-1,23,15,25,35,TRUE
null,null,psychophysics,362,658992,0.0-3.0-1.176,,key,null,16.671,800,394.5,,,,,,,,
614,arrowright,psychophysics,363,659616,0.0-3.0-0.177,,key,arrowright,16.67162162,800,394.5,178,7,1,30,15,25,35,TRUE
null,null,psychophysics,364,660629,0.0-3.0-1.177,,key,null,16.67333898,800,394.5,,,,,,,,
932,arrowright,psychophysics,365,661572,0.0-3.0-0.178,,key,arrowright,16.67094643,800,394.5,179,7,-1,20,35,25,35,FALSE
null,null,psychophysics,366,662578,0.0-3.0-1.178,,key,null,16.67188136,800,394.5,,,,,,,,
792.5,arrowleft,psychophysics,367,663384,0.0-3.0-0.179,,key,arrowleft,16.67272917,800,394.5,180,7,-1,26,15,25,35,TRUE
null,null,psychophysics,368,664396,0.0-3.0-1.179,,key,null,16.67174576,800,394.5,,,,,,,,
1544.3,arrowright,psychophysics,369,665956,0.0-3.0-0.180,,key,arrowright,16.67407527,800,394.5,181,7,-1,20,35,25,35,FALSE
null,null,psychophysics,370,666964,0.0-3.0-1.180,,key,null,16.67108475,800,394.5,,,,,,,,
775.7,arrowright,psychophysics,371,667750,0.0-3.0-0.181,,key,arrowright,16.67021277,800,394.5,182,7,1,30,35,25,35,TRUE
null,null,psychophysics,372,668764,0.0-3.0-1.181,,key,null,16.67459322,800,394.5,,,,,,,,
897.3,arrowleft,psychophysics,373,669673,0.0-3.0-0.182,,key,arrowleft,16.67138889,800,394.5,183,7,1,24,35,25,35,FALSE
null,null,psychophysics,374,670696,0.0-3.0-1.182,,key,null,16.6751,800,394.5,,,,,,,,
1318,arrowleft,psychophysics,375,672022,0.0-3.0-0.183,,key,arrowleft,16.66882278,800,394.5,184,7,-1,23,15,25,35,TRUE
null,null,psychophysics,376,673032,0.0-3.0-1.183,,key,null,16.67316949,800,394.5,,,,,,,,
1415.7,arrowleft,psychophysics,377,674458,0.0-3.0-0.184,,key,arrowleft,16.67216471,800,394.5,185,7,1,23,35,25,35,FALSE
null,null,psychophysics,378,675466,0.0-3.0-1.184,,key,null,16.6730678,800,394.5,,,,,,,,
1690.4,arrowleft,psychophysics,379,677167,0.0-3.0-0.185,,key,arrowleft,16.67082178,800,394.5,186,7,-1,26,15,25,35,TRUE
null,null,psychophysics,380,678185,0.0-3.0-1.185,,key,null,16.67418033,800,394.5,,,,,,,,
2700.1,arrowright,psychophysics,381,680891,0.0-3.0-0.186,,key,arrowright,16.67155901,800,394.5,187,7,-1,25,35,25,35,FALSE
null,null,psychophysics,382,681902,0.0-3.0-1.186,,key,null,16.6720339,800,394.5,,,,,,,,
1330.3,arrowright,psychophysics,383,683244,0.0-3.0-0.187,,key,arrowright,16.6716125,800,394.5,188,7,1,23,35,25,35,TRUE
null,null,psychophysics,384,684252,0.0-3.0-1.187,,key,null,16.66815254,800,394.5,,,,,,,,
777.4,arrowright,psychophysics,385,685053,0.0-3.0-0.188,,key,arrowright,16.67287234,800,394.5,189,7,1,26,35,25,35,TRUE
null,null,psychophysics,386,686072,0.0-3.0-1.188,,key,null,16.676,800,394.5,,,,,,,,
635.9,arrowleft,psychophysics,387,686714,0.0-3.0-0.189,,key,arrowleft,16.67035135,800,394.5,190,7,-1,30,15,25,35,TRUE
null,null,psychophysics,388,687720,0.0-3.0-1.189,,key,null,16.67061017,800,394.5,,,,,,,,
1053.7,arrowright,psychophysics,389,688780,0.0-3.0-0.190,,key,arrowright,16.67349206,800,394.5,191,7,1,30,35,25,35,TRUE
null,null,psychophysics,390,689786,0.0-3.0-1.190,,key,null,16.67366102,800,394.5,,,,,,,,
662.3,arrowleft,psychophysics,391,690459,0.0-3.0-0.191,,key,arrowleft,16.676625,800,394.5,192,7,-1,30,35,25,35,TRUE
null,null,psychophysics,392,691472,0.0-3.0-1.191,,key,null,16.66979661,800,394.5,,,,,,,,
724.8,arrowright,psychophysics,393,692225,0.0-3.0-0.192,,key,arrowright,16.66726667,800,394.5,193,7,1,25,15,25,35,TRUE
null,null,psychophysics,394,693238,0.0-3.0-1.192,,key,null,16.66981356,800,394.5,,,,,,,,
1638.2,arrowright,psychophysics,395,694887,0.0-3.0-0.193,,key,arrowright,16.6724898,800,394.5,194,7,-1,23,35,25,35,FALSE
null,null,psychophysics,396,695890,0.0-3.0-1.193,,key,null,16.67206667,800,394.5,,,,,,,,
648.8,arrowleft,psychophysics,397,696542,0.0-3.0-0.194,,key,arrowleft,16.67315789,800,394.5,195,7,-1,30,35,25,35,TRUE
null,null,psychophysics,398,697556,0.0-3.0-1.194,,key,null,16.67167797,800,394.5,,,,,,,,
557.9,arrowright,psychophysics,399,698137,0.0-3.0-0.195,,key,arrowright,16.66664706,800,394.5,196,8,1,25,15,25,35,TRUE
null,null,psychophysics,400,699167,0.0-3.0-1.195,,key,null,16.67144262,800,394.5,,,,,,,,
1137.5,arrowright,html-keyboard-response,401,700308,0.0-3.0-2.195-0.195,"<div style=""color: white; text-align: center; vertical-align: top; display: inline-block; width: 800px; margin: auto""><p>You have completed 70% of the trials. You are on block 8 of 10. <br>Good job! Take a break if you need to.</p><p>Press any key to continue the experiment.</p></div>",,,,,,,,,,,,,
1281,arrowright,psychophysics,402,702600,0.0-3.0-0.196,,key,arrowright,16.67201299,800,394.5,197,8,-1,23,35,25,35,FALSE
null,null,psychophysics,403,703603,0.0-3.0-1.196,,key,null,16.6719322,800,394.5,,,,,,,,
626,arrowleft,psychophysics,404,704238,0.0-3.0-0.197,,key,arrowleft,16.66897297,800,394.5,198,8,-1,30,15,25,35,TRUE
null,null,psychophysics,405,705242,0.0-3.0-1.197,,key,null,16.67571186,800,394.5,,,,,,,,
561.3,arrowright,psychophysics,406,705829,0.0-3.0-0.198,,key,arrowright,16.67337143,800,394.5,199,8,1,24,15,25,35,TRUE
null,null,psychophysics,407,706838,0.0-3.0-1.198,,key,null,16.67181356,800,394.5,,,,,,,,
831.5,arrowright,psychophysics,408,707679,0.0-3.0-0.199,,key,arrowright,16.67082,800,394.5,200,8,1,24,15,25,35,TRUE
null,null,psychophysics,409,708687,0.0-3.0-1.199,,key,null,16.67628814,800,394.5,,,,,,,,
850.6,arrowright,psychophysics,410,709544,0.0-3.0-0.200,,key,arrowright,16.673,800,394.5,201,8,1,26,15,25,35,TRUE
null,null,psychophysics,411,710560,0.0-3.0-1.200,,key,null,16.67238333,800,394.5,,,,,,,,
1010.5,arrowright,psychophysics,412,711594,0.0-3.0-0.201,,key,arrowright,16.67190164,800,394.5,202,8,-1,20,15,25,35,FALSE
null,null,psychophysics,413,712611,0.0-3.0-1.201,,key,null,16.67305,800,394.5,,,,,,,,
585.5,arrowleft,psychophysics,414,713228,0.0-3.0-0.202,,key,arrowleft,16.67094444,800,394.5,203,8,-1,30,15,25,35,TRUE
null,null,psychophysics,415,714232,0.0-3.0-1.202,,key,null,16.67236667,800,394.5,,,,,,,,
2595.7,arrowleft,psychophysics,416,716834,0.0-3.0-0.203,,key,arrowleft,16.67081935,800,394.5,204,8,1,20,15,25,35,FALSE
null,null,psychophysics,417,717842,0.0-3.0-1.203,,key,null,16.67274576,800,394.5,,,,,,,,
1639.7,arrowleft,psychophysics,418,719491,0.0-3.0-0.204,,key,arrowleft,16.67355102,800,394.5,205,8,1,23,35,25,35,FALSE
null,null,psychophysics,419,720514,0.0-3.0-1.204,,key,null,16.6735,800,394.5,,,,,,,,
2051.5,arrowright,psychophysics,420,722577,0.0-3.0-0.205,,key,arrowright,16.67173171,800,394.5,206,8,1,25,35,25,35,TRUE
null,null,psychophysics,421,723581,0.0-3.0-1.205,,key,null,16.67055932,800,394.5,,,,,,,,
848.4,arrowleft,psychophysics,422,724444,0.0-3.0-0.206,,key,arrowleft,16.67170588,800,394.5,207,8,-1,30,15,25,35,TRUE
null,null,psychophysics,423,725449,0.0-3.0-1.206,,key,null,16.67218644,800,394.5,,,,,,,,
1017.9,arrowright,psychophysics,424,726477,0.0-3.0-0.207,,key,arrowright,16.67388525,800,394.5,208,8,-1,25,35,25,35,FALSE
null,null,psychophysics,425,727514,0.0-3.0-1.207,,key,null,16.67131148,800,394.5,,,,,,,,
1037.8,arrowright,psychophysics,426,728559,0.0-3.0-0.208,,key,arrowright,16.67254839,800,394.5,209,8,1,30,35,25,35,TRUE
null,null,psychophysics,427,729566,0.0-3.0-1.208,,key,null,16.67120339,800,394.5,,,,,,,,
1062.3,arrowleft,psychophysics,428,730637,0.0-3.0-0.209,,key,arrowleft,16.67103125,800,394.5,210,8,1,20,15,25,35,FALSE
null,null,psychophysics,429,731650,0.0-3.0-1.209,,key,null,16.67135593,800,394.5,,,,,,,,
1067.8,arrowright,psychophysics,430,732726,0.0-3.0-0.210,,key,arrowright,16.6686875,800,394.5,211,8,-1,23,35,25,35,FALSE
null,null,psychophysics,431,733732,0.0-3.0-1.210,,key,null,16.67237288,800,394.5,,,,,,,,
790.4,arrowright,psychophysics,432,734551,0.0-3.0-0.211,,key,arrowright,16.67045833,800,394.5,212,8,1,27,15,25,35,TRUE
null,null,psychophysics,433,735553,0.0-3.0-1.211,,key,null,16.67415,800,394.5,,,,,,,,
979.4,arrowleft,psychophysics,434,736538,0.0-3.0-0.212,,key,arrowleft,16.67231034,800,394.5,213,8,-1,30,35,25,35,TRUE
null,null,psychophysics,435,737550,0.0-3.0-1.212,,key,null,16.67110169,800,394.5,,,,,,,,
802.8,arrowleft,psychophysics,436,738363,0.0-3.0-0.213,,key,arrowleft,16.67395833,800,394.5,214,8,-1,30,35,25,35,TRUE
null,null,psychophysics,437,739369,0.0-3.0-1.213,,key,null,16.67230508,800,394.5,,,,,,,,
4063.7,arrowleft,psychophysics,438,743444,0.0-3.0-0.214,,key,arrowleft,16.67189344,800,394.5,215,8,-1,26,35,25,35,TRUE
null,null,psychophysics,439,744470,0.0-3.0-1.214,,key,null,16.67005,800,394.5,,,,,,,,
3221.5,arrowright,psychophysics,440,747699,0.0-3.0-0.215,,key,arrowright,16.67781347,800,394.5,216,8,-1,26,35,25,35,FALSE
null,null,psychophysics,441,748706,0.0-3.0-1.215,,key,null,16.67601695,800,394.5,,,,,,,,
765.3,arrowright,psychophysics,442,749483,0.0-3.0-0.216,,key,arrowright,16.66784783,800,394.5,217,8,-1,23,35,25,35,FALSE
null,null,psychophysics,443,750490,0.0-3.0-1.216,,key,null,16.67371186,800,394.5,,,,,,,,
2877.6,arrowleft,psychophysics,444,753399,0.0-3.0-0.217,,key,arrowleft,16.67197701,800,394.5,218,8,-1,24,15,25,35,TRUE
null,null,psychophysics,445,754402,0.0-3.0-1.217,,key,null,16.66764407,800,394.5,,,,,,,,
3741.6,arrowright,psychophysics,446,758147,0.0-3.0-0.218,,key,arrowright,16.67272768,800,394.5,219,8,-1,25,15,25,35,FALSE
null,null,psychophysics,447,759176,0.0-3.0-1.218,,key,null,16.67123333,800,394.5,,,,,,,,
722,arrowright,psychophysics,448,759910,0.0-3.0-0.219,,key,arrowright,16.672,800,394.5,220,8,1,30,15,25,35,TRUE
null,null,psychophysics,449,760913,0.0-3.0-1.219,,key,null,16.6724,800,394.5,,,,,,,,
878,arrowleft,psychophysics,450,761797,0.0-3.0-0.220,,key,arrowleft,16.67057692,800,394.5,221,8,1,20,35,25,35,FALSE
null,null,psychophysics,451,762800,0.0-3.0-1.220,,key,null,16.67359322,800,394.5,,,,,,,,
2691.6,arrowleft,psychophysics,452,765497,0.0-3.0-0.221,,key,arrowleft,16.67158385,800,394.5,222,8,-1,26,35,25,35,TRUE
null,null,psychophysics,453,766528,0.0-3.0-1.221,,key,null,16.672,800,394.5,,,,,,,,
578.4,arrowright,psychophysics,454,767116,0.0-3.0-0.222,,key,arrowright,16.67751429,800,394.5,223,8,1,27,15,25,35,TRUE
null,null,psychophysics,455,768120,0.0-3.0-1.222,,key,null,16.67122034,800,394.5,,,,,,,,
2047.3,arrowleft,psychophysics,456,770173,0.0-3.0-0.223,,key,arrowleft,16.66904098,800,394.5,224,9,-1,30,35,25,35,TRUE
null,null,psychophysics,457,771175,0.0-3.0-1.223,,key,null,16.67267797,800,394.5,,,,,,,,
1109.6,arrowleft,html-keyboard-response,458,772286,0.0-3.0-2.223-0.223,"<div style=""color: white; text-align: center; vertical-align: top; display: inline-block; width: 800px; margin: auto""><p>You have completed 80% of the trials. You are on block 9 of 10. <br>Good job! Take a break if you need to.</p><p>Press any key to continue the experiment.</p></div>",,,,,,,,,,,,,
3034.7,arrowright,psychophysics,459,776342,0.0-3.0-0.224,,key,arrowright,16.67,800,394.5,225,9,-1,20,15,25,35,FALSE
null,null,psychophysics,460,777356,0.0-3.0-1.224,,key,null,16.67373333,800,394.5,,,,,,,,
791.2,arrowright,psychophysics,461,778152,0.0-3.0-0.225,,key,arrowright,16.67308511,800,394.5,226,9,-1,20,35,25,35,FALSE
null,null,psychophysics,462,779156,0.0-3.0-1.225,,key,null,16.66925424,800,394.5,,,,,,,,
1030,arrowright,psychophysics,463,780190,0.0-3.0-0.226,,key,arrowright,16.67247541,800,394.5,227,9,1,26,35,25,35,TRUE
null,null,psychophysics,464,781192,0.0-3.0-1.226,,key,null,16.67198305,800,394.5,,,,,,,,
1194.2,arrowright,psychophysics,465,782390,0.0-3.0-0.227,,key,arrowright,16.67402817,800,394.5,228,9,1,24,15,25,35,TRUE
null,null,psychophysics,466,783393,0.0-3.0-1.227,,key,null,16.67157627,800,394.5,,,,,,,,
672.8,arrowleft,psychophysics,467,784093,0.0-3.0-0.228,,key,arrowleft,16.67207317,800,394.5,229,9,-1,23,15,25,35,TRUE
null,null,psychophysics,468,785100,0.0-3.0-1.228,,key,null,16.66927119,800,394.5,,,,,,,,
634.1,arrowright,psychophysics,469,785743,0.0-3.0-0.229,,key,arrowright,16.672,800,394.5,230,9,1,30,35,25,35,TRUE
null,null,psychophysics,470,786746,0.0-3.0-1.229,,key,null,16.67422034,800,394.5,,,,,,,,
839.5,arrowleft,psychophysics,471,787591,0.0-3.0-0.230,,key,arrowleft,16.66988,800,394.5,231,9,1,23,35,25,35,FALSE
null,null,psychophysics,472,788596,0.0-3.0-1.230,,key,null,16.67355932,800,394.5,,,,,,,,
436.4,arrowright,psychophysics,473,789042,0.0-3.0-0.231,,key,arrowright,16.67465385,800,394.5,232,9,-1,23,15,25,35,FALSE
null,null,psychophysics,474,790046,0.0-3.0-1.231,,key,null,16.66854237,800,394.5,,,,,,,,
452.3,arrowleft,psychophysics,475,790528,0.0-3.0-0.232,,key,arrowleft,16.67903571,800,394.5,233,9,1,20,15,25,35,FALSE
null,null,psychophysics,476,791536,0.0-3.0-1.232,,key,null,16.67516949,800,394.5,,,,,,,,
1082.1,arrowright,psychophysics,477,792628,0.0-3.0-0.233,,key,arrowright,16.67233846,800,394.5,234,9,-1,25,35,25,35,FALSE
null,null,psychophysics,478,793635,0.0-3.0-1.233,,key,null,16.67115254,800,394.5,,,,,,,,
1143.9,arrowright,psychophysics,479,794805,0.0-3.0-0.234,,key,arrowright,16.66944286,800,394.5,235,9,1,23,15,25,35,TRUE
null,null,psychophysics,480,795807,0.0-3.0-1.234,,key,null,16.67388136,800,394.5,,,,,,,,
1099.9,arrowright,psychophysics,481,796913,0.0-3.0-0.235,,key,arrowright,16.66843077,800,394.5,236,9,-1,25,35,25,35,FALSE
null,null,psychophysics,482,797923,0.0-3.0-1.235,,key,null,16.67646667,800,394.5,,,,,,,,
1428.1,arrowleft,psychophysics,483,799358,0.0-3.0-0.236,,key,arrowleft,16.67047059,800,394.5,237,9,-1,27,15,25,35,TRUE
null,null,psychophysics,484,800372,0.0-3.0-1.236,,key,null,16.67242373,800,394.5,,,,,,,,
718,arrowright,psychophysics,485,801103,0.0-3.0-0.237,,key,arrowright,16.66509302,800,394.5,238,9,1,20,35,25,35,TRUE
null,null,psychophysics,486,802106,0.0-3.0-1.237,,key,null,16.67788136,800,394.5,,,,,,,,
4763.8,arrowleft,psychophysics,487,806880,0.0-3.0-0.238,,key,arrowleft,16.67265734,800,394.5,239,9,-1,26,35,25,35,TRUE
null,null,psychophysics,488,807907,0.0-3.0-1.238,,key,null,16.67108333,800,394.5,,,,,,,,
4985.3,arrowright,psychophysics,489,812901,0.0-3.0-0.239,,key,arrowright,16.67189967,800,394.5,240,9,-1,24,35,25,35,FALSE
null,null,psychophysics,490,813907,0.0-3.0-1.239,,key,null,16.66715254,800,394.5,,,,,,,,
5076.7,arrowright,psychophysics,491,818987,0.0-3.0-0.240,,key,arrowright,16.67261842,800,394.5,241,9,-1,23,35,25,35,FALSE
null,null,psychophysics,492,820011,0.0-3.0-1.240,,key,null,16.67466667,800,394.5,,,,,,,,
1282,arrowright,psychophysics,493,821302,0.0-3.0-0.241,,key,arrowright,16.67276623,800,394.5,242,9,-1,27,35,25,35,FALSE
null,null,psychophysics,494,822312,0.0-3.0-1.241,,key,null,16.67235593,800,394.5,,,,,,,,
2808.4,arrowright,psychophysics,495,825130,0.0-3.0-0.242,,key,arrowright,16.671375,800,394.5,243,9,1,26,35,25,35,TRUE
null,null,psychophysics,496,826144,0.0-3.0-1.242,,key,null,16.66953333,800,394.5,,,,,,,,
992.3,arrowleft,psychophysics,497,827146,0.0-3.0-0.243,,key,arrowleft,16.67322034,800,394.5,244,9,-1,25,15,25,35,TRUE
null,null,psychophysics,498,828197,0.0-3.0-1.243,,key,null,16.94755738,800,394.5,,,,,,,,
1795.4,arrowleft,psychophysics,499,830001,0.0-3.0-0.244,,key,arrowleft,16.67087037,800,394.5,245,9,-1,24,15,25,35,TRUE
null,null,psychophysics,500,831014,0.0-3.0-1.244,,key,null,16.66933898,800,394.5,,,,,,,,
1092.4,arrowright,psychophysics,501,832112,0.0-3.0-0.245,,key,arrowright,16.67476923,800,394.5,246,9,1,25,15,25,35,TRUE
null,null,psychophysics,502,833117,0.0-3.0-1.245,,key,null,16.67158333,800,394.5,,,,,,,,
1008,arrowleft,psychophysics,503,834132,0.0-3.0-0.246,,key,arrowleft,16.66961017,800,394.5,247,9,-1,27,35,25,35,TRUE
null,null,psychophysics,504,835151,0.0-3.0-1.246,,key,null,16.67437705,800,394.5,,,,,,,,
861.1,arrowleft,psychophysics,505,836020,0.0-3.0-0.247,,key,arrowleft,16.67166667,800,394.5,248,9,-1,27,15,25,35,TRUE
null,null,psychophysics,506,837024,0.0-3.0-1.247,,key,null,16.67047458,800,394.5,,,,,,,,
746.8,arrowright,psychophysics,507,837777,0.0-3.0-0.248,,key,arrowright,16.66318182,800,394.5,249,9,1,30,35,25,35,TRUE
null,null,psychophysics,508,838784,0.0-3.0-1.248,,key,null,16.67437288,800,394.5,,,,,,,,
1059.6,arrowleft,psychophysics,509,839853,0.0-3.0-0.249,,key,arrowleft,16.67070313,800,394.5,250,9,-1,20,15,25,35,TRUE
null,null,psychophysics,510,840863,0.0-3.0-1.249,,key,null,16.67369492,800,394.5,,,,,,,,
1302.6,arrowright,psychophysics,511,842176,0.0-3.0-0.250,,key,arrowright,16.67287179,800,394.5,251,9,1,25,35,25,35,TRUE
null,null,psychophysics,512,843203,0.0-3.0-1.250,,key,null,16.67222951,800,394.5,,,,,,,,
828.9,arrowright,psychophysics,513,844037,0.0-3.0-0.251,,key,arrowright,16.67063265,800,394.5,252,10,1,27,35,25,35,TRUE
null,null,psychophysics,514,845048,0.0-3.0-1.251,,key,null,16.66828814,800,394.5,,,,,,,,
1147.1,arrowright,html-keyboard-response,515,846197,0.0-3.0-2.251-0.251,"<div style=""color: white; text-align: center; vertical-align: top; display: inline-block; width: 800px; margin: auto""><p>You have completed 90% of the trials. You are on block 10 of 10. <br>Good job! Take a break if you need to.</p><p>Press any key to continue the experiment.</p></div>",,,,,,,,,,,,,
1159.2,arrowright,psychophysics,516,848369,0.0-3.0-0.252,,key,arrowright,16.67015942,800,394.5,253,10,-1,24,35,25,35,FALSE
null,null,psychophysics,517,849372,0.0-3.0-1.252,,key,null,16.67311667,800,394.5,,,,,,,,
521.1,arrowleft,psychophysics,518,849924,0.0-3.0-0.253,,key,arrowleft,16.67765625,800,394.5,254,10,1,27,15,25,35,FALSE
null,null,psychophysics,519,850933,0.0-3.0-1.253,,key,null,16.67161017,800,394.5,,,,,,,,
1414.8,arrowleft,psychophysics,520,852357,0.0-3.0-0.254,,key,arrowleft,16.67225882,800,394.5,255,10,-1,30,35,25,35,TRUE
null,null,psychophysics,521,853364,0.0-3.0-1.254,,key,null,16.67150847,800,394.5,,,,,,,,
1120.8,arrowleft,psychophysics,522,854491,0.0-3.0-0.255,,key,arrowleft,16.67074627,800,394.5,256,10,-1,30,35,25,35,TRUE
null,null,psychophysics,523,855505,0.0-3.0-1.255,,key,null,16.67208475,800,394.5,,,,,,,,
928.5,arrowleft,psychophysics,524,856444,0.0-3.0-0.256,,key,arrowleft,16.67330357,800,394.5,257,10,-1,25,15,25,35,TRUE
null,null,psychophysics,525,857474,0.0-3.0-1.256,,key,null,16.672,800,394.5,,,,,,,,
752.6,arrowright,psychophysics,526,858235,0.0-3.0-0.257,,key,arrowright,16.66472727,800,394.5,258,10,1,20,15,25,35,TRUE
null,null,psychophysics,527,859239,0.0-3.0-1.257,,key,null,16.6719661,800,394.5,,,,,,,,
1129,arrowleft,psychophysics,528,860376,0.0-3.0-0.258,,key,arrowleft,16.67202941,800,394.5,259,10,-1,27,35,25,35,TRUE
null,null,psychophysics,529,861389,0.0-3.0-1.258,,key,null,16.66916949,800,394.5,,,,,,,,
1836,arrowleft,psychophysics,530,863234,0.0-3.0-0.259,,key,arrowleft,16.67121818,800,394.5,260,10,-1,25,15,25,35,TRUE
null,null,psychophysics,531,864239,0.0-3.0-1.259,,key,null,16.67259322,800,394.5,,,,,,,,
1058.2,arrowright,psychophysics,532,865326,0.0-3.0-0.260,,key,arrowright,16.67161538,800,394.5,261,10,-1,24,35,25,35,FALSE
null,null,psychophysics,533,866338,0.0-3.0-1.260,,key,null,16.66986441,800,394.5,,,,,,,,
1003.4,arrowright,psychophysics,534,867348,0.0-3.0-0.261,,key,arrowright,16.67261667,800,394.5,262,10,-1,25,15,25,35,FALSE
null,null,psychophysics,535,868354,0.0-3.0-1.261,,key,null,16.67347458,800,394.5,,,,,,,,
3737.9,arrowleft,psychophysics,536,872104,0.0-3.0-0.262,,key,arrowleft,16.67219196,800,394.5,263,10,1,24,35,25,35,FALSE
null,null,psychophysics,537,873126,0.0-3.0-1.262,,key,null,16.66981967,800,394.5,,,,,,,,
1871.4,arrowright,psychophysics,538,875000,0.0-3.0-0.263,,key,arrowright,17.13602778,800,394.5,264,10,1,27,35,25,35,TRUE
null,null,psychophysics,539,876010,0.0-3.0-1.263,,key,null,16.67444068,800,394.5,,,,,,,,
860.2,arrowleft,psychophysics,540,876876,0.0-3.0-0.264,,key,arrowleft,16.67621569,800,394.5,265,10,-1,25,15,25,35,TRUE
null,null,psychophysics,541,877884,0.0-3.0-1.264,,key,null,16.6675,800,394.5,,,,,,,,
872.2,arrowleft,psychophysics,542,878759,0.0-3.0-0.265,,key,arrowleft,16.66296078,800,394.5,266,10,1,20,35,25,35,FALSE
null,null,psychophysics,543,879761,0.0-3.0-1.265,,key,null,16.67191525,800,394.5,,,,,,,,
728.6,arrowright,psychophysics,544,880500,0.0-3.0-0.266,,key,arrowright,16.67236364,800,394.5,267,10,1,26,35,25,35,TRUE
null,null,psychophysics,545,881502,0.0-3.0-1.266,,key,null,16.66986441,800,394.5,,,,,,,,
1239.1,arrowleft,psychophysics,546,882743,0.0-3.0-0.267,,key,arrowleft,16.67139726,800,394.5,268,10,1,24,35,25,35,FALSE
null,null,psychophysics,547,883745,0.0-3.0-1.267,,key,null,16.67137288,800,394.5,,,,,,,,
1184.5,arrowright,psychophysics,548,884933,0.0-3.0-0.268,,key,arrowright,16.67185915,800,394.5,269,10,1,30,35,25,35,TRUE
null,null,psychophysics,549,885946,0.0-3.0-1.268,,key,null,16.67208475,800,394.5,,,,,,,,
907.7,arrowright,psychophysics,550,886857,0.0-3.0-0.269,,key,arrowright,16.67168519,800,394.5,270,10,1,30,15,25,35,TRUE
null,null,psychophysics,551,887863,0.0-3.0-1.269,,key,null,16.67132203,800,394.5,,,,,,,,
1023.4,arrowright,psychophysics,552,888906,0.0-3.0-0.270,,key,arrowright,16.67224194,800,394.5,271,10,1,23,15,25,35,TRUE
null,null,psychophysics,553,889909,0.0-3.0-1.270,,key,null,16.67208475,800,394.5,,,,,,,,
1797,arrowleft,psychophysics,554,891709,0.0-3.0-0.271,,key,arrowleft,16.67165421,800,394.5,272,10,-1,24,15,25,35,TRUE
null,null,psychophysics,555,892715,0.0-3.0-1.271,,key,null,16.66947458,800,394.5,,,,,,,,
1176.6,arrowleft,psychophysics,556,893895,0.0-3.0-0.272,,key,arrowleft,16.67111429,800,394.5,273,10,-1,24,15,25,35,TRUE
null,null,psychophysics,557,894899,0.0-3.0-1.272,,key,null,16.67147458,800,394.5,,,,,,,,
1672.3,arrowleft,psychophysics,558,896582,0.0-3.0-0.273,,key,arrowleft,16.67164,800,394.5,274,10,1,23,35,25,35,FALSE
null,null,psychophysics,559,897584,0.0-3.0-1.273,,key,null,16.6711,800,394.5,,,,,,,,
1191.4,arrowleft,psychophysics,560,898778,0.0-3.0-0.274,,key,arrowleft,16.67111429,800,394.5,275,10,-1,30,35,25,35,TRUE
null,null,psychophysics,561,899784,0.0-3.0-1.274,,key,null,16.67108475,800,394.5,,,,,,,,
1046.6,arrowleft,psychophysics,562,900834,0.0-3.0-0.275,,key,arrowleft,16.67224194,800,394.5,276,10,-1,30,15,25,35,TRUE
null,null,psychophysics,563,901851,0.0-3.0-1.275,,key,null,16.67143333,800,394.5,,,,,,,,
2302.6,arrowright,psychophysics,564,904164,0.0-3.0-0.276,,key,arrowright,16.6715942,800,394.5,277,10,-1,23,35,25,35,FALSE
null,null,psychophysics,565,905169,0.0-3.0-1.276,,key,null,16.67137288,800,394.5,,,,,,,,
1358.6,arrowleft,psychophysics,566,906531,0.0-3.0-0.277,,key,arrowleft,16.67145679,800,394.5,278,10,1,24,35,25,35,FALSE
null,null,psychophysics,567,907537,0.0-3.0-1.277,,key,null,16.67254237,800,394.5,,,,,,,,
1038.7,arrowright,psychophysics,568,908579,0.0-3.0-0.278,,key,arrowright,16.6716129,800,394.5,279,10,1,25,35,25,35,TRUE
null,null,psychophysics,569,909587,0.0-3.0-1.278,,key,null,16.67189831,800,394.5,,,,,,,,
897.8,arrowright,psychophysics,570,910496,0.0-3.0-0.279,,key,arrowright,16.673,800,394.5,280,11,1,26,15,25,35,TRUE
null,null,psychophysics,571,911504,0.0-3.0-1.279,,key,null,16.67113559,800,394.5,,,,,,,,
