"rt","response","trial_type","trial_index","time_elapsed","internal_node_id","stimulus","response_type","key_press","avg_frame_time","center_x","center_y","trial","block","test_pos","test_inner_radius","test_outer_radius","ref_inner_radius","ref_outer_radius","test_bigger"
"62143.30000001192","{""p_id"":""7578"",""age"":""19"",""handedness"":""right"",""sex"":""female"",""other_sex"":""""}","survey-html-form","0","62148","0.0-0.0","","","","","","","","","","","","","",""
"5944.5999999940395"," ","html-keyboard-response","1","68099","0.0-1.0","<p style=""color: white"">Welcome to the Size Judgment Experiment. <br>There will be 10 blocks in this experiment. <br>There will be 28 trials in each block. <br>You will be given a chance to take a break between blocks. <br>Press any key to start the experiment.</p>","","","","","","","","","","","","",""
"8758.40000000596"," ","psychophysics","2","76895","0.0-2.0","","key"," ","16.698552182163194","720","394.5","","","","","","","",""
"29991.90000000596","arrowleft","psychophysics","3","106894","0.0-3.0-0.0","","key","arrowleft","16.682283249860884","720","394.5","1","1","-1","27","35","25","35","true"
"null","null","psychophysics","4","107899","0.0-3.0-1.0","","key","null","16.665999999999904","720","394.5","","","","","","","",""
"2291.699999988079","arrowright","psychophysics","5","110212","0.0-3.0-0.1","","key","arrowright","16.668369565217397","720","394.5","2","1","-1","20","35","25","35","false"
"null","null","psychophysics","6","111214","0.0-3.0-1.1","","key","null","16.665999999999904","720","394.5","","","","","","","",""
"2267.800000011921","arrowright","psychophysics","7","113503","0.0-3.0-0.2","","key","arrowright","16.666000000000025","720","394.5","3","1","-1","24","35","25","35","false"
"null","null","psychophysics","8","114507","0.0-3.0-1.2","","key","null","16.666000000000107","720","394.5","","","","","","","",""
"3236.300000011921","arrowleft","psychophysics","9","117748","0.0-3.0-0.3","","key","arrowleft","16.666000000000004","720","394.5","4","1","1","24","35","25","35","false"
"null","null","psychophysics","10","118752","0.0-3.0-1.3","","key","null","16.67049152542387","720","394.5","","","","","","","",""
"9489.90000000596","arrowright","psychophysics","11","128251","0.0-3.0-0.4","","key","arrowright","16.665999999999997","720","394.5","5","1","1","27","15","25","35","true"
"null","null","psychophysics","12","129259","0.0-3.0-1.4","","key","null","16.67044999999998","720","394.5","","","","","","","",""
"2037.5","arrowleft","psychophysics","13","131300","0.0-3.0-0.5","","key","arrowleft","16.666000000000086","720","394.5","6","1","1","23","15","25","35","false"
"null","null","psychophysics","14","132304","0.0-3.0-1.5","","key","null","16.665999999999904","720","394.5","","","","","","","",""
"3134","arrowright","psychophysics","15","135445","0.0-3.0-0.6","","key","arrowright","16.66600000000007","720","394.5","7","1","1","24","35","25","35","true"
"null","null","psychophysics","16","136452","0.0-3.0-1.6","","key","null","16.665999999999904","720","394.5","","","","","","","",""
"810.0999999940395","arrowright","psychophysics","17","137270","0.0-3.0-0.7","","key","arrowright","16.665999999999816","720","394.5","8","1","-1","25","15","25","35","false"
"null","null","psychophysics","18","138273","0.0-3.0-1.7","","key","null","16.6660000000004","720","394.5","","","","","","","",""
"2759.7999999821186","arrowleft","psychophysics","19","141038","0.0-3.0-0.8","","key","arrowleft","16.667199999999934","720","394.5","9","1","-1","30","35","25","35","true"
"null","null","psychophysics","20","142047","0.0-3.0-1.8","","key","null","16.665999999999904","720","394.5","","","","","","","",""
"4796.299999982119","arrowleft","psychophysics","21","146848","0.0-3.0-0.9","","key","arrowleft","16.7242727272727","720","394.5","10","1","-1","26","15","25","35","true"
"null","null","psychophysics","22","147852","0.0-3.0-1.9","","key","null","16.665999999999904","720","394.5","","","","","","","",""
"2468.300000011921","arrowleft","psychophysics","23","150329","0.0-3.0-0.10","","key","arrowleft","16.668243243243204","720","394.5","11","1","-1","30","35","25","35","true"
"null","null","psychophysics","24","151333","0.0-3.0-1.10","","key","null","16.6660000000004","720","394.5","","","","","","","",""
"2357","arrowleft","psychophysics","25","153703","0.0-3.0-0.11","","key","arrowleft","16.665999999999915","720","394.5","12","1","-1","30","15","25","35","true"
"null","null","psychophysics","26","154708","0.0-3.0-1.11","","key","null","16.665999999999865","720","394.5","","","","","","","",""
"7983.199999988079","arrowright","psychophysics","27","162696","0.0-3.0-0.12","","key","arrowright","16.666558577405837","720","394.5","13","1","-1","20","35","25","35","false"
"null","null","psychophysics","28","163702","0.0-3.0-1.12","","key","null","16.665999999999904","720","394.5","","","","","","","",""
"941.7000000178814","arrowright","psychophysics","29","164665","0.0-3.0-0.13","","key","arrowright","16.665999999999993","720","394.5","14","1","1","27","35","25","35","true"
"null","null","psychophysics","30","165669","0.0-3.0-1.13","","key","null","16.6660000000004","720","394.5","","","","","","","",""
"2617.800000011921","arrowleft","psychophysics","31","168294","0.0-3.0-0.14","","key","arrowleft","16.665999999999848","720","394.5","15","1","-1","27","15","25","35","true"
"null","null","psychophysics","32","169300","0.0-3.0-1.14","","key","null","16.67050847457623","720","394.5","","","","","","","",""
"7473.600000023842","arrowleft","psychophysics","33","176782","0.0-3.0-0.15","","key","arrowleft","16.665999999999972","720","394.5","16","1","1","24","15","25","35","false"
"null","null","psychophysics","34","177786","0.0-3.0-1.15","","key","null","16.665999999999904","720","394.5","","","","","","","",""
"1402.5","arrowright","psychophysics","35","179195","0.0-3.0-0.16","","key","arrowright","16.669142857142667","720","394.5","17","1","1","25","15","25","35","true"
"null","null","psychophysics","36","180197","0.0-3.0-1.16","","key","null","16.665999999999904","720","394.5","","","","","","","",""
"3676.7999999821186","arrowright","psychophysics","37","183879","0.0-3.0-0.17","","key","arrowright","16.666000000000086","720","394.5","18","1","-1","23","15","25","35","false"
"null","null","psychophysics","38","184885","0.0-3.0-1.17","","key","null","16.665999999999904","720","394.5","","","","","","","",""
"1335.5999999940395","arrowleft","psychophysics","39","186228","0.0-3.0-0.18","","key","arrowleft","16.665999999999986","720","394.5","19","1","1","23","15","25","35","false"
"null","null","psychophysics","40","187230","0.0-3.0-1.18","","key","null","16.665999999999904","720","394.5","","","","","","","",""
"1445.800000011921","arrowleft","psychophysics","41","188680","0.0-3.0-0.19","","key","arrowleft","16.66832558139529","720","394.5","20","1","1","23","15","25","35","false"
"null","null","psychophysics","42","189681","0.0-3.0-1.19","","key","null","16.665999999999904","720","394.5","","","","","","","",""
"1120.0999999940395","arrowright","psychophysics","43","190844","0.0-3.0-0.20","","key","arrowright","16.911088235294088","720","394.5","21","1","1","26","35","25","35","true"
"null","null","psychophysics","44","191845","0.0-3.0-1.20","","key","null","16.665999999999904","720","394.5","","","","","","","",""
"860.8000000119209","arrowright","psychophysics","45","192709","0.0-3.0-0.21","","key","arrowright","16.665999999999723","720","394.5","22","1","-1","24","15","25","35","false"
"null","null","psychophysics","46","193712","0.0-3.0-1.21","","key","null","16.665999999999904","720","394.5","","","","","","","",""
"4794.899999976158","arrowleft","psychophysics","47","198512","0.0-3.0-0.22","","key","arrowleft","16.666000000000075","720","394.5","23","1","-1","25","35","25","35","true"
"null","null","psychophysics","48","199518","0.0-3.0-1.22","","key","null","16.67052542372859","720","394.5","","","","","","","",""
"738.8000000119209","arrowleft","psychophysics","49","200266","0.0-3.0-0.23","","key","arrowleft","16.666000000000086","720","394.5","24","1","-1","25","15","25","35","true"
"null","null","psychophysics","50","201268","0.0-3.0-1.23","","key","null","16.665999999999904","720","394.5","","","","","","","",""
"2104.5999999940395","arrowleft","psychophysics","51","203381","0.0-3.0-0.24","","key","arrowleft","16.66599999999998","720","394.5","25","1","1","24","35","25","35","false"
"null","null","psychophysics","52","204385","0.0-3.0-1.24","","key","null","16.665999999999904","720","394.5","","","","","","","",""
"670.0999999940395","arrowright","psychophysics","53","205066","0.0-3.0-0.25","","key","arrowright","16.66599999999962","720","394.5","26","1","1","30","35","25","35","true"
"null","null","psychophysics","54","206069","0.0-3.0-1.25","","key","null","16.665999999999904","720","394.5","","","","","","","",""
"654.1999999880791","arrowright","psychophysics","55","206731","0.0-3.0-0.26","","key","arrowright","16.665999999999677","720","394.5","27","1","1","27","35","25","35","true"
"null","null","psychophysics","56","207735","0.0-3.0-1.26","","key","null","16.6660000000004","720","394.5","","","","","","","",""
"1860","arrowright","psychophysics","57","209615","0.0-3.0-0.27","","key","arrowright","16.668991071428536","720","394.5","28","2","-1","26","15","25","35","false"
"null","null","psychophysics","58","210618","0.0-3.0-1.27","","key","null","16.665999999999904","720","394.5","","","","","","","",""
"410588.90000000596"," ","html-keyboard-response","59","621220","0.0-3.0-2.27-0.27","<div style=""color: white; text-align: center; vertical-align: top; display: inline-block; width: 800px; margin: auto""><p>You have completed 10% of the trials. You are on block 2 of 10. <br>Good job! Take a break if you need to.</p><p>Press any key to continue the experiment.</p></div>","","","","","","","","","","","","",""
"3514.699999988079","arrowright","psychophysics","60","625756","0.0-3.0-0.28","","key","arrowright","16.633141509434076","720","394.5","29","2","-1","23","35","25","35","false"
"null","null","psychophysics","61","626765","0.0-3.0-1.28","","key","null","16.665999999999904","720","394.5","","","","","","","",""
"1977.699999988079","arrowleft","psychophysics","62","628751","0.0-3.0-0.29","","key","arrowleft","16.66599999999964","720","394.5","30","2","1","24","15","25","35","false"
"null","null","psychophysics","63","629753","0.0-3.0-1.29","","key","null","16.665999999999904","720","394.5","","","","","","","",""
"633.0999999940395","arrowright","psychophysics","64","630391","0.0-3.0-0.30","","key","arrowright","16.665999999999798","720","394.5","31","2","1","30","15","25","35","true"
"null","null","psychophysics","65","631394","0.0-3.0-1.30","","key","null","16.665999999999904","720","394.5","","","","","","","",""
"859.8000000119209","arrowright","psychophysics","66","632258","0.0-3.0-0.31","","key","arrowright","16.66600000000029","720","394.5","32","2","-1","20","35","25","35","false"
"null","null","psychophysics","67","633264","0.0-3.0-1.31","","key","null","16.67045762711915","720","394.5","","","","","","","",""
"650.2000000178814","arrowright","psychophysics","68","633923","0.0-3.0-0.32","","key","arrowright","16.66600000000117","720","394.5","33","2","-1","20","35","25","35","false"
"null","null","psychophysics","69","634926","0.0-3.0-1.32","","key","null","16.665999999999904","720","394.5","","","","","","","",""
"984","arrowleft","psychophysics","70","635914","0.0-3.0-0.33","","key","arrowleft","16.66599999999844","720","394.5","34","2","-1","25","35","25","35","true"
"null","null","psychophysics","71","636917","0.0-3.0-1.33","","key","null","16.66599999999938","720","394.5","","","","","","","",""
"1166.800000011921","arrowleft","psychophysics","72","638100","0.0-3.0-0.34","","key","arrowleft","16.665999999999933","720","394.5","35","2","-1","27","35","25","35","true"
"null","null","psychophysics","73","639108","0.0-3.0-1.34","","key","null","16.665999999999904","720","394.5","","","","","","","",""
"5565.300000011921","arrowright","psychophysics","74","644677","0.0-3.0-0.35","","key","arrowright","16.666753012048087","720","394.5","36","2","1","27","35","25","35","true"
"null","null","psychophysics","75","645681","0.0-3.0-1.35","","key","null","17.54315789473823","720","394.5","","","","","","","",""
"1718.199999988079","arrowright","psychophysics","76","647407","0.0-3.0-0.36","","key","arrowright","16.665999999999983","720","394.5","37","2","-1","23","35","25","35","false"
"null","null","psychophysics","77","648410","0.0-3.0-1.36","","key","null","16.665999999999904","720","394.5","","","","","","","",""
"906.8000000119209","arrowleft","psychophysics","78","649322","0.0-3.0-0.37","","key","arrowleft","16.665999999998515","720","394.5","38","2","1","20","35","25","35","false"
"null","null","psychophysics","79","650324","0.0-3.0-1.37","","key","null","16.665999999999904","720","394.5","","","","","","","",""
"1625.5999999940395","arrowleft","psychophysics","80","651962","0.0-3.0-0.38","","key","arrowleft","16.66599999999954","720","394.5","39","2","-1","25","15","25","35","true"
"null","null","psychophysics","81","652964","0.0-3.0-1.38","","key","null","16.66969491525403","720","394.5","","","","","","","",""
"4400.4000000059605","arrowleft","psychophysics","82","657374","0.0-3.0-0.39","","key","arrowleft","16.666000000000086","720","394.5","40","2","-1","25","35","25","35","true"
"null","null","psychophysics","83","658381","0.0-3.0-1.39","","key","null","16.665999999999904","720","394.5","","","","","","","",""
"1402","arrowleft","psychophysics","84","659792","0.0-3.0-0.40","","key","arrowleft","16.66600000000021","720","394.5","41","2","-1","26","35","25","35","true"
"null","null","psychophysics","85","660797","0.0-3.0-1.40","","key","null","16.665999999999904","720","394.5","","","","","","","",""
"843.7000000178814","arrowright","psychophysics","86","661664","0.0-3.0-0.41","","key","arrowright","16.66600000000029","720","394.5","42","2","1","27","35","25","35","true"
"null","null","psychophysics","87","662666","0.0-3.0-1.41","","key","null","16.671593220338178","720","394.5","","","","","","","",""
"805.4000000059605","arrowright","psychophysics","88","663479","0.0-3.0-0.42","","key","arrowright","16.665999999999865","720","394.5","43","2","1","27","35","25","35","true"
"null","null","psychophysics","89","664489","0.0-3.0-1.42","","key","null","16.66599999999938","720","394.5","","","","","","","",""
"1098.0999999940395","arrowleft","psychophysics","90","665592","0.0-3.0-0.43","","key","arrowleft","16.665999999998782","720","394.5","44","2","1","20","15","25","35","false"
"null","null","psychophysics","91","666594","0.0-3.0-1.43","","key","null","16.665999999999904","720","394.5","","","","","","","",""
"2355.199999988079","arrowright","psychophysics","92","668958","0.0-3.0-0.44","","key","arrowright","16.665999999999933","720","394.5","45","2","-1","23","35","25","35","false"
"null","null","psychophysics","93","669966","0.0-3.0-1.44","","key","null","16.66600000000188","720","394.5","","","","","","","",""
"1317.0999999940395","arrowright","psychophysics","94","671291","0.0-3.0-0.45","","key","arrowright","16.66599999999928","720","394.5","46","2","1","23","15","25","35","true"
"null","null","psychophysics","95","672292","0.0-3.0-1.45","","key","null","16.665999999999904","720","394.5","","","","","","","",""
"1229.199999988079","arrowright","psychophysics","96","673525","0.0-3.0-0.46","","key","arrowright","16.669643835615915","720","394.5","47","2","-1","24","35","25","35","false"
"null","null","psychophysics","97","674527","0.0-3.0-1.46","","key","null","16.66600000000188","720","394.5","","","","","","","",""
"889.5999999940395","arrowright","psychophysics","98","675441","0.0-3.0-0.47","","key","arrowright","16.665999999998515","720","394.5","48","2","-1","20","35","25","35","false"
"null","null","psychophysics","99","676444","0.0-3.0-1.47","","key","null","16.665999999999904","720","394.5","","","","","","","",""
"774.5999999940395","arrowright","psychophysics","100","677224","0.0-3.0-0.48","","key","arrowright","16.666000000001237","720","394.5","49","2","1","26","15","25","35","true"
"null","null","psychophysics","101","678226","0.0-3.0-1.48","","key","null","16.665999999999904","720","394.5","","","","","","","",""
"1061.199999988079","arrowleft","psychophysics","102","679291","0.0-3.0-0.49","","key","arrowleft","16.665999999999748","720","394.5","50","2","1","20","35","25","35","false"
"null","null","psychophysics","103","680295","0.0-3.0-1.49","","key","null","16.665999999999904","720","394.5","","","","","","","",""
"612.5999999940395","arrowright","psychophysics","104","680921","0.0-3.0-0.50","","key","arrowright","16.665999999999798","720","394.5","51","2","1","25","35","25","35","true"
"null","null","psychophysics","105","681923","0.0-3.0-1.50","","key","null","16.665999999999904","720","394.5","","","","","","","",""
"743.1000000238419","arrowleft","psychophysics","106","682671","0.0-3.0-0.51","","key","arrowleft","16.67038636363577","720","394.5","52","2","-1","27","15","25","35","true"
"null","null","psychophysics","107","683675","0.0-3.0-1.51","","key","null","16.665999999999904","720","394.5","","","","","","","",""
"1173.5999999940395","arrowright","psychophysics","108","684858","0.0-3.0-0.52","","key","arrowright","16.665999999999933","720","394.5","53","2","1","27","35","25","35","true"
"null","null","psychophysics","109","685860","0.0-3.0-1.52","","key","null","16.665999999999904","720","394.5","","","","","","","",""
"628","arrowleft","psychophysics","110","686507","0.0-3.0-0.53","","key","arrowleft","16.66599999999897","720","394.5","54","2","-1","30","15","25","35","true"
"null","null","psychophysics","111","687511","0.0-3.0-1.53","","key","null","16.665999999999904","720","394.5","","","","","","","",""
"781.2000000178814","arrowright","psychophysics","112","688297","0.0-3.0-0.54","","key","arrowright","16.665999999998704","720","394.5","55","2","-1","20","35","25","35","false"
"null","null","psychophysics","113","689299","0.0-3.0-1.54","","key","null","16.665999999999904","720","394.5","","","","","","","",""
"2456.7999999821186","arrowright","psychophysics","114","691774","0.0-3.0-0.55","","key","arrowright","16.665999999999798","720","394.5","56","3","1","24","15","25","35","true"
"null","null","psychophysics","115","692781","0.0-3.0-1.55","","key","null","16.67172881355904","720","394.5","","","","","","","",""
"501850.09999999404"," ","html-keyboard-response","116","1194626","0.0-3.0-2.55-0.55","<div style=""color: white; text-align: center; vertical-align: top; display: inline-block; width: 800px; margin: auto""><p>You have completed 20% of the trials. You are on block 3 of 10. <br>Good job! Take a break if you need to.</p><p>Press any key to continue the experiment.</p></div>","","","","","","","","","","","","",""
"846.5999999940395","arrowright","psychophysics","117","1196489","0.0-3.0-0.56","","key","arrowright","16.518480769228727","720","394.5","57","3","1","26","15","25","35","true"
"null","null","psychophysics","118","1197491","0.0-3.0-1.56","","key","null","16.665999999999904","720","394.5","","","","","","","",""
"801.6999999880791","arrowright","psychophysics","119","1198295","0.0-3.0-0.57","","key","arrowright","16.665999999998057","720","394.5","58","3","1","27","35","25","35","true"
"null","null","psychophysics","120","1199296","0.0-3.0-1.57","","key","null","16.665999999999904","720","394.5","","","","","","","",""
"1118.2999999821186","arrowleft","psychophysics","121","1200428","0.0-3.0-0.58","","key","arrowleft","16.66599999999961","720","394.5","59","3","-1","25","35","25","35","true"
"null","null","psychophysics","122","1201429","0.0-3.0-1.58","","key","null","16.665999999999904","720","394.5","","","","","","","",""
"837.3000000119209","arrowleft","psychophysics","123","1202279","0.0-3.0-0.59","","key","arrowleft","16.665999999996274","720","394.5","60","3","1","23","15","25","35","false"
"null","null","psychophysics","124","1203281","0.0-3.0-1.59","","key","null","16.66599999999938","720","394.5","","","","","","","",""
"630.1999999880791","arrowleft","psychophysics","125","1203913","0.0-3.0-0.60","","key","arrowleft","16.666000000000672","720","394.5","61","3","-1","25","35","25","35","true"
"null","null","psychophysics","126","1204915","0.0-3.0-1.60","","key","null","16.534033333331656","720","394.5","","","","","","","",""
"883.9000000059605","arrowright","psychophysics","127","1205804","0.0-3.0-0.61","","key","arrowright","16.665999999999677","720","394.5","62","3","1","26","35","25","35","true"
"null","null","psychophysics","128","1206807","0.0-3.0-1.61","","key","null","16.66599999999938","720","394.5","","","","","","","",""
"788.5","arrowright","psychophysics","129","1207607","0.0-3.0-0.62","","key","arrowright","16.665999999998057","720","394.5","63","3","-1","24","35","25","35","false"
"null","null","psychophysics","130","1208608","0.0-3.0-1.62","","key","null","16.665999999999904","720","394.5","","","","","","","",""
"684","arrowright","psychophysics","131","1209297","0.0-3.0-0.63","","key","arrowright","16.66599999999744","720","394.5","64","3","1","30","15","25","35","true"
"null","null","psychophysics","132","1210299","0.0-3.0-1.63","","key","null","16.665999999999904","720","394.5","","","","","","","",""
"647.4000000059605","arrowleft","psychophysics","133","1210950","0.0-3.0-0.64","","key","arrowleft","16.6660000000051","720","394.5","65","3","-1","23","15","25","35","true"
"null","null","psychophysics","134","1211953","0.0-3.0-1.64","","key","null","16.665999999999904","720","394.5","","","","","","","",""
"685.2000000178814","arrowleft","psychophysics","135","1212644","0.0-3.0-0.65","","key","arrowleft","16.66599999999673","720","394.5","66","3","1","24","35","25","35","false"
"null","null","psychophysics","136","1213649","0.0-3.0-1.65","","key","null","16.665999999999904","720","394.5","","","","","","","",""
"1478.4000000059605","arrowleft","psychophysics","137","1215131","0.0-3.0-0.66","","key","arrowleft","16.66862499999909","720","394.5","67","3","-1","25","15","25","35","true"
"null","null","psychophysics","138","1216133","0.0-3.0-1.66","","key","null","16.665999999999904","720","394.5","","","","","","","",""
"612.5999999940395","arrowright","psychophysics","139","1216748","0.0-3.0-0.67","","key","arrowright","16.666000000000672","720","394.5","68","3","-1","23","15","25","35","false"
"null","null","psychophysics","140","1217750","0.0-3.0-1.67","","key","null","16.665999999999904","720","394.5","","","","","","","",""
"1243.3999999761581","arrowright","psychophysics","141","1218997","0.0-3.0-0.68","","key","arrowright","16.665999999999798","720","394.5","69","3","-1","20","35","25","35","false"
"null","null","psychophysics","142","1220003","0.0-3.0-1.68","","key","null","16.665999999999904","720","394.5","","","","","","","",""
"579.5999999940395","arrowleft","psychophysics","143","1220585","0.0-3.0-0.69","","key","arrowleft","16.666000000002576","720","394.5","70","3","1","20","15","25","35","false"
"null","null","psychophysics","144","1221588","0.0-3.0-1.69","","key","null","16.665999999999904","720","394.5","","","","","","","",""
"658.0999999940395","arrowright","psychophysics","145","1222253","0.0-3.0-0.70","","key","arrowright","16.665999999998185","720","394.5","71","3","1","25","35","25","35","true"
"null","null","psychophysics","146","1223255","0.0-3.0-1.70","","key","null","16.665999999999904","720","394.5","","","","","","","",""
"1427.0999999940395","arrowright","psychophysics","147","1224703","0.0-3.0-0.71","","key","arrowright","16.666000000000825","720","394.5","72","3","1","25","35","25","35","true"
"null","null","psychophysics","148","1225708","0.0-3.0-1.71","","key","null","16.670983333334636","720","394.5","","","","","","","",""
"701.5999999940395","arrowright","psychophysics","149","1226414","0.0-3.0-0.72","","key","arrowright","16.66600000000241","720","394.5","73","3","-1","24","35","25","35","false"
"null","null","psychophysics","150","1227416","0.0-3.0-1.72","","key","null","16.665999999999904","720","394.5","","","","","","","",""
"1114.4000000059605","arrowleft","psychophysics","151","1228534","0.0-3.0-0.73","","key","arrowleft","16.666000000000086","720","394.5","74","3","-1","25","15","25","35","true"
"null","null","psychophysics","152","1229538","0.0-3.0-1.73","","key","null","16.665999999999904","720","394.5","","","","","","","",""
"1087","arrowleft","psychophysics","153","1230647","0.0-3.0-0.74","","key","arrowleft","16.666000000000086","720","394.5","75","3","-1","27","35","25","35","true"
"null","null","psychophysics","154","1231655","0.0-3.0-1.74","","key","null","16.665999999999904","720","394.5","","","","","","","",""
"1422.4000000059605","arrowleft","psychophysics","155","1233085","0.0-3.0-0.75","","key","arrowleft","16.665999999998466","720","394.5","76","3","1","24","15","25","35","false"
"null","null","psychophysics","156","1234088","0.0-3.0-1.75","","key","null","16.665999999999904","720","394.5","","","","","","","",""
"634.4000000059605","arrowright","psychophysics","157","1234731","0.0-3.0-0.76","","key","arrowright","16.6660000000051","720","394.5","77","3","1","27","15","25","35","true"
"null","null","psychophysics","158","1235732","0.0-3.0-1.76","","key","null","16.67050847457327","720","394.5","","","","","","","",""
"808.7000000178814","arrowright","psychophysics","159","1236545","0.0-3.0-0.77","","key","arrowright","16.66599999999744","720","394.5","78","3","-1","20","15","25","35","false"
"null","null","psychophysics","160","1237552","0.0-3.0-1.77","","key","null","16.665999999999904","720","394.5","","","","","","","",""
"644.9000000059605","arrowright","psychophysics","161","1238202","0.0-3.0-0.78","","key","arrowright","16.6660000000051","720","394.5","79","3","-1","23","35","25","35","false"
"null","null","psychophysics","162","1239207","0.0-3.0-1.78","","key","null","16.665999999999904","720","394.5","","","","","","","",""
"706.5999999940395","arrowleft","psychophysics","163","1239919","0.0-3.0-0.79","","key","arrowleft","16.66600000000241","720","394.5","80","3","1","23","35","25","35","false"
"null","null","psychophysics","164","1240921","0.0-3.0-1.79","","key","null","16.665999999999904","720","394.5","","","","","","","",""
"648.4000000059605","arrowleft","psychophysics","165","1241578","0.0-3.0-0.80","","key","arrowleft","16.665999999998185","720","394.5","81","3","1","20","15","25","35","false"
"null","null","psychophysics","166","1242580","0.0-3.0-1.80","","key","null","16.665999999999904","720","394.5","","","","","","","",""
"1075.300000011921","arrowright","psychophysics","167","1243661","0.0-3.0-0.81","","key","arrowright","16.930539682540775","720","394.5","82","3","-1","25","15","25","35","false"
"null","null","psychophysics","168","1244662","0.0-3.0-1.81","","key","null","16.95334482758611","720","394.5","","","","","","","",""
"1349.5","arrowright","psychophysics","169","1246014","0.0-3.0-0.82","","key","arrowright","16.66931250000198","720","394.5","83","3","1","30","35","25","35","true"
"null","null","psychophysics","170","1247016","0.0-3.0-1.82","","key","null","16.665999999999904","720","394.5","","","","","","","",""
"2667.699999988079","arrowright","psychophysics","171","1249687","0.0-3.0-0.83","","key","arrowright","16.66600000000055","720","394.5","84","4","1","27","15","25","35","true"
"null","null","psychophysics","172","1250697","0.0-3.0-1.83","","key","null","16.66599999999938","720","394.5","","","","","","","",""
"1520.5999999940395"," ","html-keyboard-response","173","1252219","0.0-3.0-2.83-0.83","<div style=""color: white; text-align: center; vertical-align: top; display: inline-block; width: 800px; margin: auto""><p>You have completed 30% of the trials. You are on block 4 of 10. <br>Good job! Take a break if you need to.</p><p>Press any key to continue the experiment.</p></div>","","","","","","","","","","","","",""
"951.1999999880791","arrowleft","psychophysics","174","1254186","0.0-3.0-0.84","","key","arrowleft","16.665999999996927","720","394.5","85","4","-1","26","35","25","35","true"
"null","null","psychophysics","175","1255189","0.0-3.0-1.84","","key","null","16.785593220336615","720","394.5","","","","","","","",""
"1045.5","arrowleft","psychophysics","176","1256239","0.0-3.0-0.85","","key","arrowleft","16.666000000002132","720","394.5","86","4","1","24","35","25","35","false"
"null","null","psychophysics","177","1257244","0.0-3.0-1.85","","key","null","16.665999999999904","720","394.5","","","","","","","",""
"720.0999999940395","arrowleft","psychophysics","178","1257971","0.0-3.0-0.86","","key","arrowleft","16.666000000000825","720","394.5","87","4","1","25","35","25","35","false"
"null","null","psychophysics","179","1258972","0.0-3.0-1.86","","key","null","16.665999999999904","720","394.5","","","","","","","",""
"642.3000000119209","arrowright","psychophysics","180","1259619","0.0-3.0-0.87","","key","arrowright","16.66599999999897","720","394.5","88","4","1","26","15","25","35","true"
"null","null","psychophysics","181","1260621","0.0-3.0-1.87","","key","null","16.66600000000385","720","394.5","","","","","","","",""
"659.6999999880791","arrowright","psychophysics","182","1261392","0.0-3.0-0.88","","key","arrowright","18.7492499999993","720","394.5","89","4","-1","20","35","25","35","false"
"null","null","psychophysics","183","1262395","0.0-3.0-1.88","","key","null","16.66599999999938","720","394.5","","","","","","","",""
"723.3000000119209","arrowright","psychophysics","184","1263131","0.0-3.0-0.89","","key","arrowright","16.666000000000825","720","394.5","90","4","1","27","35","25","35","true"
"null","null","psychophysics","185","1264133","0.0-3.0-1.89","","key","null","16.665999999999904","720","394.5","","","","","","","",""
"1076.5","arrowleft","psychophysics","186","1265214","0.0-3.0-0.90","","key","arrowleft","16.75928571428882","720","394.5","91","4","-1","24","15","25","35","true"
"null","null","psychophysics","187","1266216","0.0-3.0-1.90","","key","null","16.665999999999904","720","394.5","","","","","","","",""
"1374.2999999821186","arrowright","psychophysics","188","1267598","0.0-3.0-0.91","","key","arrowright","16.665999999999567","720","394.5","92","4","1","27","15","25","35","true"
"null","null","psychophysics","189","1268601","0.0-3.0-1.91","","key","null","16.66599999999938","720","394.5","","","","","","","",""
"1043.5","arrowright","psychophysics","190","1269659","0.0-3.0-0.92","","key","arrowright","16.666000000002132","720","394.5","93","4","-1","20","15","25","35","false"
"null","null","psychophysics","191","1270661","0.0-3.0-1.92","","key","null","16.665999999999904","720","394.5","","","","","","","",""
"1326","arrowleft","psychophysics","192","1271991","0.0-3.0-0.93","","key","arrowleft","16.666000000000754","720","394.5","94","4","-1","27","35","25","35","true"
"null","null","psychophysics","193","1272994","0.0-3.0-1.93","","key","null","16.665999999999904","720","394.5","","","","","","","",""
"1368.7000000178814","arrowright","psychophysics","194","1274367","0.0-3.0-0.94","","key","arrowright","16.665999999999954","720","394.5","95","4","1","26","15","25","35","true"
"null","null","psychophysics","195","1275369","0.0-3.0-1.94","","key","null","16.670433333333737","720","394.5","","","","","","","",""
"1093.199999988079","arrowright","psychophysics","196","1276481","0.0-3.0-0.95","","key","arrowright","16.666000000000572","720","394.5","96","4","-1","23","15","25","35","false"
"null","null","psychophysics","197","1277484","0.0-3.0-1.95","","key","null","16.665999999999904","720","394.5","","","","","","","",""
"951.0999999940395","arrowleft","psychophysics","198","1278443","0.0-3.0-0.96","","key","arrowleft","16.666000000001013","720","394.5","97","4","1","24","15","25","35","false"
"null","null","psychophysics","199","1279445","0.0-3.0-1.96","","key","null","16.665999999999904","720","394.5","","","","","","","",""
"1544.7000000178814","arrowright","psychophysics","200","1280992","0.0-3.0-0.97","","key","arrowright","16.665999999998704","720","394.5","98","4","1","25","15","25","35","true"
"null","null","psychophysics","201","1282001","0.0-3.0-1.97","","key","null","16.665999999999904","720","394.5","","","","","","","",""
"936.6999999880791","arrowleft","psychophysics","202","1282945","0.0-3.0-0.98","","key","arrowleft","16.666000000001596","720","394.5","99","4","-1","24","15","25","35","true"
"null","null","psychophysics","203","1283949","0.0-3.0-1.98","","key","null","16.665999999999904","720","394.5","","","","","","","",""
"767.5","arrowleft","psychophysics","204","1284724","0.0-3.0-0.99","","key","arrowleft","16.666000000003766","720","394.5","100","4","1","20","35","25","35","false"
"null","null","psychophysics","205","1285727","0.0-3.0-1.99","","key","null","16.670474576270525","720","394.5","","","","","","","",""
"974.5","arrowright","psychophysics","206","1286706","0.0-3.0-0.100","","key","arrowright","16.666000000000448","720","394.5","101","4","-1","20","15","25","35","false"
"null","null","psychophysics","207","1287709","0.0-3.0-1.100","","key","null","16.665999999999904","720","394.5","","","","","","","",""
"1653.1000000238419","arrowleft","psychophysics","208","1289376","0.0-3.0-0.101","","key","arrowleft","16.66600000000126","720","394.5","102","4","-1","30","35","25","35","true"
"null","null","psychophysics","209","1290378","0.0-3.0-1.101","","key","null","16.665999999999904","720","394.5","","","","","","","",""
"1559.2000000178814","arrowleft","psychophysics","210","1291942","0.0-3.0-0.102","","key","arrowleft","16.66600000000088","720","394.5","103","4","1","23","35","25","35","false"
"null","null","psychophysics","211","1292945","0.0-3.0-1.102","","key","null","16.665999999999904","720","394.5","","","","","","","",""
"1809.0999999940395","arrowright","psychophysics","212","1294759","0.0-3.0-0.103","","key","arrowright","16.666000000000672","720","394.5","104","4","-1","23","35","25","35","false"
"null","null","psychophysics","213","1295766","0.0-3.0-1.103","","key","null","16.957913793101586","720","394.5","","","","","","","",""
"1249","arrowright","psychophysics","214","1297022","0.0-3.0-0.104","","key","arrowright","16.66599999999938","720","394.5","105","4","1","30","35","25","35","true"
"null","null","psychophysics","215","1298026","0.0-3.0-1.104","","key","null","16.665999999999904","720","394.5","","","","","","","",""
"1112.5999999940395","arrowleft","psychophysics","216","1299147","0.0-3.0-0.105","","key","arrowleft","16.922400000000085","720","394.5","106","4","1","24","35","25","35","false"
"null","null","psychophysics","217","1300149","0.0-3.0-1.105","","key","null","16.665999999999904","720","394.5","","","","","","","",""
"718.6999999880791","arrowleft","psychophysics","218","1300876","0.0-3.0-0.106","","key","arrowleft","16.666000000000825","720","394.5","107","4","-1","24","15","25","35","true"
"null","null","psychophysics","219","1301884","0.0-3.0-1.106","","key","null","16.66599999999938","720","394.5","","","","","","","",""
"2334.2000000178814","arrowleft","psychophysics","220","1304224","0.0-3.0-0.107","","key","arrowleft","16.66600000000016","720","394.5","108","4","1","23","35","25","35","false"
"null","null","psychophysics","221","1305226","0.0-3.0-1.107","","key","null","16.95789655172748","720","394.5","","","","","","","",""
"1837.199999988079","arrowleft","psychophysics","222","1307068","0.0-3.0-0.108","","key","arrowleft","16.666000000000086","720","394.5","109","4","1","23","15","25","35","false"
"null","null","psychophysics","223","1308077","0.0-3.0-1.108","","key","null","16.665999999999904","720","394.5","","","","","","","",""
"641.5","arrowleft","psychophysics","224","1308723","0.0-3.0-0.109","","key","arrowleft","16.66599999999897","720","394.5","110","4","-1","27","15","25","35","true"
"null","null","psychophysics","225","1309726","0.0-3.0-1.109","","key","null","16.665999999999904","720","394.5","","","","","","","",""
"1071.0999999940395","arrowleft","psychophysics","226","1310801","0.0-3.0-0.110","","key","arrowleft","16.666000000002132","720","394.5","111","4","-1","30","35","25","35","true"
"null","null","psychophysics","227","1311803","0.0-3.0-1.110","","key","null","16.948474576270556","720","394.5","","","","","","","",""
"1584.5","arrowright","psychophysics","228","1313392","0.0-3.0-0.111","","key","arrowright","16.84520430107581","720","394.5","112","5","1","24","15","25","35","true"
"null","null","psychophysics","229","1314409","0.0-3.0-1.111","","key","null","16.66599999999938","720","394.5","","","","","","","",""
"1369.699999988079"," ","html-keyboard-response","230","1315781","0.0-3.0-2.111-0.111","<div style=""color: white; text-align: center; vertical-align: top; display: inline-block; width: 800px; margin: auto""><p>You have completed 40% of the trials. You are on block 5 of 10. <br>Good job! Take a break if you need to.</p><p>Press any key to continue the experiment.</p></div>","","","","","","","","","","","","",""
"1412.8999999761581","arrowleft","psychophysics","231","1318202","0.0-3.0-0.112","","key","arrowleft","16.669388235294644","720","394.5","113","5","-1","24","15","25","35","true"
"null","null","psychophysics","232","1319204","0.0-3.0-1.112","","key","null","16.665999999999904","720","394.5","","","","","","","",""
"1366.2000000178814","arrowright","psychophysics","233","1320592","0.0-3.0-0.113","","key","arrowright","16.665999999999567","720","394.5","114","5","-1","20","15","25","35","false"
"null","null","psychophysics","234","1321596","0.0-3.0-1.113","","key","null","16.665999999999904","720","394.5","","","","","","","",""
"2510.5999999940395","arrowright","psychophysics","235","1324113","0.0-3.0-0.114","","key","arrowright","16.66600000000093","720","394.5","115","5","1","27","15","25","35","true"
"null","null","psychophysics","236","1325116","0.0-3.0-1.114","","key","null","16.665999999999904","720","394.5","","","","","","","",""
"1066.7000000178814","arrowleft","psychophysics","237","1326199","0.0-3.0-0.115","","key","arrowleft","16.54395384615502","720","394.5","116","5","1","23","15","25","35","false"
"null","null","psychophysics","238","1327201","0.0-3.0-1.115","","key","null","16.665999999999904","720","394.5","","","","","","","",""
"1547.5","arrowright","psychophysics","239","1328757","0.0-3.0-0.116","","key","arrowright","16.666000000001237","720","394.5","117","5","-1","23","15","25","35","false"
"null","null","psychophysics","240","1329760","0.0-3.0-1.116","","key","null","16.66599999999938","720","394.5","","","","","","","",""
"1880.5999999940395","arrowleft","psychophysics","241","1331649","0.0-3.0-0.117","","key","arrowleft","16.665999999999517","720","394.5","118","5","-1","30","15","25","35","true"
"null","null","psychophysics","242","1332657","0.0-3.0-1.117","","key","null","16.665999999999904","720","394.5","","","","","","","",""
"3452.5999999940395","arrowleft","psychophysics","243","1336117","0.0-3.0-0.118","","key","arrowleft","16.6672946859898","720","394.5","119","5","1","26","15","25","35","false"
"null","null","psychophysics","244","1337121","0.0-3.0-1.118","","key","null","16.665999999999904","720","394.5","","","","","","","",""
"3423.0999999940395","arrowleft","psychophysics","245","1340551","0.0-3.0-0.119","","key","arrowleft","16.666000000000135","720","394.5","120","5","1","23","35","25","35","false"
"null","null","psychophysics","246","1341557","0.0-3.0-1.119","","key","null","16.665999999999904","720","394.5","","","","","","","",""
"1276.7000000178814","arrowleft","psychophysics","247","1342850","0.0-3.0-0.120","","key","arrowleft","16.665999999998572","720","394.5","121","5","1","20","35","25","35","false"
"null","null","psychophysics","248","1343853","0.0-3.0-1.120","","key","null","16.665999999999904","720","394.5","","","","","","","",""
"915.1999999880791","arrowleft","psychophysics","249","1344781","0.0-3.0-0.121","","key","arrowleft","16.66600000000283","720","394.5","122","5","-1","26","15","25","35","true"
"null","null","psychophysics","250","1345784","0.0-3.0-1.121","","key","null","16.665999999999904","720","394.5","","","","","","","",""
"1651","arrowleft","psychophysics","251","1347439","0.0-3.0-0.122","","key","arrowleft","16.668020408163418","720","394.5","123","5","1","20","15","25","35","false"
"null","null","psychophysics","252","1348451","0.0-3.0-1.122","","key","null","16.66599999999938","720","394.5","","","","","","","",""
"1678.3999999761581","arrowleft","psychophysics","253","1350133","0.0-3.0-0.123","","key","arrowleft","16.66600000000093","720","394.5","124","5","1","23","35","25","35","false"
"null","null","psychophysics","254","1351135","0.0-3.0-1.123","","key","null","16.665999999999904","720","394.5","","","","","","","",""
"4844.5","arrowright","psychophysics","255","1355984","0.0-3.0-0.124","","key","arrowright","16.666906896552295","720","394.5","125","5","-1","25","35","25","35","false"
"null","null","psychophysics","256","1356992","0.0-3.0-1.124","","key","null","16.665999999999904","720","394.5","","","","","","","",""
"1402.699999988079","arrowright","psychophysics","257","1358402","0.0-3.0-0.125","","key","arrowright","16.665999999998824","720","394.5","126","5","1","30","35","25","35","true"
"null","null","psychophysics","258","1359406","0.0-3.0-1.125","","key","null","16.66600000000385","720","394.5","","","","","","","",""
"1186.9000000059605","arrowright","psychophysics","259","1360600","0.0-3.0-0.126","","key","arrowright","16.665999999997847","720","394.5","127","5","1","30","35","25","35","true"
"null","null","psychophysics","260","1361602","0.0-3.0-1.126","","key","null","16.665999999999904","720","394.5","","","","","","","",""
"1494.8999999761581","arrowright","psychophysics","261","1363100","0.0-3.0-0.127","","key","arrowright","16.665999999999727","720","394.5","128","5","1","26","35","25","35","true"
"null","null","psychophysics","262","1364107","0.0-3.0-1.127","","key","null","16.665999999999904","720","394.5","","","","","","","",""
"1785.5999999940395","arrowright","psychophysics","263","1365900","0.0-3.0-0.128","","key","arrowright","16.823226415095323","720","394.5","129","5","1","26","35","25","35","true"
"null","null","psychophysics","264","1366902","0.0-3.0-1.128","","key","null","16.67171186440372","720","394.5","","","","","","","",""
"1233.5999999940395","arrowright","psychophysics","265","1368150","0.0-3.0-0.129","","key","arrowright","16.665999999999798","720","394.5","130","5","-1","20","15","25","35","false"
"null","null","psychophysics","266","1369154","0.0-3.0-1.129","","key","null","16.665999999999904","720","394.5","","","","","","","",""
"1710.5999999940395","arrowright","psychophysics","267","1370890","0.0-3.0-0.130","","key","arrowright","16.665999999999983","720","394.5","131","5","1","30","15","25","35","true"
"null","null","psychophysics","268","1371891","0.0-3.0-1.130","","key","null","16.66599999999938","720","394.5","","","","","","","",""
"929.1999999880791","arrowleft","psychophysics","269","1372826","0.0-3.0-0.131","","key","arrowleft","16.666000000002203","720","394.5","132","5","-1","27","15","25","35","true"
"null","null","psychophysics","270","1373828","0.0-3.0-1.131","","key","null","16.665999999999904","720","394.5","","","","","","","",""
"1200.4000000059605","arrowleft","psychophysics","271","1375038","0.0-3.0-0.132","","key","arrowleft","16.666000000001127","720","394.5","133","5","-1","26","35","25","35","true"
"null","null","psychophysics","272","1376042","0.0-3.0-1.132","","key","null","16.669898305084335","720","394.5","","","","","","","",""
"714.9000000059605","arrowright","psychophysics","273","1376781","0.0-3.0-0.133","","key","arrowright","16.666000000000086","720","394.5","134","5","-1","24","35","25","35","false"
"null","null","psychophysics","274","1377789","0.0-3.0-1.133","","key","null","16.666000000000448","720","394.5","","","","","","","",""
"662","arrowleft","psychophysics","275","1378453","0.0-3.0-0.134","","key","arrowleft","17.566864864869245","720","394.5","135","5","-1","27","35","25","35","true"
"null","null","psychophysics","276","1379457","0.0-3.0-1.134","","key","null","16.665999999999904","720","394.5","","","","","","","",""
"3452.300000011921","arrowright","psychophysics","277","1382916","0.0-3.0-0.135","","key","arrowright","16.66599999999983","720","394.5","136","5","1","23","15","25","35","true"
"null","null","psychophysics","278","1383925","0.0-3.0-1.135","","key","null","16.665999999999904","720","394.5","","","","","","","",""
"1014.6999999880791","arrowleft","psychophysics","279","1384947","0.0-3.0-0.136","","key","arrowleft","16.66599999999887","720","394.5","137","5","1","23","35","25","35","false"
"null","null","psychophysics","280","1385951","0.0-3.0-1.136","","key","null","16.665999999999904","720","394.5","","","","","","","",""
"4194.199999988079","arrowright","psychophysics","281","1390150","0.0-3.0-0.137","","key","arrowright","16.667191235060095","720","394.5","138","5","1","27","35","25","35","true"
"null","null","psychophysics","282","1391158","0.0-3.0-1.137","","key","null","16.66599999999938","720","394.5","","","","","","","",""
"4467.300000011921","arrowright","psychophysics","283","1395631","0.0-3.0-0.138","","key","arrowright","16.6660000000006","720","394.5","139","5","1","25","15","25","35","true"
"null","null","psychophysics","284","1396633","0.0-3.0-1.138","","key","null","16.6702372881355","720","394.5","","","","","","","",""
"1223.0999999940395","arrowleft","psychophysics","285","1397881","0.0-3.0-0.139","","key","arrowleft","16.665999999999798","720","394.5","140","6","1","25","15","25","35","false"
"null","null","psychophysics","286","1398882","0.0-3.0-1.139","","key","null","16.665999999999904","720","394.5","","","","","","","",""
"27207.40000000596"," ","html-keyboard-response","287","1426092","0.0-3.0-2.139-0.139","<div style=""color: white; text-align: center; vertical-align: top; display: inline-block; width: 800px; margin: auto""><p>You have completed 50% of the trials. You are on block 6 of 10. <br>Good job! Take a break if you need to.</p><p>Press any key to continue the experiment.</p></div>","","","","","","","","","","","","",""
"1428.5","arrowright","psychophysics","288","1428533","0.0-3.0-0.140","","key","arrowright","16.702244186048333","720","394.5","141","6","1","30","15","25","35","true"
"null","null","psychophysics","289","1429535","0.0-3.0-1.140","","key","null","16.665999999999904","720","394.5","","","","","","","",""
"611.7000000178814","arrowleft","psychophysics","290","1430151","0.0-3.0-0.141","","key","arrowleft","16.666000000000672","720","394.5","142","6","-1","23","15","25","35","true"
"null","null","psychophysics","291","1431153","0.0-3.0-1.141","","key","null","16.665999999999904","720","394.5","","","","","","","",""
"599.9000000059605","arrowright","psychophysics","292","1431758","0.0-3.0-0.142","","key","arrowright","16.666000000001596","720","394.5","143","6","1","26","15","25","35","true"
"null","null","psychophysics","293","1432767","0.0-3.0-1.142","","key","null","16.66599999999938","720","394.5","","","","","","","",""
"2849.300000011921","arrowright","psychophysics","294","1435621","0.0-3.0-0.143","","key","arrowright","16.665999999999837","720","394.5","144","6","-1","20","15","25","35","false"
"null","null","psychophysics","295","1436625","0.0-3.0-1.143","","key","null","16.672677966099137","720","394.5","","","","","","","",""
"1686.800000011921","arrowleft","psychophysics","296","1438319","0.0-3.0-0.144","","key","arrowleft","16.666000000000608","720","394.5","145","6","-1","23","15","25","35","true"
"null","null","psychophysics","297","1439327","0.0-3.0-1.144","","key","null","16.66599999999938","720","394.5","","","","","","","",""
"3301.7999999821186","arrowright","psychophysics","298","1442634","0.0-3.0-0.145","","key","arrowright","16.666000000000246","720","394.5","146","6","-1","24","35","25","35","false"
"null","null","psychophysics","299","1443637","0.0-3.0-1.145","","key","null","16.665999999999904","720","394.5","","","","","","","",""
"6992.299999982119","arrowright","psychophysics","300","1450633","0.0-3.0-0.146","","key","arrowright","16.66656085918824","720","394.5","147","6","-1","23","15","25","35","false"
"null","null","psychophysics","301","1451642","0.0-3.0-1.146","","key","null","16.665999999999904","720","394.5","","","","","","","",""
"922.5","arrowright","psychophysics","302","1452581","0.0-3.0-0.147","","key","arrowright","16.666000000001596","720","394.5","148","6","-1","20","35","25","35","false"
"null","null","psychophysics","303","1453584","0.0-3.0-1.147","","key","null","16.665999999999904","720","394.5","","","","","","","",""
"3420.800000011921","arrowright","psychophysics","304","1457010","0.0-3.0-0.148","","key","arrowright","16.667455882353334","720","394.5","149","6","-1","25","35","25","35","false"
"null","null","psychophysics","305","1458019","0.0-3.0-1.148","","key","null","16.66599999999938","720","394.5","","","","","","","",""
"2563.699999988079","arrowleft","psychophysics","306","1460587","0.0-3.0-0.149","","key","arrowleft","16.66600000000029","720","394.5","150","6","-1","25","35","25","35","true"
"null","null","psychophysics","307","1461591","0.0-3.0-1.149","","key","null","16.665999999999904","720","394.5","","","","","","","",""
"1686.7999999821186","arrowleft","psychophysics","308","1463286","0.0-3.0-0.150","","key","arrowleft","16.665999999998302","720","394.5","151","6","-1","26","35","25","35","true"
"null","null","psychophysics","309","1464294","0.0-3.0-1.150","","key","null","16.666000000003258","720","394.5","","","","","","","",""
"2476.300000011921","arrowleft","psychophysics","310","1466775","0.0-3.0-0.151","","key","arrowleft","16.66779591836713","720","394.5","152","6","1","24","35","25","35","false"
"null","null","psychophysics","311","1467778","0.0-3.0-1.151","","key","null","16.66599999999938","720","394.5","","","","","","","",""
"3407.300000011921","arrowright","psychophysics","312","1471190","0.0-3.0-0.152","","key","arrowright","16.666000000000448","720","394.5","153","6","1","24","35","25","35","true"
"null","null","psychophysics","313","1472202","0.0-3.0-1.152","","key","null","16.66599999999938","720","394.5","","","","","","","",""
"1991.800000011921","arrowright","psychophysics","314","1474201","0.0-3.0-0.153","","key","arrowright","16.66599999999964","720","394.5","154","6","-1","25","35","25","35","false"
"null","null","psychophysics","315","1475204","0.0-3.0-1.153","","key","null","16.665999999999904","720","394.5","","","","","","","",""
"921.6000000238419","arrowleft","psychophysics","316","1476130","0.0-3.0-0.154","","key","arrowleft","16.665999999997968","720","394.5","155","6","1","20","15","25","35","false"
"null","null","psychophysics","317","1477132","0.0-3.0-1.154","","key","null","16.669288135595398","720","394.5","","","","","","","",""
"1882.0999999940395","arrowright","psychophysics","318","1479038","0.0-3.0-0.155","","key","arrowright","16.66599999999924","720","394.5","156","6","1","27","35","25","35","true"
"null","null","psychophysics","319","1480041","0.0-3.0-1.155","","key","null","16.66600000000385","720","394.5","","","","","","","",""
"1872.7000000178814","arrowright","psychophysics","320","1481921","0.0-3.0-0.156","","key","arrowright","16.665999999999517","720","394.5","157","6","1","24","15","25","35","true"
"null","null","psychophysics","321","1482924","0.0-3.0-1.156","","key","null","16.665999999999904","720","394.5","","","","","","","",""
"842.2000000178814","arrowright","psychophysics","322","1483774","0.0-3.0-0.157","","key","arrowright","16.66600000000093","720","394.5","158","6","1","26","15","25","35","true"
"null","null","psychophysics","323","1484787","0.0-3.0-1.157","","key","null","17.24068965517177","720","394.5","","","","","","","",""
"2368.199999988079","arrowright","psychophysics","324","1487157","0.0-3.0-0.158","","key","arrowright","16.66839716312185","720","394.5","159","6","1","25","15","25","35","true"
"null","null","psychophysics","325","1488160","0.0-3.0-1.158","","key","null","16.66599999999938","720","394.5","","","","","","","",""
"1725.199999988079","arrowleft","psychophysics","326","1489892","0.0-3.0-0.159","","key","arrowleft","16.66600000000029","720","394.5","160","6","-1","26","35","25","35","true"
"null","null","psychophysics","327","1490901","0.0-3.0-1.159","","key","null","16.66599999999938","720","394.5","","","","","","","",""
"1879.5","arrowright","psychophysics","328","1492785","0.0-3.0-0.160","","key","arrowright","16.666000000001596","720","394.5","161","6","1","27","15","25","35","true"
"null","null","psychophysics","329","1493789","0.0-3.0-1.160","","key","null","16.665999999999904","720","394.5","","","","","","","",""
"1441.0999999940395","arrowleft","psychophysics","330","1495239","0.0-3.0-0.161","","key","arrowleft","16.666000000000825","720","394.5","162","6","-1","27","35","25","35","true"
"null","null","psychophysics","331","1496241","0.0-3.0-1.161","","key","null","16.665999999999904","720","394.5","","","","","","","",""
"1029.2999999821186","arrowleft","psychophysics","332","1497294","0.0-3.0-0.162","","key","arrowleft","16.670269841269132","720","394.5","163","6","-1","26","35","25","35","true"
"null","null","psychophysics","333","1498297","0.0-3.0-1.162","","key","null","16.665999999999904","720","394.5","","","","","","","",""
"1076.5","arrowright","psychophysics","334","1499385","0.0-3.0-0.163","","key","arrowright","16.666000000001077","720","394.5","164","6","1","26","35","25","35","true"
"null","null","psychophysics","335","1500389","0.0-3.0-1.163","","key","null","16.665999999999904","720","394.5","","","","","","","",""
"1786.5","arrowright","psychophysics","336","1502184","0.0-3.0-0.164","","key","arrowright","16.666000000000974","720","394.5","165","6","1","30","35","25","35","true"
"null","null","psychophysics","337","1503194","0.0-3.0-1.164","","key","null","16.66599999999938","720","394.5","","","","","","","",""
"833.6999999880791","arrowleft","psychophysics","338","1504034","0.0-3.0-0.165","","key","arrowleft","16.666000000001596","720","394.5","166","6","-1","30","35","25","35","true"
"null","null","psychophysics","339","1505035","0.0-3.0-1.165","","key","null","16.665999999999904","720","394.5","","","","","","","",""
"1141","arrowleft","psychophysics","340","1506184","0.0-3.0-0.166","","key","arrowleft","16.666000000003084","720","394.5","167","6","1","26","15","25","35","false"
"null","null","psychophysics","341","1507186","0.0-3.0-1.166","","key","null","16.66964406779399","720","394.5","","","","","","","",""
"3943.5","arrowleft","psychophysics","342","1511134","0.0-3.0-0.167","","key","arrowleft","16.665999999999904","720","394.5","168","7","1","25","35","25","35","false"
"null","null","psychophysics","343","1512144","0.0-3.0-1.167","","key","null","16.66599999999938","720","394.5","","","","","","","",""
"1084.7999999821186"," ","html-keyboard-response","344","1513234","0.0-3.0-2.167-0.167","<div style=""color: white; text-align: center; vertical-align: top; display: inline-block; width: 800px; margin: auto""><p>You have completed 60% of the trials. You are on block 7 of 10. <br>Good job! Take a break if you need to.</p><p>Press any key to continue the experiment.</p></div>","","","","","","","","","","","","",""
"4757.9000000059605","arrowleft","psychophysics","345","1519001","0.0-3.0-0.168","","key","arrowleft","16.667104895104544","720","394.5","169","7","-1","24","35","25","35","true"
"null","null","psychophysics","346","1520009","0.0-3.0-1.168","","key","null","16.665999999999904","720","394.5","","","","","","","",""
"827.9000000059605","arrowright","psychophysics","347","1520857","0.0-3.0-0.169","","key","arrowright","16.665999999996274","720","394.5","170","7","1","30","35","25","35","true"
"null","null","psychophysics","348","1521860","0.0-3.0-1.169","","key","null","16.66599999999938","720","394.5","","","","","","","",""
"784.2000000178814","arrowright","psychophysics","349","1522653","0.0-3.0-0.170","","key","arrowright","16.665999999998704","720","394.5","171","7","-1","23","35","25","35","false"
"null","null","psychophysics","350","1523657","0.0-3.0-1.170","","key","null","16.665999999999904","720","394.5","","","","","","","",""
"641","arrowleft","psychophysics","351","1524317","0.0-3.0-0.171","","key","arrowleft","16.666000000004153","720","394.5","172","7","-1","27","15","25","35","true"
"null","null","psychophysics","352","1525319","0.0-3.0-1.171","","key","null","16.665999999999904","720","394.5","","","","","","","",""
"1057","arrowleft","psychophysics","353","1526400","0.0-3.0-0.172","","key","arrowleft","16.666000000001077","720","394.5","173","7","1","25","15","25","35","false"
"null","null","psychophysics","354","1527402","0.0-3.0-1.172","","key","null","16.66928813559145","720","394.5","","","","","","","",""
"801","arrowleft","psychophysics","355","1528207","0.0-3.0-0.173","","key","arrowleft","16.666000000003013","720","394.5","174","7","-1","27","15","25","35","true"
"null","null","psychophysics","356","1529210","0.0-3.0-1.173","","key","null","16.66599999999938","720","394.5","","","","","","","",""
"732.7999999821186","arrowleft","psychophysics","357","1529952","0.0-3.0-0.174","","key","arrowleft","16.666000000000825","720","394.5","175","7","1","25","35","25","35","false"
"null","null","psychophysics","358","1530956","0.0-3.0-1.174","","key","null","16.665999999999904","720","394.5","","","","","","","",""
"648","arrowright","psychophysics","359","1531632","0.0-3.0-0.175","","key","arrowright","16.666000000003258","720","394.5","176","7","1","30","35","25","35","true"
"null","null","psychophysics","360","1532635","0.0-3.0-1.175","","key","null","16.665999999999904","720","394.5","","","","","","","",""
"1529","arrowright","psychophysics","361","1534173","0.0-3.0-0.176","","key","arrowright","16.666000000001965","720","394.5","177","7","-1","24","15","25","35","false"
"null","null","psychophysics","362","1535176","0.0-3.0-1.176","","key","null","16.66599999999938","720","394.5","","","","","","","",""
"4302.5999999940395","arrowleft","psychophysics","363","1539483","0.0-3.0-0.177","","key","arrowleft","16.667315175097276","720","394.5","178","7","1","24","15","25","35","false"
"null","null","psychophysics","364","1540492","0.0-3.0-1.177","","key","null","16.66599999999938","720","394.5","","","","","","","",""
"2334.5","arrowleft","psychophysics","365","1542838","0.0-3.0-0.178","","key","arrowleft","16.66600000000016","720","394.5","179","7","1","24","35","25","35","false"
"null","null","psychophysics","366","1543841","0.0-3.0-1.178","","key","null","16.665999999999904","720","394.5","","","","","","","",""
"778.5","arrowleft","psychophysics","367","1544627","0.0-3.0-0.179","","key","arrowleft","16.665999999998704","720","394.5","180","7","1","20","15","25","35","false"
"null","null","psychophysics","368","1545631","0.0-3.0-1.179","","key","null","18.181090909090234","720","394.5","","","","","","","",""
"3095","arrowleft","psychophysics","369","1548768","0.0-3.0-0.180","","key","arrowleft","16.667417112299624","720","394.5","181","7","-1","27","35","25","35","true"
"null","null","psychophysics","370","1549771","0.0-3.0-1.180","","key","null","16.665999999999904","720","394.5","","","","","","","",""
"1429","arrowright","psychophysics","371","1551203","0.0-3.0-0.181","","key","arrowright","16.666000000001205","720","394.5","182","7","1","30","15","25","35","true"
"null","null","psychophysics","372","1552207","0.0-3.0-1.181","","key","null","16.665999999999904","720","394.5","","","","","","","",""
"3594.0999999940395","arrowleft","psychophysics","373","1555817","0.0-3.0-0.182","","key","arrowleft","16.666000000000672","720","394.5","183","7","-1","27","35","25","35","true"
"null","null","psychophysics","374","1556820","0.0-3.0-1.182","","key","null","16.67050847457722","720","394.5","","","","","","","",""
"1244","arrowright","psychophysics","375","1558083","0.0-3.0-0.183","","key","arrowright","16.66599999999938","720","394.5","184","7","1","30","15","25","35","true"
"null","null","psychophysics","376","1559092","0.0-3.0-1.183","","key","null","16.66599999999938","720","394.5","","","","","","","",""
"2020.199999988079","arrowleft","psychophysics","377","1561117","0.0-3.0-0.184","","key","arrowleft","16.66600000000132","720","394.5","185","7","-1","23","15","25","35","true"
"null","null","psychophysics","378","1562121","0.0-3.0-1.184","","key","null","16.665999999999904","720","394.5","","","","","","","",""
"1107.199999988079","arrowright","psychophysics","379","1563232","0.0-3.0-0.185","","key","arrowright","16.666000000000086","720","394.5","186","7","1","30","15","25","35","true"
"null","null","psychophysics","380","1564234","0.0-3.0-1.185","","key","null","16.95334482758611","720","394.5","","","","","","","",""
"764.8000000119209","arrowleft","psychophysics","381","1565016","0.0-3.0-0.186","","key","arrowleft","16.665999999998704","720","394.5","187","7","-1","25","15","25","35","true"
"null","null","psychophysics","382","1566019","0.0-3.0-1.186","","key","null","16.665999999999904","720","394.5","","","","","","","",""
"1096.5999999940395","arrowleft","psychophysics","383","1567120","0.0-3.0-0.187","","key","arrowleft","16.668938461537113","720","394.5","188","7","-1","26","35","25","35","true"
"null","null","psychophysics","384","1568123","0.0-3.0-1.187","","key","null","16.665999999999904","720","394.5","","","","","","","",""
"963.0999999940395","arrowright","psychophysics","385","1569089","0.0-3.0-0.188","","key","arrowright","16.666000000001013","720","394.5","189","7","1","30","35","25","35","true"
"null","null","psychophysics","386","1570090","0.0-3.0-1.188","","key","null","16.66599999999938","720","394.5","","","","","","","",""
"4616.199999988079","arrowleft","psychophysics","387","1574712","0.0-3.0-0.189","","key","arrowleft","16.66599999999955","720","394.5","190","7","1","23","15","25","35","false"
"null","null","psychophysics","388","1575714","0.0-3.0-1.189","","key","null","16.665999999999904","720","394.5","","","","","","","",""
"1278.9000000059605","arrowleft","psychophysics","389","1577016","0.0-3.0-0.190","","key","arrowleft","16.66945454545694","720","394.5","191","7","1","20","15","25","35","false"
"null","null","psychophysics","390","1578019","0.0-3.0-1.190","","key","null","16.665999999999904","720","394.5","","","","","","","",""
"942","arrowright","psychophysics","391","1578969","0.0-3.0-0.191","","key","arrowright","16.666000000001596","720","394.5","192","7","1","26","15","25","35","true"
"null","null","psychophysics","392","1579972","0.0-3.0-1.191","","key","null","16.665999999999904","720","394.5","","","","","","","",""
"2590.300000011921","arrowleft","psychophysics","393","1582570","0.0-3.0-0.192","","key","arrowleft","16.66599999999988","720","394.5","193","7","-1","24","15","25","35","true"
"null","null","psychophysics","394","1583580","0.0-3.0-1.192","","key","null","16.66599999999938","720","394.5","","","","","","","",""
"565","arrowleft","psychophysics","395","1584149","0.0-3.0-0.193","","key","arrowleft","16.666000000003613","720","394.5","194","7","-1","30","15","25","35","true"
"null","null","psychophysics","396","1585151","0.0-3.0-1.193","","key","null","16.665999999999904","720","394.5","","","","","","","",""
"1765.300000011921","arrowright","psychophysics","397","1586921","0.0-3.0-0.194","","key","arrowright","16.669228571429404","720","394.5","195","7","1","24","15","25","35","true"
"null","null","psychophysics","398","1587923","0.0-3.0-1.194","","key","null","16.665999999999904","720","394.5","","","","","","","",""
"1034.8999999761581","arrowleft","psychophysics","399","1588966","0.0-3.0-0.195","","key","arrowleft","16.666000000002132","720","394.5","196","8","1","20","35","25","35","false"
"null","null","psychophysics","400","1589974","0.0-3.0-1.195","","key","null","16.66599999999938","720","394.5","","","","","","","",""
"77171.30000001192"," ","html-keyboard-response","401","1667148","0.0-3.0-2.195-0.195","<div style=""color: white; text-align: center; vertical-align: top; display: inline-block; width: 800px; margin: auto""><p>You have completed 70% of the trials. You are on block 8 of 10. <br>Good job! Take a break if you need to.</p><p>Press any key to continue the experiment.</p></div>","","","","","","","","","","","","",""
"1488.0999999940395","arrowleft","psychophysics","402","1669650","0.0-3.0-0.196","","key","arrowleft","16.75592134831463","720","394.5","197","8","1","30","15","25","35","false"
"null","null","psychophysics","403","1670653","0.0-3.0-1.196","","key","null","16.665999999999904","720","394.5","","","","","","","",""
"530.4000000059605","arrowleft","psychophysics","404","1671189","0.0-3.0-0.197","","key","arrowleft","16.665999999998377","720","394.5","198","8","-1","30","15","25","35","true"
"null","null","psychophysics","405","1672191","0.0-3.0-1.197","","key","null","16.665999999999904","720","394.5","","","","","","","",""
"484.90000000596046","arrowleft","psychophysics","406","1672685","0.0-3.0-0.198","","key","arrowleft","16.666000000000448","720","394.5","199","8","1","20","35","25","35","false"
"null","null","psychophysics","407","1673689","0.0-3.0-1.198","","key","null","16.665999999999904","720","394.5","","","","","","","",""
"1284.9000000059605","arrowleft","psychophysics","408","1675000","0.0-3.0-0.199","","key","arrowleft","16.665999999998185","720","394.5","200","8","-1","24","15","25","35","true"
"null","null","psychophysics","409","1676002","0.0-3.0-1.199","","key","null","16.665999999999904","720","394.5","","","","","","","",""
"525.2999999821186","arrowleft","psychophysics","410","1676532","0.0-3.0-0.200","","key","arrowleft","16.665999999998377","720","394.5","201","8","-1","30","35","25","35","true"
"null","null","psychophysics","411","1677534","0.0-3.0-1.200","","key","null","16.617355932205346","720","394.5","","","","","","","",""
"547.8000000119209","arrowleft","psychophysics","412","1678089","0.0-3.0-0.201","","key","arrowleft","16.66599999999744","720","394.5","202","8","-1","30","35","25","35","true"
"null","null","psychophysics","413","1679093","0.0-3.0-1.201","","key","null","16.66599999999938","720","394.5","","","","","","","",""
"1169.300000011921","arrowright","psychophysics","414","1680267","0.0-3.0-0.202","","key","arrowright","16.665999999998704","720","394.5","203","8","-1","25","15","25","35","false"
"null","null","psychophysics","415","1681277","0.0-3.0-1.202","","key","null","16.66599999999938","720","394.5","","","","","","","",""
"549.7999999821186","arrowleft","psychophysics","416","1681832","0.0-3.0-0.203","","key","arrowleft","16.666000000004715","720","394.5","204","8","1","23","15","25","35","false"
"null","null","psychophysics","417","1682834","0.0-3.0-1.203","","key","null","16.665999999999904","720","394.5","","","","","","","",""
"1849.0999999940395","arrowleft","psychophysics","418","1684687","0.0-3.0-0.204","","key","arrowleft","16.666000000000086","720","394.5","205","8","-1","26","15","25","35","true"
"null","null","psychophysics","419","1685691","0.0-3.0-1.204","","key","null","16.665999999999904","720","394.5","","","","","","","",""
"3230","arrowright","psychophysics","420","1688943","0.0-3.0-0.205","","key","arrowright","16.667041025641495","720","394.5","206","8","-1","26","35","25","35","false"
"null","null","psychophysics","421","1689955","0.0-3.0-1.205","","key","null","16.665999999999904","720","394.5","","","","","","","",""
"1772.6000000238419","arrowleft","psychophysics","422","1691732","0.0-3.0-0.206","","key","arrowleft","16.666000000001283","720","394.5","207","8","1","25","35","25","35","false"
"null","null","psychophysics","423","1692735","0.0-3.0-1.206","","key","null","16.665999999999904","720","394.5","","","","","","","",""
"2040.9000000059605","arrowleft","psychophysics","424","1694784","0.0-3.0-0.207","","key","arrowleft","16.66599999999887","720","394.5","208","8","-1","25","35","25","35","true"
"null","null","psychophysics","425","1695786","0.0-3.0-1.207","","key","null","16.665999999999904","720","394.5","","","","","","","",""
"1410.9000000059605","arrowleft","psychophysics","426","1697217","0.0-3.0-0.208","","key","arrowleft","16.665999999998466","720","394.5","209","8","-1","27","15","25","35","true"
"null","null","psychophysics","427","1698219","0.0-3.0-1.208","","key","null","16.67040677966108","720","394.5","","","","","","","",""
"2709.5999999940395","arrowleft","psychophysics","428","1700932","0.0-3.0-0.209","","key","arrowleft","16.665999999999954","720","394.5","210","8","-1","30","35","25","35","true"
"null","null","psychophysics","429","1701935","0.0-3.0-1.209","","key","null","16.665999999999904","720","394.5","","","","","","","",""
"3398.2999999821186","arrowleft","psychophysics","430","1705350","0.0-3.0-0.210","","key","arrowleft","16.66600000000029","720","394.5","211","8","1","25","35","25","35","false"
"null","null","psychophysics","431","1706352","0.0-3.0-1.210","","key","null","16.665999999999904","720","394.5","","","","","","","",""
"2883","arrowleft","psychophysics","432","1709239","0.0-3.0-0.211","","key","arrowleft","16.667947674417857","720","394.5","212","8","-1","30","15","25","35","true"
"null","null","psychophysics","433","1710250","0.0-3.0-1.211","","key","null","16.66599999999938","720","394.5","","","","","","","",""
"784.5999999940395","arrowright","psychophysics","434","1711039","0.0-3.0-0.212","","key","arrowright","16.665999999998704","720","394.5","213","8","-1","20","35","25","35","false"
"null","null","psychophysics","435","1712042","0.0-3.0-1.212","","key","null","16.665999999999904","720","394.5","","","","","","","",""
"2181.9000000059605","arrowright","psychophysics","436","1714232","0.0-3.0-0.213","","key","arrowright","16.666000000000327","720","394.5","214","8","-1","26","15","25","35","false"
"null","null","psychophysics","437","1715235","0.0-3.0-1.213","","key","null","16.665999999999904","720","394.5","","","","","","","",""
"3472.7999999821186","arrowright","psychophysics","438","1718735","0.0-3.0-0.214","","key","arrowright","16.667263157894105","720","394.5","215","8","1","23","35","25","35","true"
"null","null","psychophysics","439","1719739","0.0-3.0-1.214","","key","null","16.665999999999904","720","394.5","","","","","","","",""
"1508.9000000059605","arrowright","psychophysics","440","1721256","0.0-3.0-0.215","","key","arrowright","16.666000000001965","720","394.5","216","8","1","24","15","25","35","true"
"null","null","psychophysics","441","1722266","0.0-3.0-1.215","","key","null","16.66599999999938","720","394.5","","","","","","","",""
"797.5999999940395","arrowleft","psychophysics","442","1723067","0.0-3.0-0.216","","key","arrowleft","16.665999999998057","720","394.5","217","8","-1","30","15","25","35","true"
"null","null","psychophysics","443","1724071","0.0-3.0-1.216","","key","null","16.665999999999904","720","394.5","","","","","","","",""
"5578.299999982119","arrowright","psychophysics","444","1729653","0.0-3.0-0.217","","key","arrowright","16.716816816816678","720","394.5","218","8","-1","27","35","25","35","false"
"null","null","psychophysics","445","1730660","0.0-3.0-1.217","","key","null","16.66599999999938","720","394.5","","","","","","","",""
"868","arrowright","psychophysics","446","1731532","0.0-3.0-0.218","","key","arrowright","16.66600000000029","720","394.5","219","8","1","26","35","25","35","true"
"null","null","psychophysics","447","1732534","0.0-3.0-1.218","","key","null","16.66600000000385","720","394.5","","","","","","","",""
"684","arrowright","psychophysics","448","1733222","0.0-3.0-0.219","","key","arrowright","16.66599999999744","720","394.5","220","8","-1","26","35","25","35","false"
"null","null","psychophysics","449","1734225","0.0-3.0-1.219","","key","null","16.66599999999938","720","394.5","","","","","","","",""
"937.4000000059605","arrowright","psychophysics","450","1735169","0.0-3.0-0.220","","key","arrowright","16.665999999997968","720","394.5","221","8","1","24","35","25","35","true"
"null","null","psychophysics","451","1736174","0.0-3.0-1.220","","key","null","16.665999999999904","720","394.5","","","","","","","",""
"2914.4000000059605","arrowright","psychophysics","452","1739104","0.0-3.0-0.221","","key","arrowright","16.667577142857812","720","394.5","222","8","-1","25","15","25","35","false"
"null","null","psychophysics","453","1740107","0.0-3.0-1.221","","key","null","16.665999999999904","720","394.5","","","","","","","",""
"774.4000000059605","arrowleft","psychophysics","454","1740889","0.0-3.0-0.222","","key","arrowleft","16.665999999998704","720","394.5","223","8","1","20","35","25","35","false"
"null","null","psychophysics","455","1741892","0.0-3.0-1.222","","key","null","16.666000000003258","720","394.5","","","","","","","",""
"1367.800000011921","arrowleft","psychophysics","456","1743265","0.0-3.0-0.223","","key","arrowleft","16.665999999999954","720","394.5","224","9","-1","27","35","25","35","true"
"null","null","psychophysics","457","1744277","0.0-3.0-1.223","","key","null","16.66599999999938","720","394.5","","","","","","","",""
"1944.699999988079"," ","html-keyboard-response","458","1746227","0.0-3.0-2.223-0.223","<div style=""color: white; text-align: center; vertical-align: top; display: inline-block; width: 800px; margin: auto""><p>You have completed 80% of the trials. You are on block 9 of 10. <br>Good job! Take a break if you need to.</p><p>Press any key to continue the experiment.</p></div>","","","","","","","","","","","","",""
"664.7999999821186","arrowright","psychophysics","459","1747902","0.0-3.0-0.224","","key","arrowright","16.499902439025433","720","394.5","225","9","1","30","35","25","35","true"
"null","null","psychophysics","460","1748905","0.0-3.0-1.224","","key","null","16.665999999999904","720","394.5","","","","","","","",""
"616.6999999880791","arrowright","psychophysics","461","1749527","0.0-3.0-0.225","","key","arrowright","16.666000000000672","720","394.5","226","9","1","27","15","25","35","true"
"null","null","psychophysics","462","1750537","0.0-3.0-1.225","","key","null","16.66599999999938","720","394.5","","","","","","","",""
"1121.9000000059605","arrowleft","psychophysics","463","1751664","0.0-3.0-0.226","","key","arrowleft","16.666000000000086","720","394.5","227","9","-1","26","15","25","35","true"
"null","null","psychophysics","464","1752667","0.0-3.0-1.226","","key","null","16.665999999999904","720","394.5","","","","","","","",""
"1218.5","arrowright","psychophysics","465","1753893","0.0-3.0-0.227","","key","arrowright","16.66600000000023","720","394.5","228","9","-1","26","15","25","35","false"
"null","null","psychophysics","466","1754897","0.0-3.0-1.227","","key","null","16.665999999999904","720","394.5","","","","","","","",""
"855.5","arrowright","psychophysics","467","1755760","0.0-3.0-0.228","","key","arrowright","16.66600000000029","720","394.5","229","9","1","26","35","25","35","true"
"null","null","psychophysics","468","1756771","0.0-3.0-1.228","","key","null","16.66599999999938","720","394.5","","","","","","","",""
"651.3999999761581","arrowright","psychophysics","469","1757427","0.0-3.0-0.229","","key","arrowright","16.6660000000051","720","394.5","230","9","-1","24","35","25","35","false"
"null","null","psychophysics","470","1758429","0.0-3.0-1.229","","key","null","16.67044067796383","720","394.5","","","","","","","",""
"998","arrowright","psychophysics","471","1759430","0.0-3.0-0.230","","key","arrowright","16.66600000000385","720","394.5","231","9","1","25","15","25","35","true"
"null","null","psychophysics","472","1760433","0.0-3.0-1.230","","key","null","16.665999999999904","720","394.5","","","","","","","",""
"1005.5","arrowright","psychophysics","473","1761461","0.0-3.0-0.231","","key","arrowright","16.66599999999887","720","394.5","232","9","-1","23","35","25","35","false"
"null","null","psychophysics","474","1762463","0.0-3.0-1.231","","key","null","16.665999999999904","720","394.5","","","","","","","",""
"920.6999999880791","arrowleft","psychophysics","475","1763414","0.0-3.0-0.232","","key","arrowleft","16.666000000001596","720","394.5","233","9","-1","30","35","25","35","true"
"null","null","psychophysics","476","1764417","0.0-3.0-1.232","","key","null","16.665999999999904","720","394.5","","","","","","","",""
"551.0999999940395","arrowright","psychophysics","477","1764976","0.0-3.0-0.233","","key","arrowright","16.666000000003613","720","394.5","234","9","-1","20","15","25","35","false"
"null","null","psychophysics","478","1765979","0.0-3.0-1.233","","key","null","16.665999999999904","720","394.5","","","","","","","",""
"1164.3999999761581","arrowright","psychophysics","479","1767148","0.0-3.0-0.234","","key","arrowright","16.665999999998704","720","394.5","235","9","-1","27","15","25","35","false"
"null","null","psychophysics","480","1768151","0.0-3.0-1.234","","key","null","16.66947457626841","720","394.5","","","","","","","",""
"1010","arrowleft","psychophysics","481","1769176","0.0-3.0-0.235","","key","arrowleft","16.666000000002686","720","394.5","236","9","1","20","15","25","35","false"
"null","null","psychophysics","482","1770185","0.0-3.0-1.235","","key","null","16.66599999999938","720","394.5","","","","","","","",""
"822.6999999880791","arrowleft","psychophysics","483","1771013","0.0-3.0-0.236","","key","arrowleft","16.66600000000229","720","394.5","237","9","-1","30","35","25","35","true"
"null","null","psychophysics","484","1772017","0.0-3.0-1.236","","key","null","16.665999999999904","720","394.5","","","","","","","",""
"4506.9000000059605","arrowleft","psychophysics","485","1776532","0.0-3.0-0.237","","key","arrowleft","16.666000000000242","720","394.5","238","9","1","23","35","25","35","false"
"null","null","psychophysics","486","1777544","0.0-3.0-1.237","","key","null","16.66599999999938","720","394.5","","","","","","","",""
"1035.4000000059605","arrowleft","psychophysics","487","1778582","0.0-3.0-0.238","","key","arrowleft","16.671393442624172","720","394.5","239","9","1","23","35","25","35","false"
"null","null","psychophysics","488","1779586","0.0-3.0-1.238","","key","null","16.66599999999938","720","394.5","","","","","","","",""
"906.3000000119209","arrowright","psychophysics","489","1780496","0.0-3.0-0.239","","key","arrowright","16.665999999999087","720","394.5","240","9","-1","23","15","25","35","false"
"null","null","psychophysics","490","1781500","0.0-3.0-1.239","","key","null","16.665999999999904","720","394.5","","","","","","","",""
"3411.0999999940395","arrowright","psychophysics","491","1784932","0.0-3.0-0.240","","key","arrowright","16.83019704433511","720","394.5","241","9","-1","23","35","25","35","false"
"null","null","psychophysics","492","1785940","0.0-3.0-1.240","","key","null","16.66599999999938","720","394.5","","","","","","","",""
"1598.4000000059605","arrowright","psychophysics","493","1787543","0.0-3.0-0.241","","key","arrowright","16.666000000000196","720","394.5","242","9","1","26","35","25","35","true"
"null","null","psychophysics","494","1788547","0.0-3.0-1.241","","key","null","16.67050847457722","720","394.5","","","","","","","",""
"774.5","arrowleft","psychophysics","495","1789327","0.0-3.0-0.242","","key","arrowleft","16.665999999998704","720","394.5","243","9","-1","30","15","25","35","true"
"null","null","psychophysics","496","1790331","0.0-3.0-1.242","","key","null","16.665999999999904","720","394.5","","","","","","","",""
"1100.5","arrowleft","psychophysics","497","1791440","0.0-3.0-0.243","","key","arrowleft","16.666000000000086","720","394.5","244","9","1","20","15","25","35","false"
"null","null","psychophysics","498","1792449","0.0-3.0-1.243","","key","null","16.665999999999904","720","394.5","","","","","","","",""
"1768.800000011921","arrowleft","psychophysics","499","1794225","0.0-3.0-0.244","","key","arrowleft","16.665999999999087","720","394.5","245","9","-1","26","15","25","35","true"
"null","null","psychophysics","500","1795229","0.0-3.0-1.244","","key","null","16.665999999999904","720","394.5","","","","","","","",""
"637.3000000119209","arrowright","psychophysics","501","1795875","0.0-3.0-0.245","","key","arrowright","16.66599999999897","720","394.5","246","9","1","30","15","25","35","true"
"null","null","psychophysics","502","1796877","0.0-3.0-1.245","","key","null","16.665999999999904","720","394.5","","","","","","","",""
"879","arrowleft","psychophysics","503","1797759","0.0-3.0-0.246","","key","arrowleft","16.67113461538415","720","394.5","247","9","1","23","35","25","35","false"
"null","null","psychophysics","504","1798773","0.0-3.0-1.246","","key","null","16.66599999999938","720","394.5","","","","","","","",""
"831.6999999880791","arrowleft","psychophysics","505","1799608","0.0-3.0-0.247","","key","arrowleft","16.665999999996846","720","394.5","248","9","1","25","15","25","35","false"
"null","null","psychophysics","506","1800610","0.0-3.0-1.247","","key","null","16.665999999999904","720","394.5","","","","","","","",""
"2784.5999999940395","arrowright","psychophysics","507","1803399","0.0-3.0-0.248","","key","arrowright","16.66599999999919","720","394.5","249","9","1","26","35","25","35","true"
"null","null","psychophysics","508","1804402","0.0-3.0-1.248","","key","null","16.66599999999938","720","394.5","","","","","","","",""
"1325.7999999821186","arrowleft","psychophysics","509","1805742","0.0-3.0-0.249","","key","arrowleft","16.66599999999781","720","394.5","250","9","-1","30","15","25","35","true"
"null","null","psychophysics","510","1806744","0.0-3.0-1.249","","key","null","16.665999999999904","720","394.5","","","","","","","",""
"844.5","arrowright","psychophysics","511","1807593","0.0-3.0-0.250","","key","arrowright","16.665999999996274","720","394.5","251","9","1","27","15","25","35","true"
"null","null","psychophysics","512","1808596","0.0-3.0-1.250","","key","null","16.67050847457327","720","394.5","","","","","","","",""
"1887.9000000059605","arrowleft","psychophysics","513","1810494","0.0-3.0-0.251","","key","arrowleft","16.665999999999517","720","394.5","252","10","1","26","35","25","35","false"
"null","null","psychophysics","514","1811508","0.0-3.0-1.251","","key","null","16.66599999999938","720","394.5","","","","","","","",""
"105393.30000001192"," ","html-keyboard-response","515","1916903","0.0-3.0-2.251-0.251","<div style=""color: white; text-align: center; vertical-align: top; display: inline-block; width: 800px; margin: auto""><p>You have completed 90% of the trials. You are on block 10 of 10. <br>Good job! Take a break if you need to.</p><p>Press any key to continue the experiment.</p></div>","","","","","","","","","","","","",""
"1572.1000000238419","arrowright","psychophysics","516","1919498","0.0-3.0-0.252","","key","arrowright","16.665999999997744","720","394.5","253","10","1","26","15","25","35","true"
"null","null","psychophysics","517","1920500","0.0-3.0-1.252","","key","null","16.665999999999904","720","394.5","","","","","","","",""
"1150.7000000178814","arrowleft","psychophysics","518","1921656","0.0-3.0-0.253","","key","arrowleft","16.66599999999915","720","394.5","254","10","-1","24","15","25","35","true"
"null","null","psychophysics","519","1922660","0.0-3.0-1.253","","key","null","16.665999999999904","720","394.5","","","","","","","",""
"1141.2000000178814","arrowright","psychophysics","520","1923809","0.0-3.0-0.254","","key","arrowright","16.67585294117795","720","394.5","255","10","1","25","35","25","35","true"
"null","null","psychophysics","521","1924834","0.0-3.0-1.254","","key","null","16.66599999999887","720","394.5","","","","","","","",""
"1083.4000000059605","arrowright","psychophysics","522","1925922","0.0-3.0-0.255","","key","arrowright","16.666000000001077","720","394.5","256","10","-1","20","15","25","35","false"
"null","null","psychophysics","523","1926925","0.0-3.0-1.255","","key","null","16.95334482758611","720","394.5","","","","","","","",""
"612.1999999880791","arrowright","psychophysics","524","1927539","0.0-3.0-0.256","","key","arrowright","16.666000000000672","720","394.5","257","10","1","27","15","25","35","true"
"null","null","psychophysics","525","1928543","0.0-3.0-1.256","","key","null","16.665999999999904","720","394.5","","","","","","","",""
"3346","arrowleft","psychophysics","526","1931893","0.0-3.0-0.257","","key","arrowleft","16.665999999999766","720","394.5","258","10","1","25","15","25","35","false"
"null","null","psychophysics","527","1932907","0.0-3.0-1.257","","key","null","16.66599999999938","720","394.5","","","","","","","",""
"1026","arrowleft","psychophysics","528","1933939","0.0-3.0-0.258","","key","arrowleft","16.670426229507374","720","394.5","259","10","1","27","15","25","35","false"
"null","null","psychophysics","529","1934942","0.0-3.0-1.258","","key","null","16.665999999999904","720","394.5","","","","","","","",""
"2488.5999999940395","arrowleft","psychophysics","530","1937438","0.0-3.0-0.259","","key","arrowleft","16.778608108107694","720","394.5","260","10","-1","23","35","25","35","true"
"null","null","psychophysics","531","1938442","0.0-3.0-1.259","","key","null","16.665999999999904","720","394.5","","","","","","","",""
"3045.5","arrowright","psychophysics","532","1941506","0.0-3.0-0.260","","key","arrowright","16.666000000000142","720","394.5","261","10","-1","24","35","25","35","false"
"null","null","psychophysics","533","1942510","0.0-3.0-1.260","","key","null","16.665999999999904","720","394.5","","","","","","","",""
"1405.4000000059605","arrowleft","psychophysics","534","1943922","0.0-3.0-0.261","","key","arrowleft","16.668821428572603","720","394.5","262","10","-1","26","15","25","35","true"
"null","null","psychophysics","535","1944926","0.0-3.0-1.261","","key","null","16.665999999999904","720","394.5","","","","","","","",""
"1191.300000011921","arrowleft","psychophysics","536","1946145","0.0-3.0-0.262","","key","arrowleft","16.666000000000672","720","394.5","263","10","-1","26","35","25","35","true"
"null","null","psychophysics","537","1947147","0.0-3.0-1.262","","key","null","16.66599999999938","720","394.5","","","","","","","",""
"777.5999999940395","arrowleft","psychophysics","538","1947930","0.0-3.0-0.263","","key","arrowleft","16.66599999999938","720","394.5","264","10","-1","25","15","25","35","true"
"null","null","psychophysics","539","1948933","0.0-3.0-1.263","","key","null","16.66599999999938","720","394.5","","","","","","","",""
"598.0999999940395","arrowleft","psychophysics","540","1949535","0.0-3.0-0.264","","key","arrowleft","16.666000000001596","720","394.5","265","10","-1","30","15","25","35","true"
"null","null","psychophysics","541","1950538","0.0-3.0-1.264","","key","null","16.665999999999904","720","394.5","","","","","","","",""
"2333.800000011921","arrowright","psychophysics","542","1952877","0.0-3.0-0.265","","key","arrowright","16.66600000000016","720","394.5","266","10","-1","26","15","25","35","false"
"null","null","psychophysics","543","1953890","0.0-3.0-1.265","","key","null","16.670833333333334","720","394.5","","","","","","","",""
"946.5","arrowleft","psychophysics","544","1954841","0.0-3.0-0.266","","key","arrowleft","16.666000000001596","720","394.5","267","10","1","20","15","25","35","false"
"null","null","psychophysics","545","1955843","0.0-3.0-1.266","","key","null","16.665999999999904","720","394.5","","","","","","","",""
"2390.5","arrowleft","psychophysics","546","1958238","0.0-3.0-0.267","","key","arrowleft","16.6660000000009","720","394.5","268","10","1","25","15","25","35","false"
"null","null","psychophysics","547","1959241","0.0-3.0-1.267","","key","null","16.665999999999904","720","394.5","","","","","","","",""
"776","arrowleft","psychophysics","548","1960036","0.0-3.0-0.268","","key","arrowleft","16.665999999998057","720","394.5","269","10","1","20","35","25","35","false"
"null","null","psychophysics","549","1961039","0.0-3.0-1.268","","key","null","16.665999999999904","720","394.5","","","","","","","",""
"713.3000000119209","arrowleft","psychophysics","550","1961757","0.0-3.0-0.269","","key","arrowleft","16.665999999996053","720","394.5","270","10","1","20","35","25","35","false"
"null","null","psychophysics","551","1962762","0.0-3.0-1.269","","key","null","16.665999999999904","720","394.5","","","","","","","",""
"835.8000000119209","arrowright","psychophysics","552","1963606","0.0-3.0-0.270","","key","arrowright","16.66600000000093","720","394.5","271","10","-1","20","15","25","35","false"
"null","null","psychophysics","553","1964609","0.0-3.0-1.270","","key","null","16.963070175438922","720","394.5","","","","","","","",""
"846.0999999940395","arrowright","psychophysics","554","1965469","0.0-3.0-0.271","","key","arrowright","18.4389787234039","720","394.5","272","10","-1","24","35","25","35","false"
"null","null","psychophysics","555","1966482","0.0-3.0-1.271","","key","null","16.66599999999938","720","394.5","","","","","","","",""
"784.8999999761581","arrowleft","psychophysics","556","1967272","0.0-3.0-0.272","","key","arrowleft","16.665999999998704","720","394.5","273","10","1","20","35","25","35","false"
"null","null","psychophysics","557","1968276","0.0-3.0-1.272","","key","null","16.665999999999904","720","394.5","","","","","","","",""
"1001.7999999821186","arrowright","psychophysics","558","1969287","0.0-3.0-0.273","","key","arrowright","16.66599999999938","720","394.5","274","10","-1","23","35","25","35","false"
"null","null","psychophysics","559","1970290","0.0-3.0-1.273","","key","null","16.665999999999904","720","394.5","","","","","","","",""
"570","arrowright","psychophysics","560","1970865","0.0-3.0-0.274","","key","arrowright","16.666000000002576","720","394.5","275","10","1","30","15","25","35","true"
"null","null","psychophysics","561","1971867","0.0-3.0-1.274","","key","null","16.665999999999904","720","394.5","","","","","","","",""
"1330.0999999940395","arrowleft","psychophysics","562","1973217","0.0-3.0-0.275","","key","arrowleft","16.66600000000035","720","394.5","276","10","-1","24","15","25","35","true"
"null","null","psychophysics","563","1974221","0.0-3.0-1.275","","key","null","16.669271186440078","720","394.5","","","","","","","",""
"563.4000000059605","arrowleft","psychophysics","564","1974789","0.0-3.0-0.276","","key","arrowleft","16.666000000003613","720","394.5","277","10","-1","27","15","25","35","true"
"null","null","psychophysics","565","1975790","0.0-3.0-1.276","","key","null","16.665999999999904","720","394.5","","","","","","","",""
"526.4000000059605","arrowright","psychophysics","566","1976320","0.0-3.0-0.277","","key","arrowright","16.665999999998377","720","394.5","278","10","-1","20","15","25","35","false"
"null","null","psychophysics","567","1977323","0.0-3.0-1.277","","key","null","16.665999999999904","720","394.5","","","","","","","",""
"2878.600000023842","arrowright","psychophysics","568","1980206","0.0-3.0-0.278","","key","arrowright","16.66599999999947","720","394.5","279","10","1","25","35","25","35","true"
"null","null","psychophysics","569","1981221","0.0-3.0-1.278","","key","null","16.66599999999938","720","394.5","","","","","","","",""
"638.8000000119209","arrowleft","psychophysics","570","1981864","0.0-3.0-0.279","","key","arrowleft","16.66599999999897","720","394.5","280","11","-1","27","15","25","35","true"
"null","null","psychophysics","571","1982867","0.0-3.0-1.279","","key","null","16.665999999999904","720","394.5","","","","","","","",""
