rt,response,trial_type,trial_index,time_elapsed,internal_node_id,stimulus,response_type,key_press,avg_frame_time,center_x,center_y,trial,block,test_pos,test_inner_radius,test_outer_radius,ref_inner_radius,ref_outer_radius,test_bigger
16251.3,"{""p_id"":""8150"",""age"":""19"",""handedness"":""right"",""sex"":""female"",""other_sex"":""""}",survey-html-form,0,16258,0.0-0.0,,,,,,,,,,,,,,
23169.8, ,html-keyboard-response,1,39435,0.0-1.0,"<p style=""color: white"">Welcome to the Size Judgment Experiment. <br>There will be 10 blocks in this experiment. <br>There will be 28 trials in each block. <br>You will be given a chance to take a break between blocks. <br>Press any key to start the experiment.</p>",,,,,,,,,,,,,
23160.8, ,psychophysics,2,62621,0.0-2.0,,key, ,16.66696837,665,347,,,,,,,,
4431,arrowright,psychophysics,3,67060,0.0-3.0-0.0,,key,arrowright,16.666,665,347,1,1,1,30,35,25,35,TRUE
null,null,psychophysics,4,68065,0.0-3.0-1.0,,key,null,16.666,665,347,,,,,,,,
1336.8,arrowleft,psychophysics,5,69421,0.0-3.0-0.1,,key,arrowleft,16.666,665,347,2,1,-1,27,15,25,35,TRUE
null,null,psychophysics,6,70424,0.0-3.0-1.1,,key,null,16.66325424,665,347,,,,,,,,
947.5,arrowright,psychophysics,7,71376,0.0-3.0-0.2,,key,arrowright,16.666,665,347,3,1,-1,24,35,25,35,FALSE
null,null,psychophysics,8,72380,0.0-3.0-1.2,,key,null,16.666,665,347,,,,,,,,
1569.7,arrowright,psychophysics,9,73955,0.0-3.0-0.3,,key,arrowright,16.666,665,347,4,1,-1,26,35,25,35,FALSE
null,null,psychophysics,10,74961,0.0-3.0-1.3,,key,null,16.666,665,347,,,,,,,,
1964.6,arrowright,psychophysics,11,76930,0.0-3.0-0.4,,key,arrowright,16.666,665,347,5,1,1,30,15,25,35,TRUE
null,null,psychophysics,12,77934,0.0-3.0-1.4,,key,null,16.666,665,347,,,,,,,,
2900.3,arrowleft,psychophysics,13,80839,0.0-3.0-0.5,,key,arrowleft,16.66879191,665,347,6,1,-1,27,15,25,35,TRUE
null,null,psychophysics,14,81844,0.0-3.0-1.5,,key,null,16.666,665,347,,,,,,,,
3259.4,arrowright,psychophysics,15,85109,0.0-3.0-0.6,,key,arrowright,16.666,665,347,7,1,1,23,15,25,35,TRUE
null,null,psychophysics,16,86112,0.0-3.0-1.6,,key,null,16.666,665,347,,,,,,,,
1492.3,arrowright,psychophysics,17,87609,0.0-3.0-0.7,,key,arrowright,16.666,665,347,8,1,1,25,35,25,35,TRUE
null,null,psychophysics,18,88613,0.0-3.0-1.7,,key,null,16.666,665,347,,,,,,,,
1785.5,arrowright,psychophysics,19,90404,0.0-3.0-0.8,,key,arrowright,16.66849533,665,347,9,1,-1,20,15,25,35,FALSE
null,null,psychophysics,20,91407,0.0-3.0-1.8,,key,null,16.666,665,347,,,,,,,,
833.7,arrowleft,psychophysics,21,92244,0.0-3.0-0.9,,key,arrowleft,16.666,665,347,10,1,1,23,35,25,35,FALSE
null,null,psychophysics,22,93250,0.0-3.0-1.9,,key,null,16.666,665,347,,,,,,,,
1149,arrowright,psychophysics,23,94407,0.0-3.0-0.10,,key,arrowright,16.666,665,347,11,1,1,30,15,25,35,TRUE
null,null,psychophysics,24,95409,0.0-3.0-1.10,,key,null,16.666,665,347,,,,,,,,
2297.9,arrowleft,psychophysics,25,97712,0.0-3.0-0.11,,key,arrowleft,16.666,665,347,12,1,1,25,15,25,35,FALSE
null,null,psychophysics,26,98716,0.0-3.0-1.11,,key,null,16.666,665,347,,,,,,,,
1150.1,arrowright,psychophysics,27,99874,0.0-3.0-0.12,,key,arrowright,16.67,665,347,13,1,-1,23,35,25,35,FALSE
null,null,psychophysics,28,100878,0.0-3.0-1.12,,key,null,16.666,665,347,,,,,,,,
1474.5,arrowright,psychophysics,29,102357,0.0-3.0-0.13,,key,arrowright,16.666,665,347,14,1,1,23,15,25,35,TRUE
null,null,psychophysics,30,103360,0.0-3.0-1.13,,key,null,16.666,665,347,,,,,,,,
2189.5,arrowright,psychophysics,31,105554,0.0-3.0-0.14,,key,arrowright,16.666,665,347,15,1,1,25,15,25,35,TRUE
null,null,psychophysics,32,106559,0.0-3.0-1.14,,key,null,16.666,665,347,,,,,,,,
1058,arrowleft,psychophysics,33,107623,0.0-3.0-0.15,,key,arrowleft,16.666,665,347,16,1,1,24,35,25,35,FALSE
null,null,psychophysics,34,108626,0.0-3.0-1.15,,key,null,16.666,665,347,,,,,,,,
1025,arrowleft,psychophysics,35,109656,0.0-3.0-0.16,,key,arrowleft,16.666,665,347,17,1,-1,27,15,25,35,TRUE
null,null,psychophysics,36,110659,0.0-3.0-1.16,,key,null,16.66705085,665,347,,,,,,,,
1594.3,arrowright,psychophysics,37,112259,0.0-3.0-0.17,,key,arrowright,16.666,665,347,18,1,1,26,35,25,35,TRUE
null,null,psychophysics,38,113267,0.0-3.0-1.17,,key,null,16.666,665,347,,,,,,,,
1153.4,arrowright,psychophysics,39,114424,0.0-3.0-0.18,,key,arrowright,16.666,665,347,19,1,-1,23,35,25,35,FALSE
null,null,psychophysics,40,115428,0.0-3.0-1.18,,key,null,16.666,665,347,,,,,,,,
794,arrowleft,psychophysics,41,116228,0.0-3.0-0.19,,key,arrowleft,16.666,665,347,20,1,-1,25,15,25,35,TRUE
null,null,psychophysics,42,117231,0.0-3.0-1.19,,key,null,16.666,665,347,,,,,,,,
1737.5,arrowleft,psychophysics,43,118973,0.0-3.0-0.20,,key,arrowleft,16.666,665,347,21,1,1,20,15,25,35,FALSE
null,null,psychophysics,44,119978,0.0-3.0-1.20,,key,null,16.67635593,665,347,,,,,,,,
774.1999998,arrowright,psychophysics,45,120758,0.0-3.0-0.21,,key,arrowright,16.666,665,347,22,1,-1,23,35,25,35,FALSE
null,null,psychophysics,46,121761,0.0-3.0-1.21,,key,null,16.666,665,347,,,,,,,,
1104.9,arrowright,psychophysics,47,122871,0.0-3.0-0.22,,key,arrowright,16.666,665,347,23,1,1,30,35,25,35,TRUE
null,null,psychophysics,48,123874,0.0-3.0-1.22,,key,null,16.666,665,347,,,,,,,,
710.5,arrowleft,psychophysics,49,124589,0.0-3.0-0.23,,key,arrowleft,16.666,665,347,24,1,-1,30,15,25,35,TRUE
null,null,psychophysics,50,125594,0.0-3.0-1.23,,key,null,16.666,665,347,,,,,,,,
818.3,arrowright,psychophysics,51,126423,0.0-3.0-0.24,,key,arrowright,16.666,665,347,25,1,1,30,35,25,35,TRUE
null,null,psychophysics,52,127426,0.0-3.0-1.24,,key,null,16.666,665,347,,,,,,,,
942.4000001,arrowleft,psychophysics,53,128373,0.0-3.0-0.25,,key,arrowleft,16.666,665,347,26,1,1,23,35,25,35,FALSE
null,null,psychophysics,54,129375,0.0-3.0-1.25,,key,null,16.95334483,665,347,,,,,,,,
776.0999999,arrowright,psychophysics,55,130157,0.0-3.0-0.26,,key,arrowright,16.66817391,665,347,27,1,1,26,35,25,35,TRUE
null,null,psychophysics,56,131164,0.0-3.0-1.26,,key,null,16.666,665,347,,,,,,,,
1453.6,arrowright,psychophysics,57,132622,0.0-3.0-0.27,,key,arrowright,16.666,665,347,28,2,1,26,15,25,35,TRUE
null,null,psychophysics,58,133626,0.0-3.0-1.27,,key,null,16.666,665,347,,,,,,,,
19107, ,html-keyboard-response,59,152735,0.0-3.0-2.27-0.27,"<div style=""color: white; text-align: center; vertical-align: top; display: inline-block; width: 800px; margin: auto""><p>You have completed 10% of the trials. You are on block 2 of 10. <br>Good job! Take a break if you need to.</p><p>Press any key to continue the experiment.</p></div>",,,,,,,,,,,,,
2074.1,arrowleft,psychophysics,60,155826,0.0-3.0-0.28,,key,arrowleft,16.67919355,665,347,29,2,1,24,15,25,35,FALSE
null,null,psychophysics,61,156829,0.0-3.0-1.28,,key,null,16.666,665,347,,,,,,,,
1665.6,arrowright,psychophysics,62,158499,0.0-3.0-0.29,,key,arrowright,16.666,665,347,30,2,-1,20,15,25,35,FALSE
null,null,psychophysics,63,159504,0.0-3.0-1.29,,key,null,16.666,665,347,,,,,,,,
1496.1,arrowleft,psychophysics,64,161005,0.0-3.0-0.30,,key,arrowleft,16.666,665,347,31,2,1,27,35,25,35,FALSE
null,null,psychophysics,65,162007,0.0-3.0-1.30,,key,null,16.666,665,347,,,,,,,,
2059.3,arrowleft,psychophysics,66,164071,0.0-3.0-0.31,,key,arrowleft,16.66022764,665,347,32,2,-1,23,15,25,35,TRUE
null,null,psychophysics,67,165076,0.0-3.0-1.31,,key,null,16.666,665,347,,,,,,,,
4341.7,arrowleft,psychophysics,68,169422,0.0-3.0-0.32,,key,arrowleft,16.666,665,347,33,2,1,26,15,25,35,FALSE
null,null,psychophysics,69,170428,0.0-3.0-1.32,,key,null,16.666,665,347,,,,,,,,
765.8000002,arrowleft,psychophysics,70,171198,0.0-3.0-0.33,,key,arrowleft,16.666,665,347,34,2,-1,26,35,25,35,TRUE
null,null,psychophysics,71,172200,0.0-3.0-1.33,,key,null,16.666,665,347,,,,,,,,
612,arrowleft,psychophysics,72,172816,0.0-3.0-0.34,,key,arrowleft,16.666,665,347,35,2,1,20,35,25,35,FALSE
null,null,psychophysics,73,173818,0.0-3.0-1.34,,key,null,16.67177966,665,347,,,,,,,,
749.6999998,arrowleft,psychophysics,74,174572,0.0-3.0-0.35,,key,arrowleft,16.666,665,347,36,2,-1,26,15,25,35,TRUE
null,null,psychophysics,75,175575,0.0-3.0-1.35,,key,null,16.666,665,347,,,,,,,,
1410.7,arrowright,psychophysics,76,176998,0.0-3.0-0.36,,key,arrowright,16.666,665,347,37,2,-1,24,35,25,35,FALSE
null,null,psychophysics,77,178001,0.0-3.0-1.36,,key,null,16.666,665,347,,,,,,,,
982.2,arrowleft,psychophysics,78,178986,0.0-3.0-0.37,,key,arrowleft,16.666,665,347,38,2,-1,30,35,25,35,TRUE
null,null,psychophysics,79,179989,0.0-3.0-1.37,,key,null,16.666,665,347,,,,,,,,
1042.8,arrowleft,psychophysics,80,181037,0.0-3.0-0.38,,key,arrowleft,16.666,665,347,39,2,1,23,15,25,35,FALSE
null,null,psychophysics,81,182044,0.0-3.0-1.38,,key,null,16.666,665,347,,,,,,,,
1615.9,arrowright,psychophysics,82,183665,0.0-3.0-0.39,,key,arrowright,16.66666667,665,347,40,2,-1,20,15,25,35,FALSE
null,null,psychophysics,83,184667,0.0-3.0-1.39,,key,null,16.666,665,347,,,,,,,,
848.7,arrowleft,psychophysics,84,185519,0.0-3.0-0.40,,key,arrowleft,16.666,665,347,41,2,1,20,35,25,35,FALSE
null,null,psychophysics,85,186523,0.0-3.0-1.40,,key,null,16.666,665,347,,,,,,,,
990.6000001,arrowleft,psychophysics,86,187519,0.0-3.0-0.41,,key,arrowleft,16.666,665,347,42,2,1,25,35,25,35,FALSE
null,null,psychophysics,87,188524,0.0-3.0-1.41,,key,null,16.666,665,347,,,,,,,,
629.6000001,arrowright,psychophysics,88,189158,0.0-3.0-0.42,,key,arrowright,16.666,665,347,43,2,1,30,15,25,35,TRUE
null,null,psychophysics,89,190160,0.0-3.0-1.42,,key,null,16.666,665,347,,,,,,,,
837,arrowright,psychophysics,90,191002,0.0-3.0-0.43,,key,arrowright,16.666,665,347,44,2,1,25,15,25,35,TRUE
null,null,psychophysics,91,192004,0.0-3.0-1.43,,key,null,16.666,665,347,,,,,,,,
876,arrowright,psychophysics,92,192886,0.0-3.0-0.44,,key,arrowright,16.666,665,347,45,2,1,25,15,25,35,TRUE
null,null,psychophysics,93,193891,0.0-3.0-1.44,,key,null,16.67189831,665,347,,,,,,,,
887.9000001,arrowleft,psychophysics,94,194783,0.0-3.0-0.45,,key,arrowleft,16.666,665,347,46,2,-1,25,35,25,35,TRUE
null,null,psychophysics,95,195786,0.0-3.0-1.45,,key,null,16.666,665,347,,,,,,,,
843.5,arrowleft,psychophysics,96,196635,0.0-3.0-0.46,,key,arrowleft,16.666,665,347,47,2,1,23,35,25,35,FALSE
null,null,psychophysics,97,197637,0.0-3.0-1.46,,key,null,16.666,665,347,,,,,,,,
825.5,arrowleft,psychophysics,98,198468,0.0-3.0-0.47,,key,arrowleft,16.666,665,347,48,2,-1,30,15,25,35,TRUE
null,null,psychophysics,99,199474,0.0-3.0-1.47,,key,null,16.666,665,347,,,,,,,,
806.2,arrowleft,psychophysics,100,200285,0.0-3.0-0.48,,key,arrowleft,16.666,665,347,49,2,1,23,35,25,35,FALSE
null,null,psychophysics,101,201287,0.0-3.0-1.48,,key,null,16.666,665,347,,,,,,,,
659.0999999,arrowright,psychophysics,102,201951,0.0-3.0-0.49,,key,arrowright,16.666,665,347,50,2,1,30,15,25,35,TRUE
null,null,psychophysics,103,202953,0.0-3.0-1.49,,key,null,16.666,665,347,,,,,,,,
1027.1,arrowleft,psychophysics,104,203985,0.0-3.0-0.50,,key,arrowleft,16.666,665,347,51,2,-1,26,15,25,35,TRUE
null,null,psychophysics,105,204993,0.0-3.0-1.50,,key,null,16.666,665,347,,,,,,,,
703.5,arrowright,psychophysics,106,205701,0.0-3.0-0.51,,key,arrowright,16.666,665,347,52,2,1,30,35,25,35,TRUE
null,null,psychophysics,107,206703,0.0-3.0-1.51,,key,null,16.666,665,347,,,,,,,,
778.5999999,arrowright,psychophysics,108,207486,0.0-3.0-0.52,,key,arrowright,16.666,665,347,53,2,1,27,15,25,35,TRUE
null,null,psychophysics,109,208488,0.0-3.0-1.52,,key,null,16.666,665,347,,,,,,,,
674.6999998,arrowleft,psychophysics,110,209168,0.0-3.0-0.53,,key,arrowleft,16.666,665,347,54,2,-1,26,15,25,35,TRUE
null,null,psychophysics,111,210171,0.0-3.0-1.53,,key,null,16.666,665,347,,,,,,,,
958.5,arrowright,psychophysics,112,211141,0.0-3.0-0.54,,key,arrowright,16.666,665,347,55,2,-1,20,15,25,35,FALSE
null,null,psychophysics,113,212143,0.0-3.0-1.54,,key,null,16.666,665,347,,,,,,,,
989.2,arrowleft,psychophysics,114,213137,0.0-3.0-0.55,,key,arrowleft,16.67213793,665,347,56,3,1,20,15,25,35,FALSE
null,null,psychophysics,115,214140,0.0-3.0-1.55,,key,null,16.666,665,347,,,,,,,,
21945.3, ,html-keyboard-response,116,236086,0.0-3.0-2.55-0.55,"<div style=""color: white; text-align: center; vertical-align: top; display: inline-block; width: 800px; margin: auto""><p>You have completed 20% of the trials. You are on block 3 of 10. <br>Good job! Take a break if you need to.</p><p>Press any key to continue the experiment.</p></div>",,,,,,,,,,,,,
1129.6,arrowleft,psychophysics,117,238223,0.0-3.0-0.56,,key,arrowleft,16.7678209,665,347,57,3,-1,25,15,25,35,TRUE
null,null,psychophysics,118,239226,0.0-3.0-1.56,,key,null,16.666,665,347,,,,,,,,
812.5,arrowleft,psychophysics,119,240043,0.0-3.0-0.57,,key,arrowleft,16.666,665,347,58,3,1,24,15,25,35,FALSE
null,null,psychophysics,120,241047,0.0-3.0-1.57,,key,null,16.666,665,347,,,,,,,,
868.3,arrowleft,psychophysics,121,241920,0.0-3.0-0.58,,key,arrowleft,16.666,665,347,59,3,-1,23,15,25,35,TRUE
null,null,psychophysics,122,242923,0.0-3.0-1.58,,key,null,16.666,665,347,,,,,,,,
1154.3,arrowleft,psychophysics,123,244086,0.0-3.0-0.59,,key,arrowleft,16.666,665,347,60,3,1,24,15,25,35,FALSE
null,null,psychophysics,124,245089,0.0-3.0-1.59,,key,null,16.666,665,347,,,,,,,,
1542.5,arrowleft,psychophysics,125,246636,0.0-3.0-0.60,,key,arrowleft,16.62396739,665,347,61,3,-1,25,15,25,35,TRUE
null,null,psychophysics,126,247639,0.0-3.0-1.60,,key,null,16.666,665,347,,,,,,,,
1091.8,arrowright,psychophysics,127,248736,0.0-3.0-0.61,,key,arrowright,16.666,665,347,62,3,-1,20,15,25,35,FALSE
null,null,psychophysics,128,249743,0.0-3.0-1.61,,key,null,16.666,665,347,,,,,,,,
900.3999999,arrowright,psychophysics,129,250648,0.0-3.0-0.62,,key,arrowright,16.666,665,347,63,3,1,25,15,25,35,TRUE
null,null,psychophysics,130,251650,0.0-3.0-1.62,,key,null,16.666,665,347,,,,,,,,
889.3000002,arrowleft,psychophysics,131,252543,0.0-3.0-0.63,,key,arrowleft,16.666,665,347,64,3,-1,26,35,25,35,TRUE
null,null,psychophysics,132,253546,0.0-3.0-1.63,,key,null,16.666,665,347,,,,,,,,
672,arrowleft,psychophysics,133,254222,0.0-3.0-0.64,,key,arrowleft,16.666,665,347,65,3,1,20,35,25,35,FALSE
null,null,psychophysics,134,255227,0.0-3.0-1.64,,key,null,16.666,665,347,,,,,,,,
749.9000001,arrowleft,psychophysics,135,255982,0.0-3.0-0.65,,key,arrowleft,16.666,665,347,66,3,1,24,35,25,35,FALSE
null,null,psychophysics,136,256984,0.0-3.0-1.65,,key,null,16.6979322,665,347,,,,,,,,
703.9000001,arrowright,psychophysics,137,257691,0.0-3.0-0.66,,key,arrowright,16.666,665,347,67,3,1,30,35,25,35,TRUE
null,null,psychophysics,138,258695,0.0-3.0-1.66,,key,null,16.666,665,347,,,,,,,,
1591.7,arrowright,psychophysics,139,260291,0.0-3.0-0.67,,key,arrowright,16.666,665,347,68,3,1,24,15,25,35,TRUE
null,null,psychophysics,140,261297,0.0-3.0-1.67,,key,null,16.666,665,347,,,,,,,,
1017.1,arrowleft,psychophysics,141,262319,0.0-3.0-0.68,,key,arrowleft,16.666,665,347,69,3,1,24,15,25,35,FALSE
null,null,psychophysics,142,263322,0.0-3.0-1.68,,key,null,16.666,665,347,,,,,,,,
829.6999998,arrowright,psychophysics,143,264156,0.0-3.0-0.69,,key,arrowright,16.666,665,347,70,3,-1,20,15,25,35,FALSE
null,null,psychophysics,144,265160,0.0-3.0-1.69,,key,null,16.666,665,347,,,,,,,,
754.0999999,arrowright,psychophysics,145,265919,0.0-3.0-0.70,,key,arrowright,16.666,665,347,71,3,1,27,35,25,35,TRUE
null,null,psychophysics,146,266924,0.0-3.0-1.70,,key,null,16.67142373,665,347,,,,,,,,
1841.7,arrowleft,psychophysics,147,268770,0.0-3.0-0.71,,key,arrowleft,16.666,665,347,72,3,-1,25,15,25,35,TRUE
null,null,psychophysics,148,269774,0.0-3.0-1.71,,key,null,16.666,665,347,,,,,,,,
818,arrowleft,psychophysics,149,270596,0.0-3.0-0.72,,key,arrowleft,16.666,665,347,73,3,-1,30,15,25,35,TRUE
null,null,psychophysics,150,271598,0.0-3.0-1.72,,key,null,16.666,665,347,,,,,,,,
834.9000001,arrowright,psychophysics,151,272439,0.0-3.0-0.73,,key,arrowright,16.666,665,347,74,3,-1,24,35,25,35,FALSE
null,null,psychophysics,152,273443,0.0-3.0-1.73,,key,null,16.666,665,347,,,,,,,,
1186.7,arrowright,psychophysics,153,274634,0.0-3.0-0.74,,key,arrowright,16.666,665,347,75,3,-1,24,15,25,35,FALSE
null,null,psychophysics,154,275637,0.0-3.0-1.74,,key,null,16.666,665,347,,,,,,,,
708.3000002,arrowleft,psychophysics,155,276350,0.0-3.0-0.75,,key,arrowleft,16.67964286,665,347,76,3,-1,27,35,25,35,TRUE
null,null,psychophysics,156,277353,0.0-3.0-1.75,,key,null,16.666,665,347,,,,,,,,
1344.4,arrowright,psychophysics,157,278703,0.0-3.0-0.76,,key,arrowright,16.666,665,347,77,3,1,23,35,25,35,TRUE
null,null,psychophysics,158,279710,0.0-3.0-1.76,,key,null,16.666,665,347,,,,,,,,
1387.3,arrowright,psychophysics,159,281101,0.0-3.0-0.77,,key,arrowright,16.666,665,347,78,3,1,26,35,25,35,TRUE
null,null,psychophysics,160,282104,0.0-3.0-1.77,,key,null,16.666,665,347,,,,,,,,
1475.1,arrowright,psychophysics,161,283584,0.0-3.0-0.78,,key,arrowright,16.666,665,347,79,3,1,25,35,25,35,TRUE
null,null,psychophysics,162,284587,0.0-3.0-1.78,,key,null,16.666,665,347,,,,,,,,
721.5,arrowright,psychophysics,163,285318,0.0-3.0-0.79,,key,arrowright,16.666,665,347,80,3,1,30,15,25,35,TRUE
null,null,psychophysics,164,286321,0.0-3.0-1.79,,key,null,16.66767797,665,347,,,,,,,,
1099.4,arrowright,psychophysics,165,287425,0.0-3.0-0.80,,key,arrowright,16.666,665,347,81,3,-1,25,35,25,35,FALSE
null,null,psychophysics,166,288428,0.0-3.0-1.80,,key,null,16.666,665,347,,,,,,,,
1440,arrowright,psychophysics,167,289872,0.0-3.0-0.81,,key,arrowright,16.666,665,347,82,3,1,25,35,25,35,TRUE
null,null,psychophysics,168,290875,0.0-3.0-1.81,,key,null,16.666,665,347,,,,,,,,
829.5999999,arrowright,psychophysics,169,291714,0.0-3.0-0.82,,key,arrowright,16.666,665,347,83,3,-1,25,35,25,35,FALSE
null,null,psychophysics,170,292723,0.0-3.0-1.82,,key,null,16.666,665,347,,,,,,,,
806,arrowright,psychophysics,171,293534,0.0-3.0-0.83,,key,arrowright,16.666,665,347,84,4,1,24,35,25,35,TRUE
null,null,psychophysics,172,294537,0.0-3.0-1.83,,key,null,16.666,665,347,,,,,,,,
4263.9,arrowright,html-keyboard-response,173,298803,0.0-3.0-2.83-0.83,"<div style=""color: white; text-align: center; vertical-align: top; display: inline-block; width: 800px; margin: auto""><p>You have completed 30% of the trials. You are on block 4 of 10. <br>Good job! Take a break if you need to.</p><p>Press any key to continue the experiment.</p></div>",,,,,,,,,,,,,
1182.2,arrowright,psychophysics,174,301003,0.0-3.0-0.84,,key,arrowright,16.6728169,665,347,85,4,1,24,35,25,35,TRUE
null,null,psychophysics,175,302006,0.0-3.0-1.84,,key,null,16.666,665,347,,,,,,,,
704.9000001,arrowleft,psychophysics,176,302716,0.0-3.0-0.85,,key,arrowleft,16.666,665,347,86,4,-1,27,15,25,35,TRUE
null,null,psychophysics,177,303718,0.0-3.0-1.85,,key,null,16.666,665,347,,,,,,,,
585.2,arrowright,psychophysics,178,304319,0.0-3.0-0.86,,key,arrowright,16.666,665,347,87,4,1,30,15,25,35,TRUE
null,null,psychophysics,179,305326,0.0-3.0-1.86,,key,null,16.666,665,347,,,,,,,,
1084.5,arrowright,psychophysics,180,306414,0.0-3.0-0.87,,key,arrowright,16.666,665,347,88,4,-1,25,35,25,35,FALSE
null,null,psychophysics,181,307417,0.0-3.0-1.87,,key,null,16.666,665,347,,,,,,,,
692.3,arrowright,psychophysics,182,308114,0.0-3.0-0.88,,key,arrowright,16.666,665,347,89,4,1,25,35,25,35,TRUE
null,null,psychophysics,183,309118,0.0-3.0-1.88,,key,null,16.632,665,347,,,,,,,,
725.4000001,arrowleft,psychophysics,184,309848,0.0-3.0-0.89,,key,arrowleft,16.666,665,347,90,4,-1,30,35,25,35,TRUE
null,null,psychophysics,185,310856,0.0-3.0-1.89,,key,null,16.666,665,347,,,,,,,,
787.0999999,arrowright,psychophysics,186,311648,0.0-3.0-0.90,,key,arrowright,16.666,665,347,91,4,1,26,15,25,35,TRUE
null,null,psychophysics,187,312651,0.0-3.0-1.90,,key,null,16.666,665,347,,,,,,,,
724.6000001,arrowleft,psychophysics,188,313381,0.0-3.0-0.91,,key,arrowleft,16.666,665,347,92,4,-1,27,35,25,35,TRUE
null,null,psychophysics,189,314384,0.0-3.0-1.91,,key,null,16.666,665,347,,,,,,,,
754.3,arrowleft,psychophysics,190,315144,0.0-3.0-0.92,,key,arrowleft,16.666,665,347,93,4,-1,26,15,25,35,TRUE
null,null,psychophysics,191,316147,0.0-3.0-1.92,,key,null,16.666,665,347,,,,,,,,
659,arrowleft,psychophysics,192,316827,0.0-3.0-0.93,,key,arrowleft,16.666,665,347,94,4,-1,30,15,25,35,TRUE
null,null,psychophysics,193,317830,0.0-3.0-1.93,,key,null,16.666,665,347,,,,,,,,
666.3999999,arrowright,psychophysics,194,318500,0.0-3.0-0.94,,key,arrowright,16.666,665,347,95,4,1,27,35,25,35,TRUE
null,null,psychophysics,195,319506,0.0-3.0-1.94,,key,null,16.66921667,665,347,,,,,,,,
649.2,arrowleft,psychophysics,196,320160,0.0-3.0-0.95,,key,arrowleft,16.666,665,347,96,4,-1,26,15,25,35,TRUE
null,null,psychophysics,197,321162,0.0-3.0-1.95,,key,null,16.666,665,347,,,,,,,,
981.2,arrowleft,psychophysics,198,322147,0.0-3.0-0.96,,key,arrowleft,16.666,665,347,97,4,-1,25,15,25,35,TRUE
null,null,psychophysics,199,323156,0.0-3.0-1.96,,key,null,16.666,665,347,,,,,,,,
724.5,arrowleft,psychophysics,200,323885,0.0-3.0-0.97,,key,arrowleft,16.666,665,347,98,4,1,20,35,25,35,FALSE
null,null,psychophysics,201,324889,0.0-3.0-1.97,,key,null,16.666,665,347,,,,,,,,
736.0999999,arrowright,psychophysics,202,325630,0.0-3.0-0.98,,key,arrowright,16.666,665,347,99,4,1,30,15,25,35,TRUE
null,null,psychophysics,203,326634,0.0-3.0-1.98,,key,null,16.666,665,347,,,,,,,,
914.6000001,arrowright,psychophysics,204,327553,0.0-3.0-0.99,,key,arrowright,16.666,665,347,100,4,1,26,35,25,35,TRUE
null,null,psychophysics,205,328557,0.0-3.0-1.99,,key,null,16.666,665,347,,,,,,,,
1628.3,arrowleft,psychophysics,206,330194,0.0-3.0-0.100,,key,arrowleft,16.67020619,665,347,101,4,1,25,15,25,35,FALSE
null,null,psychophysics,207,331196,0.0-3.0-1.100,,key,null,16.666,665,347,,,,,,,,
763.8,arrowleft,psychophysics,208,331963,0.0-3.0-0.101,,key,arrowleft,16.666,665,347,102,4,-1,26,15,25,35,TRUE
null,null,psychophysics,209,332967,0.0-3.0-1.101,,key,null,16.666,665,347,,,,,,,,
574.2,arrowleft,psychophysics,210,333546,0.0-3.0-0.102,,key,arrowleft,16.666,665,347,103,4,-1,30,35,25,35,TRUE
null,null,psychophysics,211,334550,0.0-3.0-1.102,,key,null,16.666,665,347,,,,,,,,
505.5,arrowleft,psychophysics,212,335060,0.0-3.0-0.103,,key,arrowleft,16.666,665,347,104,4,1,20,15,25,35,FALSE
null,null,psychophysics,213,336063,0.0-3.0-1.103,,key,null,16.666,665,347,,,,,,,,
636.9000001,arrowright,psychophysics,214,336714,0.0-3.0-0.104,,key,arrowright,16.666,665,347,105,4,-1,20,35,25,35,FALSE
null,null,psychophysics,215,337717,0.0-3.0-1.104,,key,null,16.666,665,347,,,,,,,,
823.8999999,arrowright,psychophysics,216,338546,0.0-3.0-0.105,,key,arrowright,16.666,665,347,106,4,1,24,15,25,35,TRUE
null,null,psychophysics,217,339549,0.0-3.0-1.105,,key,null,16.66994915,665,347,,,,,,,,
809.5999999,arrowright,psychophysics,218,340366,0.0-3.0-0.106,,key,arrowright,16.666,665,347,107,4,-1,24,35,25,35,FALSE
null,null,psychophysics,219,341368,0.0-3.0-1.106,,key,null,16.666,665,347,,,,,,,,
660.9000001,arrowleft,psychophysics,220,342034,0.0-3.0-0.107,,key,arrowleft,16.666,665,347,108,4,-1,24,15,25,35,TRUE
null,null,psychophysics,221,343042,0.0-3.0-1.107,,key,null,16.666,665,347,,,,,,,,
1502.9,arrowright,psychophysics,222,344548,0.0-3.0-0.108,,key,arrowright,16.666,665,347,109,4,-1,23,35,25,35,FALSE
null,null,psychophysics,223,345550,0.0-3.0-1.108,,key,null,16.666,665,347,,,,,,,,
769.9000001,arrowright,psychophysics,224,346325,0.0-3.0-0.109,,key,arrowright,16.666,665,347,110,4,-1,26,35,25,35,FALSE
null,null,psychophysics,225,347328,0.0-3.0-1.109,,key,null,16.666,665,347,,,,,,,,
781.8000002,arrowright,psychophysics,226,348113,0.0-3.0-0.110,,key,arrowright,16.666,665,347,111,4,1,30,15,25,35,TRUE
null,null,psychophysics,227,349121,0.0-3.0-1.110,,key,null,16.66573333,665,347,,,,,,,,
686.8,arrowleft,psychophysics,228,349812,0.0-3.0-0.111,,key,arrowleft,16.666,665,347,112,5,-1,26,15,25,35,TRUE
null,null,psychophysics,229,350816,0.0-3.0-1.111,,key,null,16.666,665,347,,,,,,,,
7515.7,arrowright,html-keyboard-response,230,358334,0.0-3.0-2.111-0.111,"<div style=""color: white; text-align: center; vertical-align: top; display: inline-block; width: 800px; margin: auto""><p>You have completed 40% of the trials. You are on block 5 of 10. <br>Good job! Take a break if you need to.</p><p>Press any key to continue the experiment.</p></div>",,,,,,,,,,,,,
992.5,arrowright,psychophysics,231,360342,0.0-3.0-0.112,,key,arrowright,16.60328333,665,347,113,5,1,26,35,25,35,TRUE
null,null,psychophysics,232,361348,0.0-3.0-1.112,,key,null,16.666,665,347,,,,,,,,
670.0999999,arrowleft,psychophysics,233,362023,0.0-3.0-0.113,,key,arrowleft,16.666,665,347,114,5,-1,27,35,25,35,TRUE
null,null,psychophysics,234,363027,0.0-3.0-1.113,,key,null,16.666,665,347,,,,,,,,
758.7,arrowleft,psychophysics,235,363790,0.0-3.0-0.114,,key,arrowleft,16.666,665,347,115,5,-1,27,15,25,35,TRUE
null,null,psychophysics,236,364795,0.0-3.0-1.114,,key,null,16.666,665,347,,,,,,,,
499.3,arrowleft,psychophysics,237,365309,0.0-3.0-0.115,,key,arrowleft,16.666,665,347,116,5,-1,27,35,25,35,TRUE
null,null,psychophysics,238,366312,0.0-3.0-1.115,,key,null,16.666,665,347,,,,,,,,
586.2,arrowleft,psychophysics,239,366902,0.0-3.0-0.116,,key,arrowleft,16.666,665,347,117,5,-1,30,15,25,35,TRUE
null,null,psychophysics,240,367905,0.0-3.0-1.116,,key,null,16.666,665,347,,,,,,,,
629,arrowright,psychophysics,241,368537,0.0-3.0-0.117,,key,arrowright,16.666,665,347,118,5,-1,24,15,25,35,FALSE
null,null,psychophysics,242,369540,0.0-3.0-1.117,,key,null,16.66715254,665,347,,,,,,,,
813.8,arrowright,psychophysics,243,370357,0.0-3.0-0.118,,key,arrowright,16.666,665,347,119,5,-1,23,35,25,35,FALSE
null,null,psychophysics,244,371361,0.0-3.0-1.118,,key,null,16.666,665,347,,,,,,,,
580.8,arrowright,psychophysics,245,371957,0.0-3.0-0.119,,key,arrowright,16.666,665,347,120,5,1,25,35,25,35,TRUE
null,null,psychophysics,246,372961,0.0-3.0-1.119,,key,null,16.666,665,347,,,,,,,,
523.6000001,arrowright,psychophysics,247,373489,0.0-3.0-0.120,,key,arrowright,16.666,665,347,121,5,-1,25,35,25,35,FALSE
null,null,psychophysics,248,374493,0.0-3.0-1.120,,key,null,16.666,665,347,,,,,,,,
772.3,arrowleft,psychophysics,249,375270,0.0-3.0-0.121,,key,arrowleft,16.666,665,347,122,5,-1,27,15,25,35,TRUE
null,null,psychophysics,250,376272,0.0-3.0-1.121,,key,null,16.666,665,347,,,,,,,,
880.3999999,arrowleft,psychophysics,251,377156,0.0-3.0-0.122,,key,arrowleft,16.666,665,347,123,5,1,20,35,25,35,FALSE
null,null,psychophysics,252,378164,0.0-3.0-1.122,,key,null,16.666,665,347,,,,,,,,
970.4000001,arrowright,psychophysics,253,379139,0.0-3.0-0.123,,key,arrowright,16.666,665,347,124,5,1,24,15,25,35,TRUE
null,null,psychophysics,254,380143,0.0-3.0-1.123,,key,null,16.66942373,665,347,,,,,,,,
1625.1,arrowright,psychophysics,255,381773,0.0-3.0-0.124,,key,arrowright,16.666,665,347,125,5,1,23,15,25,35,TRUE
null,null,psychophysics,256,382777,0.0-3.0-1.124,,key,null,16.666,665,347,,,,,,,,
957.8,arrowright,psychophysics,257,383740,0.0-3.0-0.125,,key,arrowright,16.666,665,347,126,5,1,20,15,25,35,TRUE
null,null,psychophysics,258,384748,0.0-3.0-1.125,,key,null,16.666,665,347,,,,,,,,
819.5,arrowright,psychophysics,259,385572,0.0-3.0-0.126,,key,arrowright,16.666,665,347,127,5,-1,20,35,25,35,FALSE
null,null,psychophysics,260,386574,0.0-3.0-1.126,,key,null,16.666,665,347,,,,,,,,
1759.9,arrowright,psychophysics,261,388339,0.0-3.0-0.127,,key,arrowright,16.666,665,347,128,5,-1,20,15,25,35,FALSE
null,null,psychophysics,262,389343,0.0-3.0-1.127,,key,null,16.666,665,347,,,,,,,,
971.3999999,arrowleft,psychophysics,263,390319,0.0-3.0-0.128,,key,arrowleft,16.67063793,665,347,129,5,1,23,35,25,35,FALSE
null,null,psychophysics,264,391327,0.0-3.0-1.128,,key,null,16.666,665,347,,,,,,,,
1390.5,arrowleft,psychophysics,265,392722,0.0-3.0-0.129,,key,arrowleft,16.666,665,347,130,5,1,20,15,25,35,FALSE
null,null,psychophysics,266,393726,0.0-3.0-1.129,,key,null,16.666,665,347,,,,,,,,
1237.2,arrowleft,psychophysics,267,394969,0.0-3.0-0.130,,key,arrowleft,16.666,665,347,131,5,-1,30,35,25,35,TRUE
null,null,psychophysics,268,395973,0.0-3.0-1.130,,key,null,16.666,665,347,,,,,,,,
994.5,arrowleft,psychophysics,269,396972,0.0-3.0-0.131,,key,arrowleft,16.666,665,347,132,5,-1,27,15,25,35,TRUE
null,null,psychophysics,270,397980,0.0-3.0-1.131,,key,null,16.666,665,347,,,,,,,,
1703.9,arrowleft,psychophysics,271,399690,0.0-3.0-0.132,,key,arrowleft,16.6699901,665,347,133,5,-1,23,15,25,35,TRUE
null,null,psychophysics,272,400694,0.0-3.0-1.132,,key,null,16.666,665,347,,,,,,,,
1435.7,arrowleft,psychophysics,273,402135,0.0-3.0-0.133,,key,arrowleft,16.666,665,347,134,5,1,24,15,25,35,FALSE
null,null,psychophysics,274,403137,0.0-3.0-1.133,,key,null,16.666,665,347,,,,,,,,
2523.7,arrowright,psychophysics,275,405671,0.0-3.0-0.134,,key,arrowright,16.666,665,347,135,5,-1,24,15,25,35,FALSE
null,null,psychophysics,276,406673,0.0-3.0-1.134,,key,null,16.666,665,347,,,,,,,,
1192.7,arrowright,psychophysics,277,407871,0.0-3.0-0.135,,key,arrowright,16.666,665,347,136,5,-1,23,15,25,35,FALSE
null,null,psychophysics,278,408874,0.0-3.0-1.135,,key,null,16.666,665,347,,,,,,,,
681.3999999,arrowright,psychophysics,279,409571,0.0-3.0-0.136,,key,arrowright,16.666,665,347,137,5,1,30,15,25,35,TRUE
null,null,psychophysics,280,410574,0.0-3.0-1.136,,key,null,16.666,665,347,,,,,,,,
676.8,arrowleft,psychophysics,281,411256,0.0-3.0-0.137,,key,arrowleft,16.666,665,347,138,5,1,23,15,25,35,FALSE
null,null,psychophysics,282,412260,0.0-3.0-1.137,,key,null,16.666,665,347,,,,,,,,
1005.9,arrowleft,psychophysics,283,413271,0.0-3.0-0.138,,key,arrowleft,16.666,665,347,139,5,-1,23,15,25,35,TRUE
null,null,psychophysics,284,414274,0.0-3.0-1.138,,key,null,16.666,665,347,,,,,,,,
908.5,arrowleft,psychophysics,285,415188,0.0-3.0-0.139,,key,arrowleft,16.666,665,347,140,6,1,27,15,25,35,FALSE
null,null,psychophysics,286,416196,0.0-3.0-1.139,,key,null,16.666,665,347,,,,,,,,
5174.1,arrowright,html-keyboard-response,287,421373,0.0-3.0-2.139-0.139,"<div style=""color: white; text-align: center; vertical-align: top; display: inline-block; width: 800px; margin: auto""><p>You have completed 50% of the trials. You are on block 6 of 10. <br>Good job! Take a break if you need to.</p><p>Press any key to continue the experiment.</p></div>",,,,,,,,,,,,,
1369.5,arrowleft,psychophysics,288,423760,0.0-3.0-0.140,,key,arrowleft,16.66829268,665,347,141,6,1,25,15,25,35,FALSE
null,null,psychophysics,289,424763,0.0-3.0-1.140,,key,null,16.666,665,347,,,,,,,,
1371.2,arrowleft,psychophysics,290,426139,0.0-3.0-0.141,,key,arrowleft,16.666,665,347,142,6,1,24,15,25,35,FALSE
null,null,psychophysics,291,427141,0.0-3.0-1.141,,key,null,16.666,665,347,,,,,,,,
491.5,arrowleft,psychophysics,292,427648,0.0-3.0-0.142,,key,arrowleft,16.666,665,347,143,6,1,20,15,25,35,FALSE
null,null,psychophysics,293,428650,0.0-3.0-1.142,,key,null,16.666,665,347,,,,,,,,
781.8999999,arrowleft,psychophysics,294,429436,0.0-3.0-0.143,,key,arrowleft,16.666,665,347,144,6,1,26,15,25,35,FALSE
null,null,psychophysics,295,430439,0.0-3.0-1.143,,key,null,16.666,665,347,,,,,,,,
972.5,arrowleft,psychophysics,296,431419,0.0-3.0-0.144,,key,arrowleft,16.666,665,347,145,6,1,24,35,25,35,FALSE
null,null,psychophysics,297,432423,0.0-3.0-1.144,,key,null,16.66149153,665,347,,,,,,,,
1357.5,arrowleft,psychophysics,298,433786,0.0-3.0-0.145,,key,arrowleft,16.666,665,347,146,6,-1,27,15,25,35,TRUE
null,null,psychophysics,299,434797,0.0-3.0-1.145,,key,null,16.666,665,347,,,,,,,,
2514.8,arrowleft,psychophysics,300,437315,0.0-3.0-0.146,,key,arrowleft,16.666,665,347,147,6,-1,25,15,25,35,TRUE
null,null,psychophysics,301,438317,0.0-3.0-1.146,,key,null,16.666,665,347,,,,,,,,
865,arrowright,psychophysics,302,439186,0.0-3.0-0.147,,key,arrowright,16.666,665,347,148,6,-1,23,15,25,35,FALSE
null,null,psychophysics,303,440189,0.0-3.0-1.147,,key,null,16.666,665,347,,,,,,,,
899.5,arrowleft,psychophysics,304,441105,0.0-3.0-0.148,,key,arrowleft,16.666,665,347,149,6,-1,24,35,25,35,TRUE
null,null,psychophysics,305,442108,0.0-3.0-1.148,,key,null,16.67245763,665,347,,,,,,,,
907.3,arrowleft,psychophysics,306,443020,0.0-3.0-0.149,,key,arrowleft,16.666,665,347,150,6,1,20,35,25,35,FALSE
null,null,psychophysics,307,444023,0.0-3.0-1.149,,key,null,16.666,665,347,,,,,,,,
1234.4,arrowright,psychophysics,308,445269,0.0-3.0-0.150,,key,arrowright,16.666,665,347,151,6,1,26,35,25,35,TRUE
null,null,psychophysics,309,446273,0.0-3.0-1.150,,key,null,16.666,665,347,,,,,,,,
1197.8,arrowright,psychophysics,310,447486,0.0-3.0-0.151,,key,arrowright,16.666,665,347,152,6,-1,23,15,25,35,FALSE
null,null,psychophysics,311,448489,0.0-3.0-1.151,,key,null,16.666,665,347,,,,,,,,
1208,arrowright,psychophysics,312,449702,0.0-3.0-0.152,,key,arrowright,16.666,665,347,153,6,-1,27,35,25,35,FALSE
null,null,psychophysics,313,450706,0.0-3.0-1.152,,key,null,16.666,665,347,,,,,,,,
724.8999999,arrowright,psychophysics,314,451435,0.0-3.0-0.153,,key,arrowright,16.666,665,347,154,6,1,23,15,25,35,TRUE
null,null,psychophysics,315,452439,0.0-3.0-1.153,,key,null,16.6639661,665,347,,,,,,,,
743.5,arrowleft,psychophysics,316,453198,0.0-3.0-0.154,,key,arrowleft,16.666,665,347,155,6,-1,30,35,25,35,TRUE
null,null,psychophysics,317,454201,0.0-3.0-1.154,,key,null,16.666,665,347,,,,,,,,
569.2,arrowleft,psychophysics,318,454775,0.0-3.0-0.155,,key,arrowleft,16.666,665,347,156,6,-1,30,35,25,35,TRUE
null,null,psychophysics,319,455777,0.0-3.0-1.155,,key,null,16.666,665,347,,,,,,,,
1853.4,arrowleft,psychophysics,320,457635,0.0-3.0-0.156,,key,arrowleft,16.666,665,347,157,6,-1,27,15,25,35,TRUE
null,null,psychophysics,321,458638,0.0-3.0-1.156,,key,null,16.666,665,347,,,,,,,,
614.3999999,arrowright,psychophysics,322,459268,0.0-3.0-0.157,,key,arrowright,16.666,665,347,158,6,-1,20,35,25,35,FALSE
null,null,psychophysics,323,460272,0.0-3.0-1.157,,key,null,16.666,665,347,,,,,,,,
975,arrowleft,psychophysics,324,461251,0.0-3.0-0.158,,key,arrowleft,16.666,665,347,159,6,1,20,35,25,35,FALSE
null,null,psychophysics,325,462255,0.0-3.0-1.158,,key,null,16.67272881,665,347,,,,,,,,
657.1999998,arrowright,psychophysics,326,462917,0.0-3.0-0.159,,key,arrowright,16.666,665,347,160,6,1,30,35,25,35,TRUE
null,null,psychophysics,327,463920,0.0-3.0-1.159,,key,null,16.666,665,347,,,,,,,,
1138.5,arrowleft,psychophysics,328,465066,0.0-3.0-0.160,,key,arrowleft,16.666,665,347,161,6,-1,25,35,25,35,TRUE
null,null,psychophysics,329,466078,0.0-3.0-1.160,,key,null,16.666,665,347,,,,,,,,
718.1999998,arrowright,psychophysics,330,466800,0.0-3.0-0.161,,key,arrowright,16.666,665,347,162,6,1,26,15,25,35,TRUE
null,null,psychophysics,331,467805,0.0-3.0-1.161,,key,null,16.666,665,347,,,,,,,,
1004.2,arrowright,psychophysics,332,468814,0.0-3.0-0.162,,key,arrowright,16.666,665,347,163,6,-1,24,35,25,35,FALSE
null,null,psychophysics,333,469816,0.0-3.0-1.162,,key,null,16.666,665,347,,,,,,,,
880.8999999,arrowright,psychophysics,334,470700,0.0-3.0-0.163,,key,arrowright,16.666,665,347,164,6,1,20,15,25,35,TRUE
null,null,psychophysics,335,471704,0.0-3.0-1.163,,key,null,16.67169492,665,347,,,,,,,,
663.5,arrowleft,psychophysics,336,472383,0.0-3.0-0.164,,key,arrowleft,16.666,665,347,165,6,-1,30,15,25,35,TRUE
null,null,psychophysics,337,473387,0.0-3.0-1.164,,key,null,16.666,665,347,,,,,,,,
625.5,arrowright,psychophysics,338,474017,0.0-3.0-0.165,,key,arrowright,16.666,665,347,166,6,-1,25,35,25,35,FALSE
null,null,psychophysics,339,475019,0.0-3.0-1.165,,key,null,16.666,665,347,,,,,,,,
692.5,arrowleft,psychophysics,340,475717,0.0-3.0-0.166,,key,arrowleft,16.666,665,347,167,6,-1,30,35,25,35,TRUE
null,null,psychophysics,341,476719,0.0-3.0-1.166,,key,null,16.666,665,347,,,,,,,,
612.2,arrowleft,psychophysics,342,477336,0.0-3.0-0.167,,key,arrowleft,16.666,665,347,168,7,-1,26,35,25,35,TRUE
null,null,psychophysics,343,478345,0.0-3.0-1.167,,key,null,16.666,665,347,,,,,,,,
6477.3,arrowright,html-keyboard-response,344,484831,0.0-3.0-2.167-0.167,"<div style=""color: white; text-align: center; vertical-align: top; display: inline-block; width: 800px; margin: auto""><p>You have completed 60% of the trials. You are on block 7 of 10. <br>Good job! Take a break if you need to.</p><p>Press any key to continue the experiment.</p></div>",,,,,,,,,,,,,
1598.7,arrowright,psychophysics,345,487449,0.0-3.0-0.168,,key,arrowright,16.66982292,665,347,169,7,-1,26,35,25,35,FALSE
null,null,psychophysics,346,488452,0.0-3.0-1.168,,key,null,16.666,665,347,,,,,,,,
974,arrowleft,psychophysics,347,489434,0.0-3.0-0.169,,key,arrowleft,16.666,665,347,170,7,-1,27,35,25,35,TRUE
null,null,psychophysics,348,490436,0.0-3.0-1.169,,key,null,16.666,665,347,,,,,,,,
646.8,arrowright,psychophysics,349,491092,0.0-3.0-0.170,,key,arrowright,16.666,665,347,171,7,1,27,15,25,35,TRUE
null,null,psychophysics,350,492101,0.0-3.0-1.170,,key,null,16.666,665,347,,,,,,,,
540.9000001,arrowright,psychophysics,351,492650,0.0-3.0-0.171,,key,arrowright,16.666,665,347,172,7,1,30,15,25,35,TRUE
null,null,psychophysics,352,493653,0.0-3.0-1.171,,key,null,16.666,665,347,,,,,,,,
521.6000001,arrowleft,psychophysics,353,494183,0.0-3.0-0.172,,key,arrowleft,16.666,665,347,173,7,-1,24,15,25,35,TRUE
null,null,psychophysics,354,495186,0.0-3.0-1.172,,key,null,16.69169492,665,347,,,,,,,,
576.8000002,arrowleft,psychophysics,355,495768,0.0-3.0-0.173,,key,arrowleft,16.666,665,347,174,7,-1,30,15,25,35,TRUE
null,null,psychophysics,356,496772,0.0-3.0-1.173,,key,null,16.666,665,347,,,,,,,,
558.2,arrowright,psychophysics,357,497345,0.0-3.0-0.174,,key,arrowright,16.666,665,347,175,7,1,26,35,25,35,TRUE
null,null,psychophysics,358,498348,0.0-3.0-1.174,,key,null,16.666,665,347,,,,,,,,
594.2,arrowleft,psychophysics,359,498946,0.0-3.0-0.175,,key,arrowleft,16.666,665,347,176,7,1,20,35,25,35,FALSE
null,null,psychophysics,360,499947,0.0-3.0-1.175,,key,null,16.666,665,347,,,,,,,,
666.4000001,arrowleft,psychophysics,361,500617,0.0-3.0-0.176,,key,arrowleft,16.666,665,347,177,7,-1,30,35,25,35,TRUE
null,null,psychophysics,362,501619,0.0-3.0-1.176,,key,null,16.666,665,347,,,,,,,,
592,arrowright,psychophysics,363,502217,0.0-3.0-0.177,,key,arrowright,16.666,665,347,178,7,1,24,35,25,35,TRUE
null,null,psychophysics,364,503220,0.0-3.0-1.177,,key,null,16.666,665,347,,,,,,,,
612.8,arrowright,psychophysics,365,503847,0.0-3.0-0.178,,key,arrowright,16.666,665,347,179,7,1,30,35,25,35,TRUE
null,null,psychophysics,366,504849,0.0-3.0-1.178,,key,null,16.666,665,347,,,,,,,,
662,arrowleft,psychophysics,367,505515,0.0-3.0-0.179,,key,arrowleft,16.637,665,347,180,7,1,24,35,25,35,FALSE
null,null,psychophysics,368,506519,0.0-3.0-1.179,,key,null,16.666,665,347,,,,,,,,
792.1000001,arrowright,psychophysics,369,507315,0.0-3.0-0.180,,key,arrowright,16.666,665,347,181,7,1,26,35,25,35,TRUE
null,null,psychophysics,370,508318,0.0-3.0-1.180,,key,null,16.666,665,347,,,,,,,,
639.8,arrowright,psychophysics,371,508962,0.0-3.0-0.181,,key,arrowright,16.666,665,347,182,7,1,27,35,25,35,TRUE
null,null,psychophysics,372,509964,0.0-3.0-1.181,,key,null,16.666,665,347,,,,,,,,
890.9000001,arrowright,psychophysics,373,510869,0.0-3.0-0.182,,key,arrowright,16.666,665,347,183,7,-1,26,35,25,35,FALSE
null,null,psychophysics,374,511871,0.0-3.0-1.182,,key,null,16.666,665,347,,,,,,,,
2470.7,arrowright,psychophysics,375,514346,0.0-3.0-0.183,,key,arrowright,16.666,665,347,184,7,1,20,15,25,35,TRUE
null,null,psychophysics,376,515349,0.0-3.0-1.183,,key,null,16.66245763,665,347,,,,,,,,
1787.1,arrowleft,psychophysics,377,517141,0.0-3.0-0.184,,key,arrowleft,16.666,665,347,185,7,-1,24,15,25,35,TRUE
null,null,psychophysics,378,518151,0.0-3.0-1.184,,key,null,16.666,665,347,,,,,,,,
789.3999999,arrowright,psychophysics,379,518946,0.0-3.0-0.185,,key,arrowright,16.666,665,347,186,7,-1,24,35,25,35,FALSE
null,null,psychophysics,380,519949,0.0-3.0-1.185,,key,null,16.666,665,347,,,,,,,,
643,arrowright,psychophysics,381,520597,0.0-3.0-0.186,,key,arrowright,16.666,665,347,187,7,1,26,15,25,35,TRUE
null,null,psychophysics,382,521600,0.0-3.0-1.186,,key,null,16.666,665,347,,,,,,,,
791.5,arrowright,psychophysics,383,522396,0.0-3.0-0.187,,key,arrowright,16.666,665,347,188,7,1,26,15,25,35,TRUE
null,null,psychophysics,384,523398,0.0-3.0-1.187,,key,null,16.666,665,347,,,,,,,,
1028,arrowleft,psychophysics,385,524429,0.0-3.0-0.188,,key,arrowleft,16.666,665,347,189,7,-1,27,35,25,35,TRUE
null,null,psychophysics,386,525439,0.0-3.0-1.188,,key,null,16.66561667,665,347,,,,,,,,
826.0999999,arrowright,psychophysics,387,526269,0.0-3.0-0.189,,key,arrowright,16.666,665,347,190,7,1,27,15,25,35,TRUE
null,null,psychophysics,388,527271,0.0-3.0-1.189,,key,null,16.666,665,347,,,,,,,,
729.8,arrowright,psychophysics,389,528004,0.0-3.0-0.190,,key,arrowright,16.666,665,347,191,7,-1,20,35,25,35,FALSE
null,null,psychophysics,390,529007,0.0-3.0-1.190,,key,null,16.666,665,347,,,,,,,,
1110,arrowleft,psychophysics,391,530122,0.0-3.0-0.191,,key,arrowleft,16.666,665,347,192,7,-1,26,35,25,35,TRUE
null,null,psychophysics,392,531131,0.0-3.0-1.191,,key,null,16.666,665,347,,,,,,,,
1121.3,arrowright,psychophysics,393,532258,0.0-3.0-0.192,,key,arrowright,16.666,665,347,193,7,1,27,15,25,35,TRUE
null,null,psychophysics,394,533260,0.0-3.0-1.192,,key,null,16.666,665,347,,,,,,,,
631.5,arrowright,psychophysics,395,533895,0.0-3.0-0.193,,key,arrowright,16.666,665,347,194,7,-1,23,35,25,35,FALSE
null,null,psychophysics,396,534898,0.0-3.0-1.193,,key,null,16.666,665,347,,,,,,,,
496.6000001,arrowright,psychophysics,397,535398,0.0-3.0-0.194,,key,arrowright,16.59906897,665,347,195,7,1,26,35,25,35,TRUE
null,null,psychophysics,398,536401,0.0-3.0-1.194,,key,null,16.666,665,347,,,,,,,,
516.7,arrowright,psychophysics,399,536929,0.0-3.0-0.195,,key,arrowright,16.666,665,347,196,8,-1,20,35,25,35,FALSE
null,null,psychophysics,400,537935,0.0-3.0-1.195,,key,null,16.666,665,347,,,,,,,,
6004.8,arrowright,html-keyboard-response,401,543942,0.0-3.0-2.195-0.195,"<div style=""color: white; text-align: center; vertical-align: top; display: inline-block; width: 800px; margin: auto""><p>You have completed 70% of the trials. You are on block 8 of 10. <br>Good job! Take a break if you need to.</p><p>Press any key to continue the experiment.</p></div>",,,,,,,,,,,,,
690.8999999,arrowright,psychophysics,402,545653,0.0-3.0-0.196,,key,arrowright,16.57940476,665,347,197,8,1,23,35,25,35,TRUE
null,null,psychophysics,403,546656,0.0-3.0-1.196,,key,null,16.666,665,347,,,,,,,,
1175.8,arrowleft,psychophysics,404,547837,0.0-3.0-0.197,,key,arrowleft,16.666,665,347,198,8,1,25,15,25,35,FALSE
null,null,psychophysics,405,548839,0.0-3.0-1.197,,key,null,16.666,665,347,,,,,,,,
967.1000001,arrowright,psychophysics,406,549811,0.0-3.0-0.198,,key,arrowright,16.666,665,347,199,8,-1,23,15,25,35,FALSE
null,null,psychophysics,407,550812,0.0-3.0-1.198,,key,null,16.666,665,347,,,,,,,,
679.2,arrowright,psychophysics,408,551503,0.0-3.0-0.199,,key,arrowright,16.666,665,347,200,8,-1,23,35,25,35,FALSE
null,null,psychophysics,409,552507,0.0-3.0-1.199,,key,null,16.666,665,347,,,,,,,,
678.7,arrowleft,psychophysics,410,553190,0.0-3.0-0.200,,key,arrowleft,16.666,665,347,201,8,-1,25,15,25,35,TRUE
null,null,psychophysics,411,554193,0.0-3.0-1.200,,key,null,16.666,665,347,,,,,,,,
756.3,arrowleft,psychophysics,412,554965,0.0-3.0-0.201,,key,arrowleft,16.666,665,347,202,8,-1,23,15,25,35,TRUE
null,null,psychophysics,413,555966,0.0-3.0-1.201,,key,null,16.60955932,665,347,,,,,,,,
638,arrowright,psychophysics,414,556608,0.0-3.0-0.202,,key,arrowright,16.666,665,347,203,8,-1,26,35,25,35,FALSE
null,null,psychophysics,415,557618,0.0-3.0-1.202,,key,null,16.666,665,347,,,,,,,,
743.4000001,arrowright,psychophysics,416,558365,0.0-3.0-0.203,,key,arrowright,16.666,665,347,204,8,1,26,15,25,35,TRUE
null,null,psychophysics,417,559367,0.0-3.0-1.203,,key,null,16.666,665,347,,,,,,,,
639.1999998,arrowright,psychophysics,418,560010,0.0-3.0-0.204,,key,arrowright,16.666,665,347,205,8,-1,23,35,25,35,FALSE
null,null,psychophysics,419,561012,0.0-3.0-1.204,,key,null,16.666,665,347,,,,,,,,
597.0999999,arrowright,psychophysics,420,561614,0.0-3.0-0.205,,key,arrowright,16.666,665,347,206,8,1,27,15,25,35,TRUE
null,null,psychophysics,421,562617,0.0-3.0-1.205,,key,null,16.666,665,347,,,,,,,,
628.7,arrowleft,psychophysics,422,563260,0.0-3.0-0.206,,key,arrowleft,16.666,665,347,207,8,-1,26,15,25,35,TRUE
null,null,psychophysics,423,564262,0.0-3.0-1.206,,key,null,16.666,665,347,,,,,,,,
434.7,arrowright,psychophysics,424,564701,0.0-3.0-0.207,,key,arrowright,16.666,665,347,208,8,1,23,15,25,35,TRUE
null,null,psychophysics,425,565704,0.0-3.0-1.207,,key,null,16.63994915,665,347,,,,,,,,
655.4000001,arrowleft,psychophysics,426,566365,0.0-3.0-0.208,,key,arrowleft,16.666,665,347,209,8,-1,26,35,25,35,TRUE
null,null,psychophysics,427,567366,0.0-3.0-1.208,,key,null,16.666,665,347,,,,,,,,
611.2,arrowright,psychophysics,428,567982,0.0-3.0-0.209,,key,arrowright,16.666,665,347,210,8,1,25,35,25,35,TRUE
null,null,psychophysics,429,568984,0.0-3.0-1.209,,key,null,16.666,665,347,,,,,,,,
697.6000001,arrowright,psychophysics,430,569699,0.0-3.0-0.210,,key,arrowright,16.666,665,347,211,8,1,20,15,25,35,TRUE
null,null,psychophysics,431,570701,0.0-3.0-1.210,,key,null,16.666,665,347,,,,,,,,
1156.9,arrowleft,psychophysics,432,571863,0.0-3.0-0.211,,key,arrowleft,16.666,665,347,212,8,-1,27,35,25,35,TRUE
null,null,psychophysics,433,572866,0.0-3.0-1.211,,key,null,16.666,665,347,,,,,,,,
1160.5,arrowleft,psychophysics,434,574031,0.0-3.0-0.212,,key,arrowleft,16.666,665,347,213,8,1,23,15,25,35,FALSE
null,null,psychophysics,435,575033,0.0-3.0-1.212,,key,null,16.666,665,347,,,,,,,,
1401.9,arrowright,psychophysics,436,576452,0.0-3.0-0.213,,key,arrowright,16.66590476,665,347,214,8,1,25,35,25,35,TRUE
null,null,psychophysics,437,577456,0.0-3.0-1.213,,key,null,16.666,665,347,,,,,,,,
554.5999999,arrowright,psychophysics,438,578015,0.0-3.0-0.214,,key,arrowright,16.666,665,347,215,8,1,27,35,25,35,TRUE
null,null,psychophysics,439,579019,0.0-3.0-1.214,,key,null,16.666,665,347,,,,,,,,
841.8,arrowleft,psychophysics,440,579865,0.0-3.0-0.215,,key,arrowleft,16.666,665,347,216,8,-1,24,15,25,35,TRUE
null,null,psychophysics,441,580870,0.0-3.0-1.215,,key,null,16.666,665,347,,,,,,,,
745.3,arrowright,psychophysics,442,581632,0.0-3.0-0.216,,key,arrowright,16.666,665,347,217,8,1,27,15,25,35,TRUE
null,null,psychophysics,443,582636,0.0-3.0-1.216,,key,null,16.666,665,347,,,,,,,,
956.8,arrowright,psychophysics,444,583597,0.0-3.0-0.217,,key,arrowright,16.666,665,347,218,8,1,25,35,25,35,TRUE
null,null,psychophysics,445,584599,0.0-3.0-1.217,,key,null,16.666,665,347,,,,,,,,
689.9000001,arrowright,psychophysics,446,585294,0.0-3.0-0.218,,key,arrowright,16.68404878,665,347,219,8,-1,20,35,25,35,FALSE
null,null,psychophysics,447,586296,0.0-3.0-1.218,,key,null,16.666,665,347,,,,,,,,
716.3,arrowleft,psychophysics,448,587016,0.0-3.0-0.219,,key,arrowleft,16.666,665,347,220,8,-1,26,15,25,35,TRUE
null,null,psychophysics,449,588025,0.0-3.0-1.219,,key,null,16.666,665,347,,,,,,,,
782.0999999,arrowleft,psychophysics,450,588811,0.0-3.0-0.220,,key,arrowleft,16.666,665,347,221,8,-1,20,15,25,35,TRUE
null,null,psychophysics,451,589814,0.0-3.0-1.220,,key,null,16.666,665,347,,,,,,,,
1045.7,arrowright,psychophysics,452,590864,0.0-3.0-0.221,,key,arrowright,16.666,665,347,222,8,-1,25,35,25,35,FALSE
null,null,psychophysics,453,591868,0.0-3.0-1.221,,key,null,16.666,665,347,,,,,,,,
725.9000001,arrowright,psychophysics,454,592598,0.0-3.0-0.222,,key,arrowright,16.666,665,347,223,8,1,23,15,25,35,TRUE
null,null,psychophysics,455,593602,0.0-3.0-1.222,,key,null,16.666,665,347,,,,,,,,
873.3999999,arrowleft,psychophysics,456,594493,0.0-3.0-0.223,,key,arrowleft,16.666,665,347,224,9,-1,30,35,25,35,TRUE
null,null,psychophysics,457,595496,0.0-3.0-1.223,,key,null,16.66462712,665,347,,,,,,,,
4995.3,arrowright,html-keyboard-response,458,600493,0.0-3.0-2.223-0.223,"<div style=""color: white; text-align: center; vertical-align: top; display: inline-block; width: 800px; margin: auto""><p>You have completed 80% of the trials. You are on block 9 of 10. <br>Good job! Take a break if you need to.</p><p>Press any key to continue the experiment.</p></div>",,,,,,,,,,,,,
1076.1,arrowleft,psychophysics,459,602591,0.0-3.0-0.224,,key,arrowleft,16.666,665,347,225,9,-1,30,15,25,35,TRUE
null,null,psychophysics,460,603594,0.0-3.0-1.224,,key,null,16.666,665,347,,,,,,,,
534.9000001,arrowright,psychophysics,461,604132,0.0-3.0-0.225,,key,arrowright,16.666,665,347,226,9,1,30,35,25,35,TRUE
null,null,psychophysics,462,605135,0.0-3.0-1.225,,key,null,16.666,665,347,,,,,,,,
767.2,arrowleft,psychophysics,463,605910,0.0-3.0-0.226,,key,arrowleft,16.59521739,665,347,227,9,1,23,35,25,35,FALSE
null,null,psychophysics,464,606913,0.0-3.0-1.226,,key,null,16.666,665,347,,,,,,,,
729.9000001,arrowleft,psychophysics,465,607660,0.0-3.0-0.227,,key,arrowleft,16.666,665,347,228,9,1,23,35,25,35,FALSE
null,null,psychophysics,466,608662,0.0-3.0-1.227,,key,null,16.666,665,347,,,,,,,,
610.3999999,arrowright,psychophysics,467,609277,0.0-3.0-0.228,,key,arrowright,16.666,665,347,229,9,-1,20,15,25,35,FALSE
null,null,psychophysics,468,610282,0.0-3.0-1.228,,key,null,16.666,665,347,,,,,,,,
1356.6,arrowright,psychophysics,469,611647,0.0-3.0-0.229,,key,arrowright,16.666,665,347,230,9,1,25,15,25,35,TRUE
null,null,psychophysics,470,612651,0.0-3.0-1.229,,key,null,16.666,665,347,,,,,,,,
650.3000002,arrowright,psychophysics,471,613305,0.0-3.0-0.230,,key,arrowright,16.666,665,347,231,9,-1,20,35,25,35,FALSE
null,null,psychophysics,472,614317,0.0-3.0-1.230,,key,null,16.666,665,347,,,,,,,,
551,arrowright,psychophysics,473,614873,0.0-3.0-0.231,,key,arrowright,16.666,665,347,232,9,1,30,35,25,35,TRUE
null,null,psychophysics,474,615876,0.0-3.0-1.231,,key,null,16.62194915,665,347,,,,,,,,
818,arrowleft,psychophysics,475,616703,0.0-3.0-0.232,,key,arrowleft,16.666,665,347,233,9,-1,23,15,25,35,TRUE
null,null,psychophysics,476,617715,0.0-3.0-1.232,,key,null,16.666,665,347,,,,,,,,
841.5999999,arrowright,psychophysics,477,618561,0.0-3.0-0.233,,key,arrowright,16.666,665,347,234,9,1,20,15,25,35,TRUE
null,null,psychophysics,478,619564,0.0-3.0-1.233,,key,null,16.666,665,347,,,,,,,,
944.2,arrowleft,psychophysics,479,620523,0.0-3.0-0.234,,key,arrowleft,16.666,665,347,235,9,1,23,35,25,35,FALSE
null,null,psychophysics,480,621525,0.0-3.0-1.234,,key,null,16.666,665,347,,,,,,,,
588.5,arrowright,psychophysics,481,622116,0.0-3.0-0.235,,key,arrowright,16.666,665,347,236,9,-1,23,35,25,35,FALSE
null,null,psychophysics,482,623118,0.0-3.0-1.235,,key,null,16.666,665,347,,,,,,,,
981.4000001,arrowright,psychophysics,483,624103,0.0-3.0-0.236,,key,arrowright,16.666,665,347,237,9,1,24,15,25,35,TRUE
null,null,psychophysics,484,625105,0.0-3.0-1.236,,key,null,16.666,665,347,,,,,,,,
492.2,arrowright,psychophysics,485,625603,0.0-3.0-0.237,,key,arrowright,16.70868966,665,347,238,9,1,26,15,25,35,TRUE
null,null,psychophysics,486,626612,0.0-3.0-1.237,,key,null,16.666,665,347,,,,,,,,
700.9000001,arrowright,psychophysics,487,627321,0.0-3.0-0.238,,key,arrowright,16.666,665,347,239,9,1,27,15,25,35,TRUE
null,null,psychophysics,488,628322,0.0-3.0-1.238,,key,null,16.666,665,347,,,,,,,,
596,arrowright,psychophysics,489,628922,0.0-3.0-0.239,,key,arrowright,16.666,665,347,240,9,1,27,35,25,35,TRUE
null,null,psychophysics,490,629924,0.0-3.0-1.239,,key,null,16.666,665,347,,,,,,,,
1169.7,arrowleft,psychophysics,491,631098,0.0-3.0-0.240,,key,arrowleft,16.666,665,347,241,9,-1,20,15,25,35,TRUE
null,null,psychophysics,492,632100,0.0-3.0-1.240,,key,null,16.666,665,347,,,,,,,,
562.7,arrowright,psychophysics,493,632677,0.0-3.0-0.241,,key,arrowright,16.666,665,347,242,9,-1,23,35,25,35,FALSE
null,null,psychophysics,494,633680,0.0-3.0-1.241,,key,null,16.666,665,347,,,,,,,,
801.3,arrowright,psychophysics,495,634486,0.0-3.0-0.242,,key,arrowright,16.666,665,347,243,9,-1,25,35,25,35,FALSE
null,null,psychophysics,496,635489,0.0-3.0-1.242,,key,null,16.63811864,665,347,,,,,,,,
460.2,arrowright,psychophysics,497,635954,0.0-3.0-0.243,,key,arrowright,16.666,665,347,244,9,-1,20,35,25,35,FALSE
null,null,psychophysics,498,636956,0.0-3.0-1.243,,key,null,16.666,665,347,,,,,,,,
975.3,arrowleft,psychophysics,499,637936,0.0-3.0-0.244,,key,arrowleft,16.666,665,347,245,9,-1,25,35,25,35,TRUE
null,null,psychophysics,500,638940,0.0-3.0-1.244,,key,null,16.666,665,347,,,,,,,,
607.3999999,arrowright,psychophysics,501,639565,0.0-3.0-0.245,,key,arrowright,16.666,665,347,246,9,-1,24,35,25,35,FALSE
null,null,psychophysics,502,640567,0.0-3.0-1.245,,key,null,16.666,665,347,,,,,,,,
766.9000001,arrowright,psychophysics,503,641337,0.0-3.0-0.246,,key,arrowright,16.666,665,347,247,9,1,23,15,25,35,TRUE
null,null,psychophysics,504,642339,0.0-3.0-1.246,,key,null,16.666,665,347,,,,,,,,
939.0999999,arrowleft,psychophysics,505,643283,0.0-3.0-0.247,,key,arrowleft,16.666,665,347,248,9,-1,27,15,25,35,TRUE
null,null,psychophysics,506,644285,0.0-3.0-1.247,,key,null,16.666,665,347,,,,,,,,
819.3999999,arrowright,psychophysics,507,645108,0.0-3.0-0.248,,key,arrowright,16.666,665,347,249,9,1,27,35,25,35,TRUE
null,null,psychophysics,508,646121,0.0-3.0-1.248,,key,null,16.5829,665,347,,,,,,,,
603.1000001,arrowleft,psychophysics,509,646732,0.0-3.0-0.249,,key,arrowleft,16.666,665,347,250,9,-1,30,15,25,35,TRUE
null,null,psychophysics,510,647733,0.0-3.0-1.249,,key,null,16.666,665,347,,,,,,,,
673.8,arrowleft,psychophysics,511,648412,0.0-3.0-0.250,,key,arrowleft,16.666,665,347,251,9,1,20,35,25,35,FALSE
null,null,psychophysics,512,649416,0.0-3.0-1.250,,key,null,16.666,665,347,,,,,,,,
773.4000001,arrowleft,psychophysics,513,650194,0.0-3.0-0.251,,key,arrowleft,16.666,665,347,252,10,1,26,35,25,35,FALSE
null,null,psychophysics,514,651197,0.0-3.0-1.251,,key,null,16.666,665,347,,,,,,,,
6729.9,arrowright,html-keyboard-response,515,657939,0.0-3.0-2.251-0.251,"<div style=""color: white; text-align: center; vertical-align: top; display: inline-block; width: 800px; margin: auto""><p>You have completed 90% of the trials. You are on block 10 of 10. <br>Good job! Take a break if you need to.</p><p>Press any key to continue the experiment.</p></div>",,,,,,,,,,,,,
1479.4,arrowright,psychophysics,516,660430,0.0-3.0-0.252,,key,arrowright,16.6748764,665,347,253,10,-1,24,35,25,35,FALSE
null,null,psychophysics,517,661442,0.0-3.0-1.252,,key,null,16.666,665,347,,,,,,,,
717.8,arrowright,psychophysics,518,662164,0.0-3.0-0.253,,key,arrowright,16.666,665,347,254,10,-1,24,35,25,35,FALSE
null,null,psychophysics,519,663167,0.0-3.0-1.253,,key,null,16.666,665,347,,,,,,,,
1695.8,arrowright,psychophysics,520,664869,0.0-3.0-0.254,,key,arrowright,16.666,665,347,255,10,1,27,15,25,35,TRUE
null,null,psychophysics,521,665870,0.0-3.0-1.254,,key,null,16.666,665,347,,,,,,,,
572.2,arrowleft,psychophysics,522,666447,0.0-3.0-0.255,,key,arrowleft,16.666,665,347,256,10,-1,30,35,25,35,TRUE
null,null,psychophysics,523,667458,0.0-3.0-1.255,,key,null,16.666,665,347,,,,,,,,
686.7,arrowleft,psychophysics,524,668149,0.0-3.0-0.256,,key,arrowleft,16.6471,665,347,257,10,-1,24,15,25,35,TRUE
null,null,psychophysics,525,669153,0.0-3.0-1.256,,key,null,16.666,665,347,,,,,,,,
1001.5,arrowleft,psychophysics,526,670164,0.0-3.0-0.257,,key,arrowleft,16.666,665,347,258,10,1,24,35,25,35,FALSE
null,null,psychophysics,527,671168,0.0-3.0-1.257,,key,null,16.666,665,347,,,,,,,,
637.5,arrowleft,psychophysics,528,671810,0.0-3.0-0.258,,key,arrowleft,16.666,665,347,259,10,1,25,35,25,35,FALSE
null,null,psychophysics,529,672811,0.0-3.0-1.258,,key,null,16.666,665,347,,,,,,,,
721,arrowleft,psychophysics,530,673548,0.0-3.0-0.259,,key,arrowleft,16.666,665,347,260,10,1,27,35,25,35,FALSE
null,null,psychophysics,531,674551,0.0-3.0-1.259,,key,null,16.666,665,347,,,,,,,,
1071.1,arrowleft,psychophysics,532,675626,0.0-3.0-0.260,,key,arrowleft,16.666,665,347,261,10,1,24,35,25,35,FALSE
null,null,psychophysics,533,676629,0.0-3.0-1.260,,key,null,16.666,665,347,,,,,,,,
496.6000001,arrowleft,psychophysics,534,677129,0.0-3.0-0.261,,key,arrowleft,16.666,665,347,262,10,1,27,35,25,35,FALSE
null,null,psychophysics,535,678133,0.0-3.0-1.261,,key,null,16.66949153,665,347,,,,,,,,
701.5,arrowright,psychophysics,536,678844,0.0-3.0-0.262,,key,arrowright,16.666,665,347,263,10,1,27,15,25,35,TRUE
null,null,psychophysics,537,679847,0.0-3.0-1.262,,key,null,16.666,665,347,,,,,,,,
679.6999998,arrowright,psychophysics,538,680546,0.0-3.0-0.263,,key,arrowright,16.666,665,347,264,10,1,25,15,25,35,TRUE
null,null,psychophysics,539,681550,0.0-3.0-1.263,,key,null,16.666,665,347,,,,,,,,
674.3,arrowleft,psychophysics,540,682229,0.0-3.0-0.264,,key,arrowleft,16.666,665,347,265,10,-1,24,15,25,35,TRUE
null,null,psychophysics,541,683233,0.0-3.0-1.264,,key,null,16.666,665,347,,,,,,,,
1474.5,arrowleft,psychophysics,542,684712,0.0-3.0-0.265,,key,arrowleft,16.666,665,347,266,10,1,24,35,25,35,FALSE
null,null,psychophysics,543,685715,0.0-3.0-1.265,,key,null,16.666,665,347,,,,,,,,
944.1000001,arrowright,psychophysics,544,686679,0.0-3.0-0.266,,key,arrowright,16.666,665,347,267,10,-1,20,35,25,35,FALSE
null,null,psychophysics,545,687684,0.0-3.0-1.266,,key,null,16.666,665,347,,,,,,,,
584.8,arrowleft,psychophysics,546,688279,0.0-3.0-0.267,,key,arrowleft,16.67074286,665,347,268,10,-1,30,15,25,35,TRUE
null,null,psychophysics,547,689284,0.0-3.0-1.267,,key,null,16.666,665,347,,,,,,,,
673.7,arrowleft,psychophysics,548,689963,0.0-3.0-0.268,,key,arrowleft,16.666,665,347,269,10,-1,25,15,25,35,TRUE
null,null,psychophysics,549,690967,0.0-3.0-1.268,,key,null,16.666,665,347,,,,,,,,
731.5,arrowleft,psychophysics,550,691712,0.0-3.0-0.269,,key,arrowleft,16.666,665,347,270,10,-1,25,15,25,35,TRUE
null,null,psychophysics,551,692715,0.0-3.0-1.269,,key,null,16.666,665,347,,,,,,,,
690,arrowleft,psychophysics,552,693425,0.0-3.0-0.270,,key,arrowleft,16.666,665,347,271,10,-1,27,35,25,35,TRUE
null,null,psychophysics,553,694427,0.0-3.0-1.270,,key,null,16.666,665,347,,,,,,,,
793.8,arrowleft,psychophysics,554,695226,0.0-3.0-0.271,,key,arrowleft,16.666,665,347,272,10,-1,26,15,25,35,TRUE
null,null,psychophysics,555,696229,0.0-3.0-1.271,,key,null,16.666,665,347,,,,,,,,
608,arrowleft,psychophysics,556,696842,0.0-3.0-0.272,,key,arrowleft,16.666,665,347,273,10,-1,25,15,25,35,TRUE
null,null,psychophysics,557,697844,0.0-3.0-1.272,,key,null,16.666,665,347,,,,,,,,
518.3,arrowleft,psychophysics,558,698367,0.0-3.0-0.273,,key,arrowleft,16.6754,665,347,274,10,-1,24,15,25,35,TRUE
null,null,psychophysics,559,699371,0.0-3.0-1.273,,key,null,16.666,665,347,,,,,,,,
828.3,arrowright,psychophysics,560,700214,0.0-3.0-0.274,,key,arrowright,16.666,665,347,275,10,-1,20,35,25,35,FALSE
null,null,psychophysics,561,701217,0.0-3.0-1.274,,key,null,16.666,665,347,,,,,,,,
653,arrowleft,psychophysics,562,701874,0.0-3.0-0.275,,key,arrowleft,16.666,665,347,276,10,-1,27,35,25,35,TRUE
null,null,psychophysics,563,702876,0.0-3.0-1.275,,key,null,16.666,665,347,,,,,,,,
727,arrowright,psychophysics,564,703607,0.0-3.0-0.276,,key,arrowright,16.666,665,347,277,10,1,26,15,25,35,TRUE
null,null,psychophysics,565,704610,0.0-3.0-1.276,,key,null,16.666,665,347,,,,,,,,
963.9000001,arrowright,psychophysics,566,705578,0.0-3.0-0.277,,key,arrowright,16.666,665,347,278,10,1,27,35,25,35,TRUE
null,null,psychophysics,567,706589,0.0-3.0-1.277,,key,null,16.666,665,347,,,,,,,,
768.5,arrowleft,psychophysics,568,707361,0.0-3.0-0.278,,key,arrowleft,16.666,665,347,279,10,1,20,35,25,35,FALSE
null,null,psychophysics,569,708365,0.0-3.0-1.278,,key,null,16.67198305,665,347,,,,,,,,
1854.1,arrowright,psychophysics,570,710224,0.0-3.0-0.279,,key,arrowright,16.666,665,347,280,11,1,30,35,25,35,TRUE
null,null,psychophysics,571,711227,0.0-3.0-1.279,,key,null,16.666,665,347,,,,,,,,