run_id,condition,rt,response,trial_type,trial_index,time_elapsed,internal_node_id,stimulus,response_type,key_press,avg_frame_time,center_x,center_y,trial,block,test_pos,test_inner_radius,test_outer_radius,ref_inner_radius,ref_outer_radius,test_bigger,recorded_at,ip,user_agent,device,browser,browser_version,platform,platform_version,source_code_version
9,1,19955,"{""p_id"":""8491"",""age"":""23"",""handedness"":""right"",""sex"":""female"",""other_sex"":""}",survey-html-form,0,19959,0.0-0.0,"""","""","""","""","""","""","""","""","""","""","""","""","""","""","2021-09-28 21:35:36",24.212.174.218,"Mozilla/5.0 (Macintosh; Intel Mac OS X 10_15_6) AppleWebKit/605.1.15 (KHTML, like Gecko) Version/13.1.2 Safari/605.1.15",Macintosh,Safari,13.1.2,"OS X",10_15_6,fe3c1d035a65c549f7011c5446f73ede
9,1,17659," ",html-keyboard-response,1,37626,0.0-1.0,"<p style=""color: white"">Welcome to the Size Judgment Experiment. <br>There will be 10 blocks in this experiment. <br>There will be 28 trials in each block. <br>You will be given a chance to take a break between blocks. <br>Press any key to start the experiment.</p>","""","""","""","""","""","""","""","""","""","""","""","""","""","2021-09-28 21:35:36",24.212.174.218,"Mozilla/5.0 (Macintosh; Intel Mac OS X 10_15_6) AppleWebKit/605.1.15 (KHTML, like Gecko) Version/13.1.2 Safari/605.1.15",Macintosh,Safari,13.1.2,"OS X",10_15_6,fe3c1d035a65c549f7011c5446f73ede
9,1,48574," ",psychophysics,2,86208,0.0-2.0,"""",key," ",16.71394148020654,840,493.5,"""","""","""","""","""","""","""","""","2021-09-28 21:35:36",24.212.174.218,"Mozilla/5.0 (Macintosh; Intel Mac OS X 10_15_6) AppleWebKit/605.1.15 (KHTML, like Gecko) Version/13.1.2 Safari/605.1.15",Macintosh,Safari,13.1.2,"OS X",10_15_6,fe3c1d035a65c549f7011c5446f73ede
9,1,11630,arrowleft,psychophysics,3,97849,0.0-3.0-0.0,"""",key,arrowleft,16.811866859623734,840,493.5,1,1,1,20,35,25,35,false,"2021-09-28 21:35:36",24.212.174.218,"Mozilla/5.0 (Macintosh; Intel Mac OS X 10_15_6) AppleWebKit/605.1.15 (KHTML, like Gecko) Version/13.1.2 Safari/605.1.15",Macintosh,Safari,13.1.2,"OS X",10_15_6,fe3c1d035a65c549f7011c5446f73ede
9,1,null,null,psychophysics,4,98853,0.0-3.0-1.0,"""",key,null,16.661016949152543,840,493.5,"""","""","""","""","""","""","""","""","2021-09-28 21:35:36",24.212.174.218,"Mozilla/5.0 (Macintosh; Intel Mac OS X 10_15_6) AppleWebKit/605.1.15 (KHTML, like Gecko) Version/13.1.2 Safari/605.1.15",Macintosh,Safari,13.1.2,"OS X",10_15_6,fe3c1d035a65c549f7011c5446f73ede
9,1,3820.9999999999854,arrowright,psychophysics,5,102682,0.0-3.0-0.1,"""",key,arrowright,16.633187772925766,840,493.5,2,1,-1,20,15,25,35,false,"2021-09-28 21:35:36",24.212.174.218,"Mozilla/5.0 (Macintosh; Intel Mac OS X 10_15_6) AppleWebKit/605.1.15 (KHTML, like Gecko) Version/13.1.2 Safari/605.1.15",Macintosh,Safari,13.1.2,"OS X",10_15_6,fe3c1d035a65c549f7011c5446f73ede
9,1,null,null,psychophysics,6,103686,0.0-3.0-1.1,"""",key,null,16.627118644067796,840,493.5,"""","""","""","""","""","""","""","""","2021-09-28 21:35:36",24.212.174.218,"Mozilla/5.0 (Macintosh; Intel Mac OS X 10_15_6) AppleWebKit/605.1.15 (KHTML, like Gecko) Version/13.1.2 Safari/605.1.15",Macintosh,Safari,13.1.2,"OS X",10_15_6,fe3c1d035a65c549f7011c5446f73ede
9,1,1865,arrowleft,psychophysics,7,105571,0.0-3.0-0.2,"""",key,arrowleft,16.61946902654867,840,493.5,3,1,1,25,35,25,35,false,"2021-09-28 21:35:36",24.212.174.218,"Mozilla/5.0 (Macintosh; Intel Mac OS X 10_15_6) AppleWebKit/605.1.15 (KHTML, like Gecko) Version/13.1.2 Safari/605.1.15",Macintosh,Safari,13.1.2,"OS X",10_15_6,fe3c1d035a65c549f7011c5446f73ede
9,1,null,null,psychophysics,8,106576,0.0-3.0-1.2,"""",key,null,16.677966101694917,840,493.5,"""","""","""","""","""","""","""","""","2021-09-28 21:35:36",24.212.174.218,"Mozilla/5.0 (Macintosh; Intel Mac OS X 10_15_6) AppleWebKit/605.1.15 (KHTML, like Gecko) Version/13.1.2 Safari/605.1.15",Macintosh,Safari,13.1.2,"OS X",10_15_6,fe3c1d035a65c549f7011c5446f73ede
9,1,8978,arrowright,psychophysics,9,115560,0.0-3.0-0.3,"""",key,arrowright,16.66728624535316,840,493.5,4,1,1,25,35,25,35,true,"2021-09-28 21:35:36",24.212.174.218,"Mozilla/5.0 (Macintosh; Intel Mac OS X 10_15_6) AppleWebKit/605.1.15 (KHTML, like Gecko) Version/13.1.2 Safari/605.1.15",Macintosh,Safari,13.1.2,"OS X",10_15_6,fe3c1d035a65c549f7011c5446f73ede
9,1,null,null,psychophysics,10,116570,0.0-3.0-1.3,"""",key,null,16.661016949152543,840,493.5,"""","""","""","""","""","""","""","""","2021-09-28 21:35:36",24.212.174.218,"Mozilla/5.0 (Macintosh; Intel Mac OS X 10_15_6) AppleWebKit/605.1.15 (KHTML, like Gecko) Version/13.1.2 Safari/605.1.15",Macintosh,Safari,13.1.2,"OS X",10_15_6,fe3c1d035a65c549f7011c5446f73ede
9,1,4581,arrowright,psychophysics,11,121172,0.0-3.0-0.4,"""",key,arrowright,16.644927536231883,840,493.5,5,1,-1,23,15,25,35,false,"2021-09-28 21:35:36",24.212.174.218,"Mozilla/5.0 (Macintosh; Intel Mac OS X 10_15_6) AppleWebKit/605.1.15 (KHTML, like Gecko) Version/13.1.2 Safari/605.1.15",Macintosh,Safari,13.1.2,"OS X",10_15_6,fe3c1d035a65c549f7011c5446f73ede
9,1,null,null,psychophysics,12,122177,0.0-3.0-1.4,"""",key,null,16.661016949152543,840,493.5,"""","""","""","""","""","""","""","""","2021-09-28 21:35:36",24.212.174.218,"Mozilla/5.0 (Macintosh; Intel Mac OS X 10_15_6) AppleWebKit/605.1.15 (KHTML, like Gecko) Version/13.1.2 Safari/605.1.15",Macintosh,Safari,13.1.2,"OS X",10_15_6,fe3c1d035a65c549f7011c5446f73ede
9,1,3842,arrowleft,psychophysics,13,126024,0.0-3.0-0.5,"""",key,arrowleft,16.669565217391305,840,493.5,6,1,1,24,15,25,35,false,"2021-09-28 21:35:36",24.212.174.218,"Mozilla/5.0 (Macintosh; Intel Mac OS X 10_15_6) AppleWebKit/605.1.15 (KHTML, like Gecko) Version/13.1.2 Safari/605.1.15",Macintosh,Safari,13.1.2,"OS X",10_15_6,fe3c1d035a65c549f7011c5446f73ede
9,1,null,null,psychophysics,14,127026,0.0-3.0-1.5,"""",key,null,16.661016949152543,840,493.5,"""","""","""","""","""","""","""","""","2021-09-28 21:35:36",24.212.174.218,"Mozilla/5.0 (Macintosh; Intel Mac OS X 10_15_6) AppleWebKit/605.1.15 (KHTML, like Gecko) Version/13.1.2 Safari/605.1.15",Macintosh,Safari,13.1.2,"OS X",10_15_6,fe3c1d035a65c549f7011c5446f73ede
9,1,1463,arrowleft,psychophysics,15,128495,0.0-3.0-0.6,"""",key,arrowleft,16.666666666666668,840,493.5,7,1,-1,26,35,25,35,true,"2021-09-28 21:35:36",24.212.174.218,"Mozilla/5.0 (Macintosh; Intel Mac OS X 10_15_6) AppleWebKit/605.1.15 (KHTML, like Gecko) Version/13.1.2 Safari/605.1.15",Macintosh,Safari,13.1.2,"OS X",10_15_6,fe3c1d035a65c549f7011c5446f73ede
9,1,null,null,psychophysics,16,129497,0.0-3.0-1.6,"""",key,null,16.661016949152543,840,493.5,"""","""","""","""","""","""","""","""","2021-09-28 21:35:36",24.212.174.218,"Mozilla/5.0 (Macintosh; Intel Mac OS X 10_15_6) AppleWebKit/605.1.15 (KHTML, like Gecko) Version/13.1.2 Safari/605.1.15",Macintosh,Safari,13.1.2,"OS X",10_15_6,fe3c1d035a65c549f7011c5446f73ede
9,1,1096,arrowleft,psychophysics,17,130599,0.0-3.0-0.7,"""",key,arrowleft,16.676923076923078,840,493.5,8,1,1,24,15,25,35,false,"2021-09-28 21:35:36",24.212.174.218,"Mozilla/5.0 (Macintosh; Intel Mac OS X 10_15_6) AppleWebKit/605.1.15 (KHTML, like Gecko) Version/13.1.2 Safari/605.1.15",Macintosh,Safari,13.1.2,"OS X",10_15_6,fe3c1d035a65c549f7011c5446f73ede
9,1,null,null,psychophysics,18,131602,0.0-3.0-1.7,"""",key,null,16.677966101694917,840,493.5,"""","""","""","""","""","""","""","""","2021-09-28 21:35:36",24.212.174.218,"Mozilla/5.0 (Macintosh; Intel Mac OS X 10_15_6) AppleWebKit/605.1.15 (KHTML, like Gecko) Version/13.1.2 Safari/605.1.15",Macintosh,Safari,13.1.2,"OS X",10_15_6,fe3c1d035a65c549f7011c5446f73ede
9,1,3103,arrowright,psychophysics,19,134724,0.0-3.0-0.8,"""",key,arrowright,16.647058823529413,840,493.5,9,1,1,26,35,25,35,true,"2021-09-28 21:35:36",24.212.174.218,"Mozilla/5.0 (Macintosh; Intel Mac OS X 10_15_6) AppleWebKit/605.1.15 (KHTML, like Gecko) Version/13.1.2 Safari/605.1.15",Macintosh,Safari,13.1.2,"OS X",10_15_6,fe3c1d035a65c549f7011c5446f73ede
9,1,null,null,psychophysics,20,135729,0.0-3.0-1.8,"""",key,null,16.661016949152543,840,493.5,"""","""","""","""","""","""","""","""","2021-09-28 21:35:36",24.212.174.218,"Mozilla/5.0 (Macintosh; Intel Mac OS X 10_15_6) AppleWebKit/605.1.15 (KHTML, like Gecko) Version/13.1.2 Safari/605.1.15",Macintosh,Safari,13.1.2,"OS X",10_15_6,fe3c1d035a65c549f7011c5446f73ede
9,1,1072,arrowright,psychophysics,21,136807,0.0-3.0-0.9,"""",key,arrowright,16.65625,840,493.5,10,1,1,27,35,25,35,true,"2021-09-28 21:35:36",24.212.174.218,"Mozilla/5.0 (Macintosh; Intel Mac OS X 10_15_6) AppleWebKit/605.1.15 (KHTML, like Gecko) Version/13.1.2 Safari/605.1.15",Macintosh,Safari,13.1.2,"OS X",10_15_6,fe3c1d035a65c549f7011c5446f73ede
9,1,null,null,psychophysics,22,137809,0.0-3.0-1.9,"""",key,null,16.661016949152543,840,493.5,"""","""","""","""","""","""","""","""","2021-09-28 21:35:36",24.212.174.218,"Mozilla/5.0 (Macintosh; Intel Mac OS X 10_15_6) AppleWebKit/605.1.15 (KHTML, like Gecko) Version/13.1.2 Safari/605.1.15",Macintosh,Safari,13.1.2,"OS X",10_15_6,fe3c1d035a65c549f7011c5446f73ede
9,1,5479,arrowleft,psychophysics,23,143292,0.0-3.0-0.10,"""",key,arrowleft,16.66768292682927,840,493.5,11,1,-1,25,35,25,35,true,"2021-09-28 21:35:36",24.212.174.218,"Mozilla/5.0 (Macintosh; Intel Mac OS X 10_15_6) AppleWebKit/605.1.15 (KHTML, like Gecko) Version/13.1.2 Safari/605.1.15",Macintosh,Safari,13.1.2,"OS X",10_15_6,fe3c1d035a65c549f7011c5446f73ede
9,1,null,null,psychophysics,24,144296,0.0-3.0-1.10,"""",key,null,16.677966101694917,840,493.5,"""","""","""","""","""","""","""","""","2021-09-28 21:35:36",24.212.174.218,"Mozilla/5.0 (Macintosh; Intel Mac OS X 10_15_6) AppleWebKit/605.1.15 (KHTML, like Gecko) Version/13.1.2 Safari/605.1.15",Macintosh,Safari,13.1.2,"OS X",10_15_6,fe3c1d035a65c549f7011c5446f73ede
9,1,3217,arrowright,psychophysics,25,147518,0.0-3.0-0.11,"""",key,arrowright,16.671875,840,493.5,12,1,1,27,15,25,35,true,"2021-09-28 21:35:36",24.212.174.218,"Mozilla/5.0 (Macintosh; Intel Mac OS X 10_15_6) AppleWebKit/605.1.15 (KHTML, like Gecko) Version/13.1.2 Safari/605.1.15",Macintosh,Safari,13.1.2,"OS X",10_15_6,fe3c1d035a65c549f7011c5446f73ede
9,1,null,null,psychophysics,26,148522,0.0-3.0-1.11,"""",key,null,16.65,840,493.5,"""","""","""","""","""","""","""","""","2021-09-28 21:35:36",24.212.174.218,"Mozilla/5.0 (Macintosh; Intel Mac OS X 10_15_6) AppleWebKit/605.1.15 (KHTML, like Gecko) Version/13.1.2 Safari/605.1.15",Macintosh,Safari,13.1.2,"OS X",10_15_6,fe3c1d035a65c549f7011c5446f73ede
9,1,12539,arrowleft,psychophysics,27,161067,0.0-3.0-0.12,"""",key,arrowleft,16.66577896138482,840,493.5,13,1,1,20,35,25,35,false,"2021-09-28 21:35:36",24.212.174.218,"Mozilla/5.0 (Macintosh; Intel Mac OS X 10_15_6) AppleWebKit/605.1.15 (KHTML, like Gecko) Version/13.1.2 Safari/605.1.15",Macintosh,Safari,13.1.2,"OS X",10_15_6,fe3c1d035a65c549f7011c5446f73ede
9,1,null,null,psychophysics,28,162073,0.0-3.0-1.12,"""",key,null,16.6,840,493.5,"""","""","""","""","""","""","""","""","2021-09-28 21:35:36",24.212.174.218,"Mozilla/5.0 (Macintosh; Intel Mac OS X 10_15_6) AppleWebKit/605.1.15 (KHTML, like Gecko) Version/13.1.2 Safari/605.1.15",Macintosh,Safari,13.1.2,"OS X",10_15_6,fe3c1d035a65c549f7011c5446f73ede
9,1,956,arrowleft,psychophysics,29,163035,0.0-3.0-0.13,"""",key,arrowleft,16.678571428571427,840,493.5,14,1,-1,30,15,25,35,true,"2021-09-28 21:35:36",24.212.174.218,"Mozilla/5.0 (Macintosh; Intel Mac OS X 10_15_6) AppleWebKit/605.1.15 (KHTML, like Gecko) Version/13.1.2 Safari/605.1.15",Macintosh,Safari,13.1.2,"OS X",10_15_6,fe3c1d035a65c549f7011c5446f73ede
9,1,null,null,psychophysics,30,164039,0.0-3.0-1.13,"""",key,null,16.65,840,493.5,"""","""","""","""","""","""","""","""","2021-09-28 21:35:36",24.212.174.218,"Mozilla/5.0 (Macintosh; Intel Mac OS X 10_15_6) AppleWebKit/605.1.15 (KHTML, like Gecko) Version/13.1.2 Safari/605.1.15",Macintosh,Safari,13.1.2,"OS X",10_15_6,fe3c1d035a65c549f7011c5446f73ede
9,1,1078,arrowleft,psychophysics,31,165122,0.0-3.0-0.14,"""",key,arrowleft,16.65625,840,493.5,15,1,-1,20,15,25,35,true,"2021-09-28 21:35:36",24.212.174.218,"Mozilla/5.0 (Macintosh; Intel Mac OS X 10_15_6) AppleWebKit/605.1.15 (KHTML, like Gecko) Version/13.1.2 Safari/605.1.15",Macintosh,Safari,13.1.2,"OS X",10_15_6,fe3c1d035a65c549f7011c5446f73ede
9,1,null,null,psychophysics,32,166125,0.0-3.0-1.14,"""",key,null,16.661016949152543,840,493.5,"""","""","""","""","""","""","""","""","2021-09-28 21:35:36",24.212.174.218,"Mozilla/5.0 (Macintosh; Intel Mac OS X 10_15_6) AppleWebKit/605.1.15 (KHTML, like Gecko) Version/13.1.2 Safari/605.1.15",Macintosh,Safari,13.1.2,"OS X",10_15_6,fe3c1d035a65c549f7011c5446f73ede
9,1,991,arrowleft,psychophysics,33,167123,0.0-3.0-0.15,"""",key,arrowleft,16.661016949152543,840,493.5,16,1,1,20,35,25,35,false,"2021-09-28 21:35:36",24.212.174.218,"Mozilla/5.0 (Macintosh; Intel Mac OS X 10_15_6) AppleWebKit/605.1.15 (KHTML, like Gecko) Version/13.1.2 Safari/605.1.15",Macintosh,Safari,13.1.2,"OS X",10_15_6,fe3c1d035a65c549f7011c5446f73ede
9,1,null,null,psychophysics,34,168129,0.0-3.0-1.15,"""",key,null,16.661016949152543,840,493.5,"""","""","""","""","""","""","""","""","2021-09-28 21:35:36",24.212.174.218,"Mozilla/5.0 (Macintosh; Intel Mac OS X 10_15_6) AppleWebKit/605.1.15 (KHTML, like Gecko) Version/13.1.2 Safari/605.1.15",Macintosh,Safari,13.1.2,"OS X",10_15_6,fe3c1d035a65c549f7011c5446f73ede
9,1,1008,arrowleft,psychophysics,35,169142,0.0-3.0-0.16,"""",key,arrowleft,16.666666666666668,840,493.5,17,1,-1,30,15,25,35,true,"2021-09-28 21:35:36",24.212.174.218,"Mozilla/5.0 (Macintosh; Intel Mac OS X 10_15_6) AppleWebKit/605.1.15 (KHTML, like Gecko) Version/13.1.2 Safari/605.1.15",Macintosh,Safari,13.1.2,"OS X",10_15_6,fe3c1d035a65c549f7011c5446f73ede
9,1,null,null,psychophysics,36,170146,0.0-3.0-1.16,"""",key,null,16.661016949152543,840,493.5,"""","""","""","""","""","""","""","""","2021-09-28 21:35:36",24.212.174.218,"Mozilla/5.0 (Macintosh; Intel Mac OS X 10_15_6) AppleWebKit/605.1.15 (KHTML, like Gecko) Version/13.1.2 Safari/605.1.15",Macintosh,Safari,13.1.2,"OS X",10_15_6,fe3c1d035a65c549f7011c5446f73ede
9,1,1361,arrowleft,psychophysics,37,171514,0.0-3.0-0.17,"""",key,arrowleft,16.679012345679013,840,493.5,18,1,1,20,15,25,35,false,"2021-09-28 21:35:36",24.212.174.218,"Mozilla/5.0 (Macintosh; Intel Mac OS X 10_15_6) AppleWebKit/605.1.15 (KHTML, like Gecko) Version/13.1.2 Safari/605.1.15",Macintosh,Safari,13.1.2,"OS X",10_15_6,fe3c1d035a65c549f7011c5446f73ede
9,1,null,null,psychophysics,38,172516,0.0-3.0-1.17,"""",key,null,16.677966101694917,840,493.5,"""","""","""","""","""","""","""","""","2021-09-28 21:35:36",24.212.174.218,"Mozilla/5.0 (Macintosh; Intel Mac OS X 10_15_6) AppleWebKit/605.1.15 (KHTML, like Gecko) Version/13.1.2 Safari/605.1.15",Macintosh,Safari,13.1.2,"OS X",10_15_6,fe3c1d035a65c549f7011c5446f73ede
9,1,4542,arrowright,psychophysics,39,177074,0.0-3.0-0.18,"""",key,arrowright,16.65934065934066,840,493.5,19,1,-1,24,35,25,35,false,"2021-09-28 21:35:36",24.212.174.218,"Mozilla/5.0 (Macintosh; Intel Mac OS X 10_15_6) AppleWebKit/605.1.15 (KHTML, like Gecko) Version/13.1.2 Safari/605.1.15",Macintosh,Safari,13.1.2,"OS X",10_15_6,fe3c1d035a65c549f7011c5446f73ede
9,1,null,null,psychophysics,40,178076,0.0-3.0-1.18,"""",key,null,16.677966101694917,840,493.5,"""","""","""","""","""","""","""","""","2021-09-28 21:35:36",24.212.174.218,"Mozilla/5.0 (Macintosh; Intel Mac OS X 10_15_6) AppleWebKit/605.1.15 (KHTML, like Gecko) Version/13.1.2 Safari/605.1.15",Macintosh,Safari,13.1.2,"OS X",10_15_6,fe3c1d035a65c549f7011c5446f73ede
9,1,959,arrowright,psychophysics,41,179045,0.0-3.0-0.19,"""",key,arrowright,16.666666666666668,840,493.5,20,1,1,30,35,25,35,true,"2021-09-28 21:35:36",24.212.174.218,"Mozilla/5.0 (Macintosh; Intel Mac OS X 10_15_6) AppleWebKit/605.1.15 (KHTML, like Gecko) Version/13.1.2 Safari/605.1.15",Macintosh,Safari,13.1.2,"OS X",10_15_6,fe3c1d035a65c549f7011c5446f73ede
9,1,null,null,psychophysics,42,180049,0.0-3.0-1.19,"""",key,null,16.677966101694917,840,493.5,"""","""","""","""","""","""","""","""","2021-09-28 21:35:36",24.212.174.218,"Mozilla/5.0 (Macintosh; Intel Mac OS X 10_15_6) AppleWebKit/605.1.15 (KHTML, like Gecko) Version/13.1.2 Safari/605.1.15",Macintosh,Safari,13.1.2,"OS X",10_15_6,fe3c1d035a65c549f7011c5446f73ede
9,1,1324,arrowleft,psychophysics,43,181377,0.0-3.0-0.20,"""",key,arrowleft,16.670886075949365,840,493.5,21,1,-1,27,15,25,35,true,"2021-09-28 21:35:36",24.212.174.218,"Mozilla/5.0 (Macintosh; Intel Mac OS X 10_15_6) AppleWebKit/605.1.15 (KHTML, like Gecko) Version/13.1.2 Safari/605.1.15",Macintosh,Safari,13.1.2,"OS X",10_15_6,fe3c1d035a65c549f7011c5446f73ede
9,1,null,null,psychophysics,44,182379,0.0-3.0-1.20,"""",key,null,16.677966101694917,840,493.5,"""","""","""","""","""","""","""","""","2021-09-28 21:35:36",24.212.174.218,"Mozilla/5.0 (Macintosh; Intel Mac OS X 10_15_6) AppleWebKit/605.1.15 (KHTML, like Gecko) Version/13.1.2 Safari/605.1.15",Macintosh,Safari,13.1.2,"OS X",10_15_6,fe3c1d035a65c549f7011c5446f73ede
9,1,4478,arrowright,psychophysics,45,186863,0.0-3.0-0.21,"""",key,arrowright,16.671641791044777,840,493.5,22,1,1,27,35,25,35,true,"2021-09-28 21:35:36",24.212.174.218,"Mozilla/5.0 (Macintosh; Intel Mac OS X 10_15_6) AppleWebKit/605.1.15 (KHTML, like Gecko) Version/13.1.2 Safari/605.1.15",Macintosh,Safari,13.1.2,"OS X",10_15_6,fe3c1d035a65c549f7011c5446f73ede
9,1,null,null,psychophysics,46,187869,0.0-3.0-1.21,"""",key,null,16.677966101694917,840,493.5,"""","""","""","""","""","""","""","""","2021-09-28 21:35:36",24.212.174.218,"Mozilla/5.0 (Macintosh; Intel Mac OS X 10_15_6) AppleWebKit/605.1.15 (KHTML, like Gecko) Version/13.1.2 Safari/605.1.15",Macintosh,Safari,13.1.2,"OS X",10_15_6,fe3c1d035a65c549f7011c5446f73ede
9,1,2360,arrowright,psychophysics,47,190247,0.0-3.0-0.22,"""",key,arrowright,16.640845070422536,840,493.5,23,1,1,30,15,25,35,true,"2021-09-28 21:35:36",24.212.174.218,"Mozilla/5.0 (Macintosh; Intel Mac OS X 10_15_6) AppleWebKit/605.1.15 (KHTML, like Gecko) Version/13.1.2 Safari/605.1.15",Macintosh,Safari,13.1.2,"OS X",10_15_6,fe3c1d035a65c549f7011c5446f73ede
9,1,null,null,psychophysics,48,191251,0.0-3.0-1.22,"""",key,null,16.661016949152543,840,493.5,"""","""","""","""","""","""","""","""","2021-09-28 21:35:36",24.212.174.218,"Mozilla/5.0 (Macintosh; Intel Mac OS X 10_15_6) AppleWebKit/605.1.15 (KHTML, like Gecko) Version/13.1.2 Safari/605.1.15",Macintosh,Safari,13.1.2,"OS X",10_15_6,fe3c1d035a65c549f7011c5446f73ede
9,1,4499,arrowleft,psychophysics,49,195772,0.0-3.0-0.23,"""",key,arrowleft,16.656826568265682,840,493.5,24,1,-1,26,35,25,35,true,"2021-09-28 21:35:36",24.212.174.218,"Mozilla/5.0 (Macintosh; Intel Mac OS X 10_15_6) AppleWebKit/605.1.15 (KHTML, like Gecko) Version/13.1.2 Safari/605.1.15",Macintosh,Safari,13.1.2,"OS X",10_15_6,fe3c1d035a65c549f7011c5446f73ede
9,1,null,null,psychophysics,50,196784,0.0-3.0-1.23,"""",key,null,16.677966101694917,840,493.5,"""","""","""","""","""","""","""","""","2021-09-28 21:35:36",24.212.174.218,"Mozilla/5.0 (Macintosh; Intel Mac OS X 10_15_6) AppleWebKit/605.1.15 (KHTML, like Gecko) Version/13.1.2 Safari/605.1.15",Macintosh,Safari,13.1.2,"OS X",10_15_6,fe3c1d035a65c549f7011c5446f73ede
9,1,4112,arrowleft,psychophysics,51,200918,0.0-3.0-0.24,"""",key,arrowleft,16.655870445344128,840,493.5,25,1,1,24,35,25,35,false,"2021-09-28 21:35:36",24.212.174.218,"Mozilla/5.0 (Macintosh; Intel Mac OS X 10_15_6) AppleWebKit/605.1.15 (KHTML, like Gecko) Version/13.1.2 Safari/605.1.15",Macintosh,Safari,13.1.2,"OS X",10_15_6,fe3c1d035a65c549f7011c5446f73ede
9,1,null,null,psychophysics,52,201922,0.0-3.0-1.24,"""",key,null,16.633333333333333,840,493.5,"""","""","""","""","""","""","""","""","2021-09-28 21:35:36",24.212.174.218,"Mozilla/5.0 (Macintosh; Intel Mac OS X 10_15_6) AppleWebKit/605.1.15 (KHTML, like Gecko) Version/13.1.2 Safari/605.1.15",Macintosh,Safari,13.1.2,"OS X",10_15_6,fe3c1d035a65c549f7011c5446f73ede
9,1,31099.00000000003,arrowright,psychophysics,53,233032,0.0-3.0-0.25,"""",key,arrowright,16.66702412868633,840,493.5,26,1,-1,23,35,25,35,false,"2021-09-28 21:35:36",24.212.174.218,"Mozilla/5.0 (Macintosh; Intel Mac OS X 10_15_6) AppleWebKit/605.1.15 (KHTML, like Gecko) Version/13.1.2 Safari/605.1.15",Macintosh,Safari,13.1.2,"OS X",10_15_6,fe3c1d035a65c549f7011c5446f73ede
9,1,null,null,psychophysics,54,234036,0.0-3.0-1.25,"""",key,null,16.593220338983052,840,493.5,"""","""","""","""","""","""","""","""","2021-09-28 21:35:36",24.212.174.218,"Mozilla/5.0 (Macintosh; Intel Mac OS X 10_15_6) AppleWebKit/605.1.15 (KHTML, like Gecko) Version/13.1.2 Safari/605.1.15",Macintosh,Safari,13.1.2,"OS X",10_15_6,fe3c1d035a65c549f7011c5446f73ede
9,1,1734,arrowleft,psychophysics,55,235797,0.0-3.0-0.26,"""",key,arrowleft,16.580952380952382,840,493.5,27,1,1,25,35,25,35,false,"2021-09-28 21:35:36",24.212.174.218,"Mozilla/5.0 (Macintosh; Intel Mac OS X 10_15_6) AppleWebKit/605.1.15 (KHTML, like Gecko) Version/13.1.2 Safari/605.1.15",Macintosh,Safari,13.1.2,"OS X",10_15_6,fe3c1d035a65c549f7011c5446f73ede
9,1,null,null,psychophysics,56,236799,0.0-3.0-1.26,"""",key,null,16.677966101694917,840,493.5,"""","""","""","""","""","""","""","""","2021-09-28 21:35:36",24.212.174.218,"Mozilla/5.0 (Macintosh; Intel Mac OS X 10_15_6) AppleWebKit/605.1.15 (KHTML, like Gecko) Version/13.1.2 Safari/605.1.15",Macintosh,Safari,13.1.2,"OS X",10_15_6,fe3c1d035a65c549f7011c5446f73ede
9,1,859,arrowright,psychophysics,57,237677,0.0-3.0-0.27,"""",key,arrowright,16.673076923076923,840,493.5,28,2,1,26,15,25,35,true,"2021-09-28 21:35:36",24.212.174.218,"Mozilla/5.0 (Macintosh; Intel Mac OS X 10_15_6) AppleWebKit/605.1.15 (KHTML, like Gecko) Version/13.1.2 Safari/605.1.15",Macintosh,Safari,13.1.2,"OS X",10_15_6,fe3c1d035a65c549f7011c5446f73ede
9,1,null,null,psychophysics,58,238680,0.0-3.0-1.27,"""",key,null,16.661016949152543,840,493.5,"""","""","""","""","""","""","""","""","2021-09-28 21:35:36",24.212.174.218,"Mozilla/5.0 (Macintosh; Intel Mac OS X 10_15_6) AppleWebKit/605.1.15 (KHTML, like Gecko) Version/13.1.2 Safari/605.1.15",Macintosh,Safari,13.1.2,"OS X",10_15_6,fe3c1d035a65c549f7011c5446f73ede
9,1,13825," ",html-keyboard-response,59,252507,0.0-3.0-2.27-0.27,"<div style=""color: white; text-align: center; vertical-align: top; display: inline-block; width: 800px; margin: auto""><p>You have completed 10% of the trials. You are on block 2 of 10. <br>Good job! Take a break if you need to.</p><p>Press any key to continue the experiment.</p></div>","""","""","""","""","""","""","""","""","""","""","""","""","""","2021-09-28 21:35:36",24.212.174.218,"Mozilla/5.0 (Macintosh; Intel Mac OS X 10_15_6) AppleWebKit/605.1.15 (KHTML, like Gecko) Version/13.1.2 Safari/605.1.15",Macintosh,Safari,13.1.2,"OS X",10_15_6,fe3c1d035a65c549f7011c5446f73ede
9,1,2295,arrowleft,psychophysics,60,255816,0.0-3.0-0.28,"""",key,arrowleft,16.71851851851852,840,493.5,29,2,-1,25,15,25,35,true,"2021-09-28 21:35:36",24.212.174.218,"Mozilla/5.0 (Macintosh; Intel Mac OS X 10_15_6) AppleWebKit/605.1.15 (KHTML, like Gecko) Version/13.1.2 Safari/605.1.15",Macintosh,Safari,13.1.2,"OS X",10_15_6,fe3c1d035a65c549f7011c5446f73ede
9,1,null,null,psychophysics,61,256821,0.0-3.0-1.28,"""",key,null,16.65,840,493.5,"""","""","""","""","""","""","""","""","2021-09-28 21:35:36",24.212.174.218,"Mozilla/5.0 (Macintosh; Intel Mac OS X 10_15_6) AppleWebKit/605.1.15 (KHTML, like Gecko) Version/13.1.2 Safari/605.1.15",Macintosh,Safari,13.1.2,"OS X",10_15_6,fe3c1d035a65c549f7011c5446f73ede
9,1,7115.999999999971,arrowleft,psychophysics,62,263942,0.0-3.0-0.29,"""",key,arrowleft,16.664319248826292,840,493.5,30,2,1,23,15,25,35,false,"2021-09-28 21:35:36",24.212.174.218,"Mozilla/5.0 (Macintosh; Intel Mac OS X 10_15_6) AppleWebKit/605.1.15 (KHTML, like Gecko) Version/13.1.2 Safari/605.1.15",Macintosh,Safari,13.1.2,"OS X",10_15_6,fe3c1d035a65c549f7011c5446f73ede
9,1,null,null,psychophysics,63,264955,0.0-3.0-1.29,"""",key,null,16.6,840,493.5,"""","""","""","""","""","""","""","""","2021-09-28 21:35:36",24.212.174.218,"Mozilla/5.0 (Macintosh; Intel Mac OS X 10_15_6) AppleWebKit/605.1.15 (KHTML, like Gecko) Version/13.1.2 Safari/605.1.15",Macintosh,Safari,13.1.2,"OS X",10_15_6,fe3c1d035a65c549f7011c5446f73ede
9,1,1480,arrowright,psychophysics,64,266439,0.0-3.0-0.30,"""",key,arrowright,16.65909090909091,840,493.5,31,2,-1,23,35,25,35,false,"2021-09-28 21:35:36",24.212.174.218,"Mozilla/5.0 (Macintosh; Intel Mac OS X 10_15_6) AppleWebKit/605.1.15 (KHTML, like Gecko) Version/13.1.2 Safari/605.1.15",Macintosh,Safari,13.1.2,"OS X",10_15_6,fe3c1d035a65c549f7011c5446f73ede
9,1,null,null,psychophysics,65,267442,0.0-3.0-1.30,"""",key,null,16.661016949152543,840,493.5,"""","""","""","""","""","""","""","""","2021-09-28 21:35:36",24.212.174.218,"Mozilla/5.0 (Macintosh; Intel Mac OS X 10_15_6) AppleWebKit/605.1.15 (KHTML, like Gecko) Version/13.1.2 Safari/605.1.15",Macintosh,Safari,13.1.2,"OS X",10_15_6,fe3c1d035a65c549f7011c5446f73ede
9,1,1022.0000000000582,arrowleft,psychophysics,66,268470,0.0-3.0-0.31,"""",key,arrowleft,16.65573770491803,840,493.5,32,2,-1,24,15,25,35,true,"2021-09-28 21:35:36",24.212.174.218,"Mozilla/5.0 (Macintosh; Intel Mac OS X 10_15_6) AppleWebKit/605.1.15 (KHTML, like Gecko) Version/13.1.2 Safari/605.1.15",Macintosh,Safari,13.1.2,"OS X",10_15_6,fe3c1d035a65c549f7011c5446f73ede
9,1,null,null,psychophysics,67,269473,0.0-3.0-1.31,"""",key,null,16.661016949152543,840,493.5,"""","""","""","""","""","""","""","""","2021-09-28 21:35:36",24.212.174.218,"Mozilla/5.0 (Macintosh; Intel Mac OS X 10_15_6) AppleWebKit/605.1.15 (KHTML, like Gecko) Version/13.1.2 Safari/605.1.15",Macintosh,Safari,13.1.2,"OS X",10_15_6,fe3c1d035a65c549f7011c5446f73ede
9,1,920,arrowleft,psychophysics,68,270403,0.0-3.0-0.32,"""",key,arrowleft,16.654545454545456,840,493.5,33,2,1,23,35,25,35,false,"2021-09-28 21:35:36",24.212.174.218,"Mozilla/5.0 (Macintosh; Intel Mac OS X 10_15_6) AppleWebKit/605.1.15 (KHTML, like Gecko) Version/13.1.2 Safari/605.1.15",Macintosh,Safari,13.1.2,"OS X",10_15_6,fe3c1d035a65c549f7011c5446f73ede
9,1,null,null,psychophysics,69,271407,0.0-3.0-1.32,"""",key,null,16.677966101694917,840,493.5,"""","""","""","""","""","""","""","""","2021-09-28 21:35:36",24.212.174.218,"Mozilla/5.0 (Macintosh; Intel Mac OS X 10_15_6) AppleWebKit/605.1.15 (KHTML, like Gecko) Version/13.1.2 Safari/605.1.15",Macintosh,Safari,13.1.2,"OS X",10_15_6,fe3c1d035a65c549f7011c5446f73ede
9,1,1091,arrowleft,psychophysics,70,272503,0.0-3.0-0.33,"""",key,arrowleft,16.661538461538463,840,493.5,34,2,-1,27,15,25,35,true,"2021-09-28 21:35:36",24.212.174.218,"Mozilla/5.0 (Macintosh; Intel Mac OS X 10_15_6) AppleWebKit/605.1.15 (KHTML, like Gecko) Version/13.1.2 Safari/605.1.15",Macintosh,Safari,13.1.2,"OS X",10_15_6,fe3c1d035a65c549f7011c5446f73ede
9,1,null,null,psychophysics,71,273505,0.0-3.0-1.33,"""",key,null,16.677966101694917,840,493.5,"""","""","""","""","""","""","""","""","2021-09-28 21:35:36",24.212.174.218,"Mozilla/5.0 (Macintosh; Intel Mac OS X 10_15_6) AppleWebKit/605.1.15 (KHTML, like Gecko) Version/13.1.2 Safari/605.1.15",Macintosh,Safari,13.1.2,"OS X",10_15_6,fe3c1d035a65c549f7011c5446f73ede
9,1,1028,arrowleft,psychophysics,72,274536,0.0-3.0-0.34,"""",key,arrowleft,16.65573770491803,840,493.5,35,2,-1,27,15,25,35,true,"2021-09-28 21:35:36",24.212.174.218,"Mozilla/5.0 (Macintosh; Intel Mac OS X 10_15_6) AppleWebKit/605.1.15 (KHTML, like Gecko) Version/13.1.2 Safari/605.1.15",Macintosh,Safari,13.1.2,"OS X",10_15_6,fe3c1d035a65c549f7011c5446f73ede
9,1,null,null,psychophysics,73,275539,0.0-3.0-1.34,"""",key,null,16.661016949152543,840,493.5,"""","""","""","""","""","""","""","""","2021-09-28 21:35:36",24.212.174.218,"Mozilla/5.0 (Macintosh; Intel Mac OS X 10_15_6) AppleWebKit/605.1.15 (KHTML, like Gecko) Version/13.1.2 Safari/605.1.15",Macintosh,Safari,13.1.2,"OS X",10_15_6,fe3c1d035a65c549f7011c5446f73ede
9,1,975,arrowright,psychophysics,74,276525,0.0-3.0-0.35,"""",key,arrowright,16.67241379310345,840,493.5,36,2,-1,20,35,25,35,false,"2021-09-28 21:35:36",24.212.174.218,"Mozilla/5.0 (Macintosh; Intel Mac OS X 10_15_6) AppleWebKit/605.1.15 (KHTML, like Gecko) Version/13.1.2 Safari/605.1.15",Macintosh,Safari,13.1.2,"OS X",10_15_6,fe3c1d035a65c549f7011c5446f73ede
9,1,null,null,psychophysics,75,277528,0.0-3.0-1.35,"""",key,null,16.661016949152543,840,493.5,"""","""","""","""","""","""","""","""","2021-09-28 21:35:36",24.212.174.218,"Mozilla/5.0 (Macintosh; Intel Mac OS X 10_15_6) AppleWebKit/605.1.15 (KHTML, like Gecko) Version/13.1.2 Safari/605.1.15",Macintosh,Safari,13.1.2,"OS X",10_15_6,fe3c1d035a65c549f7011c5446f73ede
9,1,1081,arrowleft,psychophysics,76,278613,0.0-3.0-0.36,"""",key,arrowleft,16.671875,840,493.5,37,2,-1,27,35,25,35,true,"2021-09-28 21:35:36",24.212.174.218,"Mozilla/5.0 (Macintosh; Intel Mac OS X 10_15_6) AppleWebKit/605.1.15 (KHTML, like Gecko) Version/13.1.2 Safari/605.1.15",Macintosh,Safari,13.1.2,"OS X",10_15_6,fe3c1d035a65c549f7011c5446f73ede
9,1,null,null,psychophysics,77,279616,0.0-3.0-1.36,"""",key,null,16.677966101694917,840,493.5,"""","""","""","""","""","""","""","""","2021-09-28 21:35:36",24.212.174.218,"Mozilla/5.0 (Macintosh; Intel Mac OS X 10_15_6) AppleWebKit/605.1.15 (KHTML, like Gecko) Version/13.1.2 Safari/605.1.15",Macintosh,Safari,13.1.2,"OS X",10_15_6,fe3c1d035a65c549f7011c5446f73ede
9,1,1290,arrowleft,psychophysics,78,280924,0.0-3.0-0.37,"""",key,arrowleft,16.615384615384617,840,493.5,38,2,-1,25,15,25,35,true,"2021-09-28 21:35:36",24.212.174.218,"Mozilla/5.0 (Macintosh; Intel Mac OS X 10_15_6) AppleWebKit/605.1.15 (KHTML, like Gecko) Version/13.1.2 Safari/605.1.15",Macintosh,Safari,13.1.2,"OS X",10_15_6,fe3c1d035a65c549f7011c5446f73ede
9,1,null,null,psychophysics,79,281931,0.0-3.0-1.37,"""",key,null,16.661016949152543,840,493.5,"""","""","""","""","""","""","""","""","2021-09-28 21:35:36",24.212.174.218,"Mozilla/5.0 (Macintosh; Intel Mac OS X 10_15_6) AppleWebKit/605.1.15 (KHTML, like Gecko) Version/13.1.2 Safari/605.1.15",Macintosh,Safari,13.1.2,"OS X",10_15_6,fe3c1d035a65c549f7011c5446f73ede
9,1,1828.0000000000582,arrowright,psychophysics,80,283780,0.0-3.0-0.38,"""",key,arrowright,16.663636363636364,840,493.5,39,2,-1,20,15,25,35,false,"2021-09-28 21:35:36",24.212.174.218,"Mozilla/5.0 (Macintosh; Intel Mac OS X 10_15_6) AppleWebKit/605.1.15 (KHTML, like Gecko) Version/13.1.2 Safari/605.1.15",Macintosh,Safari,13.1.2,"OS X",10_15_6,fe3c1d035a65c549f7011c5446f73ede
9,1,null,null,psychophysics,81,284782,0.0-3.0-1.38,"""",key,null,16.661016949152543,840,493.5,"""","""","""","""","""","""","""","""","2021-09-28 21:35:36",24.212.174.218,"Mozilla/5.0 (Macintosh; Intel Mac OS X 10_15_6) AppleWebKit/605.1.15 (KHTML, like Gecko) Version/13.1.2 Safari/605.1.15",Macintosh,Safari,13.1.2,"OS X",10_15_6,fe3c1d035a65c549f7011c5446f73ede
9,1,887,arrowleft,psychophysics,82,285688,0.0-3.0-0.39,"""",key,arrowleft,16.61111111111111,840,493.5,40,2,-1,30,35,25,35,true,"2021-09-28 21:35:36",24.212.174.218,"Mozilla/5.0 (Macintosh; Intel Mac OS X 10_15_6) AppleWebKit/605.1.15 (KHTML, like Gecko) Version/13.1.2 Safari/605.1.15",Macintosh,Safari,13.1.2,"OS X",10_15_6,fe3c1d035a65c549f7011c5446f73ede
9,1,null,null,psychophysics,83,286690,0.0-3.0-1.39,"""",key,null,16.661016949152543,840,493.5,"""","""","""","""","""","""","""","""","2021-09-28 21:35:36",24.212.174.218,"Mozilla/5.0 (Macintosh; Intel Mac OS X 10_15_6) AppleWebKit/605.1.15 (KHTML, like Gecko) Version/13.1.2 Safari/605.1.15",Macintosh,Safari,13.1.2,"OS X",10_15_6,fe3c1d035a65c549f7011c5446f73ede
9,1,1543,arrowleft,psychophysics,84,288259,0.0-3.0-0.40,"""",key,arrowleft,16.666666666666668,840,493.5,41,2,1,24,35,25,35,false,"2021-09-28 21:35:36",24.212.174.218,"Mozilla/5.0 (Macintosh; Intel Mac OS X 10_15_6) AppleWebKit/605.1.15 (KHTML, like Gecko) Version/13.1.2 Safari/605.1.15",Macintosh,Safari,13.1.2,"OS X",10_15_6,fe3c1d035a65c549f7011c5446f73ede
9,1,null,null,psychophysics,85,289262,0.0-3.0-1.40,"""",key,null,16.677966101694917,840,493.5,"""","""","""","""","""","""","""","""","2021-09-28 21:35:36",24.212.174.218,"Mozilla/5.0 (Macintosh; Intel Mac OS X 10_15_6) AppleWebKit/605.1.15 (KHTML, like Gecko) Version/13.1.2 Safari/605.1.15",Macintosh,Safari,13.1.2,"OS X",10_15_6,fe3c1d035a65c549f7011c5446f73ede
9,1,858,arrowleft,psychophysics,86,290125,0.0-3.0-0.41,"""",key,arrowleft,16.666666666666668,840,493.5,42,2,1,23,35,25,35,false,"2021-09-28 21:35:36",24.212.174.218,"Mozilla/5.0 (Macintosh; Intel Mac OS X 10_15_6) AppleWebKit/605.1.15 (KHTML, like Gecko) Version/13.1.2 Safari/605.1.15",Macintosh,Safari,13.1.2,"OS X",10_15_6,fe3c1d035a65c549f7011c5446f73ede
9,1,null,null,psychophysics,87,291128,0.0-3.0-1.41,"""",key,null,16.677966101694917,840,493.5,"""","""","""","""","""","""","""","""","2021-09-28 21:35:36",24.212.174.218,"Mozilla/5.0 (Macintosh; Intel Mac OS X 10_15_6) AppleWebKit/605.1.15 (KHTML, like Gecko) Version/13.1.2 Safari/605.1.15",Macintosh,Safari,13.1.2,"OS X",10_15_6,fe3c1d035a65c549f7011c5446f73ede
9,1,1082,arrowleft,psychophysics,88,292215,0.0-3.0-0.42,"""",key,arrowleft,16.65625,840,493.5,43,2,-1,24,35,25,35,true,"2021-09-28 21:35:36",24.212.174.218,"Mozilla/5.0 (Macintosh; Intel Mac OS X 10_15_6) AppleWebKit/605.1.15 (KHTML, like Gecko) Version/13.1.2 Safari/605.1.15",Macintosh,Safari,13.1.2,"OS X",10_15_6,fe3c1d035a65c549f7011c5446f73ede
9,1,null,null,psychophysics,89,293220,0.0-3.0-1.42,"""",key,null,16.616666666666667,840,493.5,"""","""","""","""","""","""","""","""","2021-09-28 21:35:36",24.212.174.218,"Mozilla/5.0 (Macintosh; Intel Mac OS X 10_15_6) AppleWebKit/605.1.15 (KHTML, like Gecko) Version/13.1.2 Safari/605.1.15",Macintosh,Safari,13.1.2,"OS X",10_15_6,fe3c1d035a65c549f7011c5446f73ede
9,1,2247,arrowleft,psychophysics,90,295472,0.0-3.0-0.43,"""",key,arrowleft,16.65671641791045,840,493.5,44,2,-1,25,35,25,35,true,"2021-09-28 21:35:36",24.212.174.218,"Mozilla/5.0 (Macintosh; Intel Mac OS X 10_15_6) AppleWebKit/605.1.15 (KHTML, like Gecko) Version/13.1.2 Safari/605.1.15",Macintosh,Safari,13.1.2,"OS X",10_15_6,fe3c1d035a65c549f7011c5446f73ede
9,1,null,null,psychophysics,91,296475,0.0-3.0-1.43,"""",key,null,16.661016949152543,840,493.5,"""","""","""","""","""","""","""","""","2021-09-28 21:35:36",24.212.174.218,"Mozilla/5.0 (Macintosh; Intel Mac OS X 10_15_6) AppleWebKit/605.1.15 (KHTML, like Gecko) Version/13.1.2 Safari/605.1.15",Macintosh,Safari,13.1.2,"OS X",10_15_6,fe3c1d035a65c549f7011c5446f73ede
9,1,1300,arrowleft,psychophysics,92,297781,0.0-3.0-0.44,"""",key,arrowleft,16.662337662337663,840,493.5,45,2,-1,23,15,25,35,true,"2021-09-28 21:35:36",24.212.174.218,"Mozilla/5.0 (Macintosh; Intel Mac OS X 10_15_6) AppleWebKit/605.1.15 (KHTML, like Gecko) Version/13.1.2 Safari/605.1.15",Macintosh,Safari,13.1.2,"OS X",10_15_6,fe3c1d035a65c549f7011c5446f73ede
9,1,null,null,psychophysics,93,298788,0.0-3.0-1.44,"""",key,null,16.616666666666667,840,493.5,"""","""","""","""","""","""","""","""","2021-09-28 21:35:36",24.212.174.218,"Mozilla/5.0 (Macintosh; Intel Mac OS X 10_15_6) AppleWebKit/605.1.15 (KHTML, like Gecko) Version/13.1.2 Safari/605.1.15",Macintosh,Safari,13.1.2,"OS X",10_15_6,fe3c1d035a65c549f7011c5446f73ede
9,1,1351,arrowright,psychophysics,94,300142,0.0-3.0-0.45,"""",key,arrowright,16.6875,840,493.5,46,2,1,26,15,25,35,true,"2021-09-28 21:35:36",24.212.174.218,"Mozilla/5.0 (Macintosh; Intel Mac OS X 10_15_6) AppleWebKit/605.1.15 (KHTML, like Gecko) Version/13.1.2 Safari/605.1.15",Macintosh,Safari,13.1.2,"OS X",10_15_6,fe3c1d035a65c549f7011c5446f73ede
9,1,null,null,psychophysics,95,301144,0.0-3.0-1.45,"""",key,null,16.677966101694917,840,493.5,"""","""","""","""","""","""","""","""","2021-09-28 21:35:36",24.212.174.218,"Mozilla/5.0 (Macintosh; Intel Mac OS X 10_15_6) AppleWebKit/605.1.15 (KHTML, like Gecko) Version/13.1.2 Safari/605.1.15",Macintosh,Safari,13.1.2,"OS X",10_15_6,fe3c1d035a65c549f7011c5446f73ede
9,1,994.0000000000582,arrowleft,psychophysics,96,302143,0.0-3.0-0.46,"""",key,arrowleft,16.694915254237287,840,493.5,47,2,1,23,35,25,35,false,"2021-09-28 21:35:36",24.212.174.218,"Mozilla/5.0 (Macintosh; Intel Mac OS X 10_15_6) AppleWebKit/605.1.15 (KHTML, like Gecko) Version/13.1.2 Safari/605.1.15",Macintosh,Safari,13.1.2,"OS X",10_15_6,fe3c1d035a65c549f7011c5446f73ede
9,1,null,null,psychophysics,97,303146,0.0-3.0-1.46,"""",key,null,16.694915254237287,840,493.5,"""","""","""","""","""","""","""","""","2021-09-28 21:35:36",24.212.174.218,"Mozilla/5.0 (Macintosh; Intel Mac OS X 10_15_6) AppleWebKit/605.1.15 (KHTML, like Gecko) Version/13.1.2 Safari/605.1.15",Macintosh,Safari,13.1.2,"OS X",10_15_6,fe3c1d035a65c549f7011c5446f73ede
9,1,9638,arrowright,psychophysics,98,312809,0.0-3.0-0.47,"""",key,arrowright,16.6580310880829,840,493.5,48,2,1,23,15,25,35,true,"2021-09-28 21:35:36",24.212.174.218,"Mozilla/5.0 (Macintosh; Intel Mac OS X 10_15_6) AppleWebKit/605.1.15 (KHTML, like Gecko) Version/13.1.2 Safari/605.1.15",Macintosh,Safari,13.1.2,"OS X",10_15_6,fe3c1d035a65c549f7011c5446f73ede
9,1,null,null,psychophysics,99,313811,0.0-3.0-1.47,"""",key,null,16.677966101694917,840,493.5,"""","""","""","""","""","""","""","""","2021-09-28 21:35:36",24.212.174.218,"Mozilla/5.0 (Macintosh; Intel Mac OS X 10_15_6) AppleWebKit/605.1.15 (KHTML, like Gecko) Version/13.1.2 Safari/605.1.15",Macintosh,Safari,13.1.2,"OS X",10_15_6,fe3c1d035a65c549f7011c5446f73ede
9,1,4495.000000000058,arrowleft,psychophysics,100,318333,0.0-3.0-0.48,"""",key,arrowleft,16.659259259259258,840,493.5,49,2,1,24,15,25,35,false,"2021-09-28 21:35:36",24.212.174.218,"Mozilla/5.0 (Macintosh; Intel Mac OS X 10_15_6) AppleWebKit/605.1.15 (KHTML, like Gecko) Version/13.1.2 Safari/605.1.15",Macintosh,Safari,13.1.2,"OS X",10_15_6,fe3c1d035a65c549f7011c5446f73ede
9,1,null,null,psychophysics,101,319336,0.0-3.0-1.48,"""",key,null,16.616666666666667,840,493.5,"""","""","""","""","""","""","""","""","2021-09-28 21:35:36",24.212.174.218,"Mozilla/5.0 (Macintosh; Intel Mac OS X 10_15_6) AppleWebKit/605.1.15 (KHTML, like Gecko) Version/13.1.2 Safari/605.1.15",Macintosh,Safari,13.1.2,"OS X",10_15_6,fe3c1d035a65c549f7011c5446f73ede
9,1,1005,arrowleft,psychophysics,102,320349,0.0-3.0-0.49,"""",key,arrowleft,16.677966101694917,840,493.5,50,2,-1,27,15,25,35,true,"2021-09-28 21:35:36",24.212.174.218,"Mozilla/5.0 (Macintosh; Intel Mac OS X 10_15_6) AppleWebKit/605.1.15 (KHTML, like Gecko) Version/13.1.2 Safari/605.1.15",Macintosh,Safari,13.1.2,"OS X",10_15_6,fe3c1d035a65c549f7011c5446f73ede
9,1,null,null,psychophysics,103,321354,0.0-3.0-1.49,"""",key,null,16.65,840,493.5,"""","""","""","""","""","""","""","""","2021-09-28 21:35:36",24.212.174.218,"Mozilla/5.0 (Macintosh; Intel Mac OS X 10_15_6) AppleWebKit/605.1.15 (KHTML, like Gecko) Version/13.1.2 Safari/605.1.15",Macintosh,Safari,13.1.2,"OS X",10_15_6,fe3c1d035a65c549f7011c5446f73ede
9,1,1805,arrowright,psychophysics,104,323164,0.0-3.0-0.50,"""",key,arrowright,16.66355140186916,840,493.5,51,2,1,26,35,25,35,true,"2021-09-28 21:35:36",24.212.174.218,"Mozilla/5.0 (Macintosh; Intel Mac OS X 10_15_6) AppleWebKit/605.1.15 (KHTML, like Gecko) Version/13.1.2 Safari/605.1.15",Macintosh,Safari,13.1.2,"OS X",10_15_6,fe3c1d035a65c549f7011c5446f73ede
9,1,null,null,psychophysics,105,324166,0.0-3.0-1.50,"""",key,null,16.677966101694917,840,493.5,"""","""","""","""","""","""","""","""","2021-09-28 21:35:36",24.212.174.218,"Mozilla/5.0 (Macintosh; Intel Mac OS X 10_15_6) AppleWebKit/605.1.15 (KHTML, like Gecko) Version/13.1.2 Safari/605.1.15",Macintosh,Safari,13.1.2,"OS X",10_15_6,fe3c1d035a65c549f7011c5446f73ede
9,1,1691,arrowright,psychophysics,106,325875,0.0-3.0-0.51,"""",key,arrowright,16.666666666666668,840,493.5,52,2,1,27,35,25,35,true,"2021-09-28 21:35:36",24.212.174.218,"Mozilla/5.0 (Macintosh; Intel Mac OS X 10_15_6) AppleWebKit/605.1.15 (KHTML, like Gecko) Version/13.1.2 Safari/605.1.15",Macintosh,Safari,13.1.2,"OS X",10_15_6,fe3c1d035a65c549f7011c5446f73ede
9,1,null,null,psychophysics,107,326883,0.0-3.0-1.51,"""",key,null,16.677966101694917,840,493.5,"""","""","""","""","""","""","""","""","2021-09-28 21:35:36",24.212.174.218,"Mozilla/5.0 (Macintosh; Intel Mac OS X 10_15_6) AppleWebKit/605.1.15 (KHTML, like Gecko) Version/13.1.2 Safari/605.1.15",Macintosh,Safari,13.1.2,"OS X",10_15_6,fe3c1d035a65c549f7011c5446f73ede
9,1,1096,arrowright,psychophysics,108,327999,0.0-3.0-0.52,"""",key,arrowright,16.62121212121212,840,493.5,53,2,1,26,15,25,35,true,"2021-09-28 21:35:36",24.212.174.218,"Mozilla/5.0 (Macintosh; Intel Mac OS X 10_15_6) AppleWebKit/605.1.15 (KHTML, like Gecko) Version/13.1.2 Safari/605.1.15",Macintosh,Safari,13.1.2,"OS X",10_15_6,fe3c1d035a65c549f7011c5446f73ede
9,1,null,null,psychophysics,109,329001,0.0-3.0-1.52,"""",key,null,16.661016949152543,840,493.5,"""","""","""","""","""","""","""","""","2021-09-28 21:35:36",24.212.174.218,"Mozilla/5.0 (Macintosh; Intel Mac OS X 10_15_6) AppleWebKit/605.1.15 (KHTML, like Gecko) Version/13.1.2 Safari/605.1.15",Macintosh,Safari,13.1.2,"OS X",10_15_6,fe3c1d035a65c549f7011c5446f73ede
9,1,1592,arrowright,psychophysics,110,330613,0.0-3.0-0.53,"""",key,arrowright,16.614583333333332,840,493.5,54,2,-1,24,35,25,35,false,"2021-09-28 21:35:36",24.212.174.218,"Mozilla/5.0 (Macintosh; Intel Mac OS X 10_15_6) AppleWebKit/605.1.15 (KHTML, like Gecko) Version/13.1.2 Safari/605.1.15",Macintosh,Safari,13.1.2,"OS X",10_15_6,fe3c1d035a65c549f7011c5446f73ede
9,1,null,null,psychophysics,111,331616,0.0-3.0-1.53,"""",key,null,16.661016949152543,840,493.5,"""","""","""","""","""","""","""","""","2021-09-28 21:35:36",24.212.174.218,"Mozilla/5.0 (Macintosh; Intel Mac OS X 10_15_6) AppleWebKit/605.1.15 (KHTML, like Gecko) Version/13.1.2 Safari/605.1.15",Macintosh,Safari,13.1.2,"OS X",10_15_6,fe3c1d035a65c549f7011c5446f73ede
9,1,45786,arrowright,psychophysics,112,377426,0.0-3.0-0.54,"""",key,arrowright,16.66339155749636,840,493.5,55,2,1,25,15,25,35,true,"2021-09-28 21:35:36",24.212.174.218,"Mozilla/5.0 (Macintosh; Intel Mac OS X 10_15_6) AppleWebKit/605.1.15 (KHTML, like Gecko) Version/13.1.2 Safari/605.1.15",Macintosh,Safari,13.1.2,"OS X",10_15_6,fe3c1d035a65c549f7011c5446f73ede
9,1,null,null,psychophysics,113,378430,0.0-3.0-1.54,"""",key,null,16.677966101694917,840,493.5,"""","""","""","""","""","""","""","""","2021-09-28 21:35:36",24.212.174.218,"Mozilla/5.0 (Macintosh; Intel Mac OS X 10_15_6) AppleWebKit/605.1.15 (KHTML, like Gecko) Version/13.1.2 Safari/605.1.15",Macintosh,Safari,13.1.2,"OS X",10_15_6,fe3c1d035a65c549f7011c5446f73ede
9,1,3568,arrowleft,psychophysics,114,382008,0.0-3.0-0.55,"""",key,arrowleft,16.64018691588785,840,493.5,56,3,1,20,15,25,35,false,"2021-09-28 21:35:36",24.212.174.218,"Mozilla/5.0 (Macintosh; Intel Mac OS X 10_15_6) AppleWebKit/605.1.15 (KHTML, like Gecko) Version/13.1.2 Safari/605.1.15",Macintosh,Safari,13.1.2,"OS X",10_15_6,fe3c1d035a65c549f7011c5446f73ede
9,1,null,null,psychophysics,115,383012,0.0-3.0-1.55,"""",key,null,16.677966101694917,840,493.5,"""","""","""","""","""","""","""","""","2021-09-28 21:35:36",24.212.174.218,"Mozilla/5.0 (Macintosh; Intel Mac OS X 10_15_6) AppleWebKit/605.1.15 (KHTML, like Gecko) Version/13.1.2 Safari/605.1.15",Macintosh,Safari,13.1.2,"OS X",10_15_6,fe3c1d035a65c549f7011c5446f73ede
9,1,18992.00000000006," ",html-keyboard-response,116,402008,0.0-3.0-2.55-0.55,"<div style=""color: white; text-align: center; vertical-align: top; display: inline-block; width: 800px; margin: auto""><p>You have completed 20% of the trials. You are on block 3 of 10. <br>Good job! Take a break if you need to.</p><p>Press any key to continue the experiment.</p></div>","""","""","""","""","""","""","""","""","""","""","""","""","""","2021-09-28 21:35:36",24.212.174.218,"Mozilla/5.0 (Macintosh; Intel Mac OS X 10_15_6) AppleWebKit/605.1.15 (KHTML, like Gecko) Version/13.1.2 Safari/605.1.15",Macintosh,Safari,13.1.2,"OS X",10_15_6,fe3c1d035a65c549f7011c5446f73ede
9,1,3454,arrowleft,psychophysics,117,406470,0.0-3.0-0.56,"""",key,arrowleft,16.702439024390245,840,493.5,57,3,-1,24,35,25,35,true,"2021-09-28 21:35:36",24.212.174.218,"Mozilla/5.0 (Macintosh; Intel Mac OS X 10_15_6) AppleWebKit/605.1.15 (KHTML, like Gecko) Version/13.1.2 Safari/605.1.15",Macintosh,Safari,13.1.2,"OS X",10_15_6,fe3c1d035a65c549f7011c5446f73ede
9,1,null,null,psychophysics,118,407472,0.0-3.0-1.56,"""",key,null,16.661016949152543,840,493.5,"""","""","""","""","""","""","""","""","2021-09-28 21:35:36",24.212.174.218,"Mozilla/5.0 (Macintosh; Intel Mac OS X 10_15_6) AppleWebKit/605.1.15 (KHTML, like Gecko) Version/13.1.2 Safari/605.1.15",Macintosh,Safari,13.1.2,"OS X",10_15_6,fe3c1d035a65c549f7011c5446f73ede
9,1,3989.000000000058,arrowleft,psychophysics,119,411484,0.0-3.0-0.57,"""",key,arrowleft,16.625,840,493.5,58,3,-1,26,15,25,35,true,"2021-09-28 21:35:36",24.212.174.218,"Mozilla/5.0 (Macintosh; Intel Mac OS X 10_15_6) AppleWebKit/605.1.15 (KHTML, like Gecko) Version/13.1.2 Safari/605.1.15",Macintosh,Safari,13.1.2,"OS X",10_15_6,fe3c1d035a65c549f7011c5446f73ede
9,1,null,null,psychophysics,120,412487,0.0-3.0-1.57,"""",key,null,16.896551724137932,840,493.5,"""","""","""","""","""","""","""","""","2021-09-28 21:35:36",24.212.174.218,"Mozilla/5.0 (Macintosh; Intel Mac OS X 10_15_6) AppleWebKit/605.1.15 (KHTML, like Gecko) Version/13.1.2 Safari/605.1.15",Macintosh,Safari,13.1.2,"OS X",10_15_6,fe3c1d035a65c549f7011c5446f73ede
9,1,1134,arrowright,psychophysics,121,413641,0.0-3.0-0.58,"""",key,arrowright,16.608695652173914,840,493.5,59,3,1,26,15,25,35,true,"2021-09-28 21:35:36",24.212.174.218,"Mozilla/5.0 (Macintosh; Intel Mac OS X 10_15_6) AppleWebKit/605.1.15 (KHTML, like Gecko) Version/13.1.2 Safari/605.1.15",Macintosh,Safari,13.1.2,"OS X",10_15_6,fe3c1d035a65c549f7011c5446f73ede
9,1,null,null,psychophysics,122,414655,0.0-3.0-1.58,"""",key,null,16.677966101694917,840,493.5,"""","""","""","""","""","""","""","""","2021-09-28 21:35:36",24.212.174.218,"Mozilla/5.0 (Macintosh; Intel Mac OS X 10_15_6) AppleWebKit/605.1.15 (KHTML, like Gecko) Version/13.1.2 Safari/605.1.15",Macintosh,Safari,13.1.2,"OS X",10_15_6,fe3c1d035a65c549f7011c5446f73ede
9,1,888,arrowleft,psychophysics,123,415564,0.0-3.0-0.59,"""",key,arrowleft,16.61111111111111,840,493.5,60,3,1,27,35,25,35,false,"2021-09-28 21:35:36",24.212.174.218,"Mozilla/5.0 (Macintosh; Intel Mac OS X 10_15_6) AppleWebKit/605.1.15 (KHTML, like Gecko) Version/13.1.2 Safari/605.1.15",Macintosh,Safari,13.1.2,"OS X",10_15_6,fe3c1d035a65c549f7011c5446f73ede
9,1,null,null,psychophysics,124,416566,0.0-3.0-1.59,"""",key,null,16.661016949152543,840,493.5,"""","""","""","""","""","""","""","""","2021-09-28 21:35:36",24.212.174.218,"Mozilla/5.0 (Macintosh; Intel Mac OS X 10_15_6) AppleWebKit/605.1.15 (KHTML, like Gecko) Version/13.1.2 Safari/605.1.15",Macintosh,Safari,13.1.2,"OS X",10_15_6,fe3c1d035a65c549f7011c5446f73ede
9,1,946,arrowleft,psychophysics,125,417518,0.0-3.0-0.60,"""",key,arrowleft,16.660714285714285,840,493.5,61,3,-1,24,35,25,35,true,"2021-09-28 21:35:36",24.212.174.218,"Mozilla/5.0 (Macintosh; Intel Mac OS X 10_15_6) AppleWebKit/605.1.15 (KHTML, like Gecko) Version/13.1.2 Safari/605.1.15",Macintosh,Safari,13.1.2,"OS X",10_15_6,fe3c1d035a65c549f7011c5446f73ede
9,1,null,null,psychophysics,126,418521,0.0-3.0-1.60,"""",key,null,16.677966101694917,840,493.5,"""","""","""","""","""","""","""","""","2021-09-28 21:35:36",24.212.174.218,"Mozilla/5.0 (Macintosh; Intel Mac OS X 10_15_6) AppleWebKit/605.1.15 (KHTML, like Gecko) Version/13.1.2 Safari/605.1.15",Macintosh,Safari,13.1.2,"OS X",10_15_6,fe3c1d035a65c549f7011c5446f73ede
9,1,5694.000000000058,arrowleft,psychophysics,127,424234,0.0-3.0-0.61,"""",key,arrowleft,16.657894736842106,840,493.5,62,3,1,25,35,25,35,false,"2021-09-28 21:35:36",24.212.174.218,"Mozilla/5.0 (Macintosh; Intel Mac OS X 10_15_6) AppleWebKit/605.1.15 (KHTML, like Gecko) Version/13.1.2 Safari/605.1.15",Macintosh,Safari,13.1.2,"OS X",10_15_6,fe3c1d035a65c549f7011c5446f73ede
9,1,null,null,psychophysics,128,425242,0.0-3.0-1.61,"""",key,null,16.616666666666667,840,493.5,"""","""","""","""","""","""","""","""","2021-09-28 21:35:36",24.212.174.218,"Mozilla/5.0 (Macintosh; Intel Mac OS X 10_15_6) AppleWebKit/605.1.15 (KHTML, like Gecko) Version/13.1.2 Safari/605.1.15",Macintosh,Safari,13.1.2,"OS X",10_15_6,fe3c1d035a65c549f7011c5446f73ede
9,1,1029,arrowleft,psychophysics,129,426275,0.0-3.0-0.62,"""",key,arrowleft,16.672131147540984,840,493.5,63,3,-1,25,15,25,35,true,"2021-09-28 21:35:36",24.212.174.218,"Mozilla/5.0 (Macintosh; Intel Mac OS X 10_15_6) AppleWebKit/605.1.15 (KHTML, like Gecko) Version/13.1.2 Safari/605.1.15",Macintosh,Safari,13.1.2,"OS X",10_15_6,fe3c1d035a65c549f7011c5446f73ede
9,1,null,null,psychophysics,130,427278,0.0-3.0-1.62,"""",key,null,16.661016949152543,840,493.5,"""","""","""","""","""","""","""","""","2021-09-28 21:35:36",24.212.174.218,"Mozilla/5.0 (Macintosh; Intel Mac OS X 10_15_6) AppleWebKit/605.1.15 (KHTML, like Gecko) Version/13.1.2 Safari/605.1.15",Macintosh,Safari,13.1.2,"OS X",10_15_6,fe3c1d035a65c549f7011c5446f73ede
9,1,1645,arrowleft,psychophysics,131,428928,0.0-3.0-0.63,"""",key,arrowleft,16.6734693877551,840,493.5,64,3,-1,26,15,25,35,true,"2021-09-28 21:35:36",24.212.174.218,"Mozilla/5.0 (Macintosh; Intel Mac OS X 10_15_6) AppleWebKit/605.1.15 (KHTML, like Gecko) Version/13.1.2 Safari/605.1.15",Macintosh,Safari,13.1.2,"OS X",10_15_6,fe3c1d035a65c549f7011c5446f73ede
9,1,null,null,psychophysics,132,429933,0.0-3.0-1.63,"""",key,null,16.677966101694917,840,493.5,"""","""","""","""","""","""","""","""","2021-09-28 21:35:36",24.212.174.218,"Mozilla/5.0 (Macintosh; Intel Mac OS X 10_15_6) AppleWebKit/605.1.15 (KHTML, like Gecko) Version/13.1.2 Safari/605.1.15",Macintosh,Safari,13.1.2,"OS X",10_15_6,fe3c1d035a65c549f7011c5446f73ede
9,1,1124.0000000000582,arrowright,psychophysics,133,431085,0.0-3.0-0.64,"""",key,arrowright,16.58823529411765,840,493.5,65,3,1,30,15,25,35,true,"2021-09-28 21:35:36",24.212.174.218,"Mozilla/5.0 (Macintosh; Intel Mac OS X 10_15_6) AppleWebKit/605.1.15 (KHTML, like Gecko) Version/13.1.2 Safari/605.1.15",Macintosh,Safari,13.1.2,"OS X",10_15_6,fe3c1d035a65c549f7011c5446f73ede
9,1,null,null,psychophysics,134,432088,0.0-3.0-1.64,"""",key,null,16.661016949152543,840,493.5,"""","""","""","""","""","""","""","""","2021-09-28 21:35:36",24.212.174.218,"Mozilla/5.0 (Macintosh; Intel Mac OS X 10_15_6) AppleWebKit/605.1.15 (KHTML, like Gecko) Version/13.1.2 Safari/605.1.15",Macintosh,Safari,13.1.2,"OS X",10_15_6,fe3c1d035a65c549f7011c5446f73ede
9,1,17135.00000000006,arrowleft,psychophysics,135,449242,0.0-3.0-0.65,"""",key,arrowleft,16.663751214771622,840,493.5,66,3,1,24,15,25,35,false,"2021-09-28 21:35:36",24.212.174.218,"Mozilla/5.0 (Macintosh; Intel Mac OS X 10_15_6) AppleWebKit/605.1.15 (KHTML, like Gecko) Version/13.1.2 Safari/605.1.15",Macintosh,Safari,13.1.2,"OS X",10_15_6,fe3c1d035a65c549f7011c5446f73ede
9,1,null,null,psychophysics,136,450251,0.0-3.0-1.65,"""",key,null,16.677966101694917,840,493.5,"""","""","""","""","""","""","""","""","2021-09-28 21:35:36",24.212.174.218,"Mozilla/5.0 (Macintosh; Intel Mac OS X 10_15_6) AppleWebKit/605.1.15 (KHTML, like Gecko) Version/13.1.2 Safari/605.1.15",Macintosh,Safari,13.1.2,"OS X",10_15_6,fe3c1d035a65c549f7011c5446f73ede
9,1,3686.000000000058,arrowright,psychophysics,137,453960,0.0-3.0-0.66,"""",key,arrowright,16.66216216216216,840,493.5,67,3,1,24,15,25,35,true,"2021-09-28 21:35:36",24.212.174.218,"Mozilla/5.0 (Macintosh; Intel Mac OS X 10_15_6) AppleWebKit/605.1.15 (KHTML, like Gecko) Version/13.1.2 Safari/605.1.15",Macintosh,Safari,13.1.2,"OS X",10_15_6,fe3c1d035a65c549f7011c5446f73ede
9,1,null,null,psychophysics,138,454963,0.0-3.0-1.66,"""",key,null,16.661016949152543,840,493.5,"""","""","""","""","""","""","""","""","2021-09-28 21:35:36",24.212.174.218,"Mozilla/5.0 (Macintosh; Intel Mac OS X 10_15_6) AppleWebKit/605.1.15 (KHTML, like Gecko) Version/13.1.2 Safari/605.1.15",Macintosh,Safari,13.1.2,"OS X",10_15_6,fe3c1d035a65c549f7011c5446f73ede
9,1,1784,arrowright,psychophysics,139,456771,0.0-3.0-0.67,"""",key,arrowright,16.64485981308411,840,493.5,68,3,1,26,15,25,35,true,"2021-09-28 21:35:36",24.212.174.218,"Mozilla/5.0 (Macintosh; Intel Mac OS X 10_15_6) AppleWebKit/605.1.15 (KHTML, like Gecko) Version/13.1.2 Safari/605.1.15",Macintosh,Safari,13.1.2,"OS X",10_15_6,fe3c1d035a65c549f7011c5446f73ede
9,1,null,null,psychophysics,140,457775,0.0-3.0-1.67,"""",key,null,16.633333333333333,840,493.5,"""","""","""","""","""","""","""","""","2021-09-28 21:35:36",24.212.174.218,"Mozilla/5.0 (Macintosh; Intel Mac OS X 10_15_6) AppleWebKit/605.1.15 (KHTML, like Gecko) Version/13.1.2 Safari/605.1.15",Macintosh,Safari,13.1.2,"OS X",10_15_6,fe3c1d035a65c549f7011c5446f73ede
9,1,1404,arrowright,psychophysics,141,459184,0.0-3.0-0.68,"""",key,arrowright,16.662650602409638,840,493.5,69,3,1,26,35,25,35,true,"2021-09-28 21:35:36",24.212.174.218,"Mozilla/5.0 (Macintosh; Intel Mac OS X 10_15_6) AppleWebKit/605.1.15 (KHTML, like Gecko) Version/13.1.2 Safari/605.1.15",Macintosh,Safari,13.1.2,"OS X",10_15_6,fe3c1d035a65c549f7011c5446f73ede
9,1,null,null,psychophysics,142,460188,0.0-3.0-1.68,"""",key,null,16.677966101694917,840,493.5,"""","""","""","""","""","""","""","""","2021-09-28 21:35:36",24.212.174.218,"Mozilla/5.0 (Macintosh; Intel Mac OS X 10_15_6) AppleWebKit/605.1.15 (KHTML, like Gecko) Version/13.1.2 Safari/605.1.15",Macintosh,Safari,13.1.2,"OS X",10_15_6,fe3c1d035a65c549f7011c5446f73ede
9,1,1033,arrowleft,psychophysics,143,461241,0.0-3.0-0.69,"""",key,arrowleft,16.603174603174605,840,493.5,70,3,-1,27,15,25,35,true,"2021-09-28 21:35:36",24.212.174.218,"Mozilla/5.0 (Macintosh; Intel Mac OS X 10_15_6) AppleWebKit/605.1.15 (KHTML, like Gecko) Version/13.1.2 Safari/605.1.15",Macintosh,Safari,13.1.2,"OS X",10_15_6,fe3c1d035a65c549f7011c5446f73ede
9,1,null,null,psychophysics,144,462249,0.0-3.0-1.69,"""",key,null,16.677966101694917,840,493.5,"""","""","""","""","""","""","""","""","2021-09-28 21:35:36",24.212.174.218,"Mozilla/5.0 (Macintosh; Intel Mac OS X 10_15_6) AppleWebKit/605.1.15 (KHTML, like Gecko) Version/13.1.2 Safari/605.1.15",Macintosh,Safari,13.1.2,"OS X",10_15_6,fe3c1d035a65c549f7011c5446f73ede
9,1,9977,arrowright,psychophysics,145,472233,0.0-3.0-0.70,"""",key,arrowright,16.665551839464882,840,493.5,71,3,1,25,15,25,35,true,"2021-09-28 21:35:36",24.212.174.218,"Mozilla/5.0 (Macintosh; Intel Mac OS X 10_15_6) AppleWebKit/605.1.15 (KHTML, like Gecko) Version/13.1.2 Safari/605.1.15",Macintosh,Safari,13.1.2,"OS X",10_15_6,fe3c1d035a65c549f7011c5446f73ede
9,1,null,null,psychophysics,146,473252,0.0-3.0-1.70,"""",key,null,16.466666666666665,840,493.5,"""","""","""","""","""","""","""","""","2021-09-28 21:35:36",24.212.174.218,"Mozilla/5.0 (Macintosh; Intel Mac OS X 10_15_6) AppleWebKit/605.1.15 (KHTML, like Gecko) Version/13.1.2 Safari/605.1.15",Macintosh,Safari,13.1.2,"OS X",10_15_6,fe3c1d035a65c549f7011c5446f73ede
9,1,2596,arrowright,psychophysics,147,475863,0.0-3.0-0.71,"""",key,arrowright,16.666666666666668,840,493.5,72,3,1,24,15,25,35,true,"2021-09-28 21:35:36",24.212.174.218,"Mozilla/5.0 (Macintosh; Intel Mac OS X 10_15_6) AppleWebKit/605.1.15 (KHTML, like Gecko) Version/13.1.2 Safari/605.1.15",Macintosh,Safari,13.1.2,"OS X",10_15_6,fe3c1d035a65c549f7011c5446f73ede
9,1,null,null,psychophysics,148,476866,0.0-3.0-1.71,"""",key,null,16.677966101694917,840,493.5,"""","""","""","""","""","""","""","""","2021-09-28 21:35:36",24.212.174.218,"Mozilla/5.0 (Macintosh; Intel Mac OS X 10_15_6) AppleWebKit/605.1.15 (KHTML, like Gecko) Version/13.1.2 Safari/605.1.15",Macintosh,Safari,13.1.2,"OS X",10_15_6,fe3c1d035a65c549f7011c5446f73ede
9,1,2745,arrowleft,psychophysics,149,479617,0.0-3.0-0.72,"""",key,arrowleft,16.670731707317074,840,493.5,73,3,1,23,35,25,35,false,"2021-09-28 21:35:36",24.212.174.218,"Mozilla/5.0 (Macintosh; Intel Mac OS X 10_15_6) AppleWebKit/605.1.15 (KHTML, like Gecko) Version/13.1.2 Safari/605.1.15",Macintosh,Safari,13.1.2,"OS X",10_15_6,fe3c1d035a65c549f7011c5446f73ede
9,1,null,null,psychophysics,150,480627,0.0-3.0-1.72,"""",key,null,16.6,840,493.5,"""","""","""","""","""","""","""","""","2021-09-28 21:35:36",24.212.174.218,"Mozilla/5.0 (Macintosh; Intel Mac OS X 10_15_6) AppleWebKit/605.1.15 (KHTML, like Gecko) Version/13.1.2 Safari/605.1.15",Macintosh,Safari,13.1.2,"OS X",10_15_6,fe3c1d035a65c549f7011c5446f73ede
9,1,5717.000000000058,arrowleft,psychophysics,151,486348,0.0-3.0-0.73,"""",key,arrowleft,16.666666666666668,840,493.5,74,3,1,20,15,25,35,false,"2021-09-28 21:35:36",24.212.174.218,"Mozilla/5.0 (Macintosh; Intel Mac OS X 10_15_6) AppleWebKit/605.1.15 (KHTML, like Gecko) Version/13.1.2 Safari/605.1.15",Macintosh,Safari,13.1.2,"OS X",10_15_6,fe3c1d035a65c549f7011c5446f73ede
9,1,null,null,psychophysics,152,487356,0.0-3.0-1.73,"""",key,null,16.64406779661017,840,493.5,"""","""","""","""","""","""","""","""","2021-09-28 21:35:36",24.212.174.218,"Mozilla/5.0 (Macintosh; Intel Mac OS X 10_15_6) AppleWebKit/605.1.15 (KHTML, like Gecko) Version/13.1.2 Safari/605.1.15",Macintosh,Safari,13.1.2,"OS X",10_15_6,fe3c1d035a65c549f7011c5446f73ede
9,1,5638,arrowleft,psychophysics,153,493011,0.0-3.0-0.74,"""",key,arrowleft,16.64896755162242,840,493.5,75,3,1,24,35,25,35,false,"2021-09-28 21:35:36",24.212.174.218,"Mozilla/5.0 (Macintosh; Intel Mac OS X 10_15_6) AppleWebKit/605.1.15 (KHTML, like Gecko) Version/13.1.2 Safari/605.1.15",Macintosh,Safari,13.1.2,"OS X",10_15_6,fe3c1d035a65c549f7011c5446f73ede
9,1,null,null,psychophysics,154,494021,0.0-3.0-1.74,"""",key,null,16.610169491525422,840,493.5,"""","""","""","""","""","""","""","""","2021-09-28 21:35:36",24.212.174.218,"Mozilla/5.0 (Macintosh; Intel Mac OS X 10_15_6) AppleWebKit/605.1.15 (KHTML, like Gecko) Version/13.1.2 Safari/605.1.15",Macintosh,Safari,13.1.2,"OS X",10_15_6,fe3c1d035a65c549f7011c5446f73ede
9,1,1103.0000000000582,arrowleft,psychophysics,155,495141,0.0-3.0-0.75,"""",key,arrowleft,16.611940298507463,840,493.5,76,3,-1,27,15,25,35,true,"2021-09-28 21:35:36",24.212.174.218,"Mozilla/5.0 (Macintosh; Intel Mac OS X 10_15_6) AppleWebKit/605.1.15 (KHTML, like Gecko) Version/13.1.2 Safari/605.1.15",Macintosh,Safari,13.1.2,"OS X",10_15_6,fe3c1d035a65c549f7011c5446f73ede
9,1,null,null,psychophysics,156,496145,0.0-3.0-1.75,"""",key,null,16.677966101694917,840,493.5,"""","""","""","""","""","""","""","""","2021-09-28 21:35:36",24.212.174.218,"Mozilla/5.0 (Macintosh; Intel Mac OS X 10_15_6) AppleWebKit/605.1.15 (KHTML, like Gecko) Version/13.1.2 Safari/605.1.15",Macintosh,Safari,13.1.2,"OS X",10_15_6,fe3c1d035a65c549f7011c5446f73ede
9,1,1488,arrowleft,psychophysics,157,497637,0.0-3.0-0.76,"""",key,arrowleft,16.670454545454547,840,493.5,77,3,-1,25,15,25,35,true,"2021-09-28 21:35:36",24.212.174.218,"Mozilla/5.0 (Macintosh; Intel Mac OS X 10_15_6) AppleWebKit/605.1.15 (KHTML, like Gecko) Version/13.1.2 Safari/605.1.15",Macintosh,Safari,13.1.2,"OS X",10_15_6,fe3c1d035a65c549f7011c5446f73ede
9,1,null,null,psychophysics,158,498641,0.0-3.0-1.76,"""",key,null,16.65,840,493.5,"""","""","""","""","""","""","""","""","2021-09-28 21:35:36",24.212.174.218,"Mozilla/5.0 (Macintosh; Intel Mac OS X 10_15_6) AppleWebKit/605.1.15 (KHTML, like Gecko) Version/13.1.2 Safari/605.1.15",Macintosh,Safari,13.1.2,"OS X",10_15_6,fe3c1d035a65c549f7011c5446f73ede
9,1,2904.999999999942,arrowleft,psychophysics,159,501558,0.0-3.0-0.77,"""",key,arrowleft,16.660919540229884,840,493.5,78,3,1,23,15,25,35,false,"2021-09-28 21:35:36",24.212.174.218,"Mozilla/5.0 (Macintosh; Intel Mac OS X 10_15_6) AppleWebKit/605.1.15 (KHTML, like Gecko) Version/13.1.2 Safari/605.1.15",Macintosh,Safari,13.1.2,"OS X",10_15_6,fe3c1d035a65c549f7011c5446f73ede
9,1,null,null,psychophysics,160,502561,0.0-3.0-1.77,"""",key,null,16.694915254237287,840,493.5,"""","""","""","""","""","""","""","""","2021-09-28 21:35:36",24.212.174.218,"Mozilla/5.0 (Macintosh; Intel Mac OS X 10_15_6) AppleWebKit/605.1.15 (KHTML, like Gecko) Version/13.1.2 Safari/605.1.15",Macintosh,Safari,13.1.2,"OS X",10_15_6,fe3c1d035a65c549f7011c5446f73ede
9,1,5401.000000000058,arrowleft,psychophysics,161,507968,0.0-3.0-0.78,"""",key,arrowleft,16.6656346749226,840,493.5,79,3,1,25,35,25,35,false,"2021-09-28 21:35:36",24.212.174.218,"Mozilla/5.0 (Macintosh; Intel Mac OS X 10_15_6) AppleWebKit/605.1.15 (KHTML, like Gecko) Version/13.1.2 Safari/605.1.15",Macintosh,Safari,13.1.2,"OS X",10_15_6,fe3c1d035a65c549f7011c5446f73ede
9,1,null,null,psychophysics,162,508978,0.0-3.0-1.78,"""",key,null,16.583333333333332,840,493.5,"""","""","""","""","""","""","""","""","2021-09-28 21:35:36",24.212.174.218,"Mozilla/5.0 (Macintosh; Intel Mac OS X 10_15_6) AppleWebKit/605.1.15 (KHTML, like Gecko) Version/13.1.2 Safari/605.1.15",Macintosh,Safari,13.1.2,"OS X",10_15_6,fe3c1d035a65c549f7011c5446f73ede
9,1,1377,arrowleft,psychophysics,163,510359,0.0-3.0-0.79,"""",key,arrowleft,16.658536585365855,840,493.5,80,3,1,20,15,25,35,false,"2021-09-28 21:35:36",24.212.174.218,"Mozilla/5.0 (Macintosh; Intel Mac OS X 10_15_6) AppleWebKit/605.1.15 (KHTML, like Gecko) Version/13.1.2 Safari/605.1.15",Macintosh,Safari,13.1.2,"OS X",10_15_6,fe3c1d035a65c549f7011c5446f73ede
9,1,null,null,psychophysics,164,511361,0.0-3.0-1.79,"""",key,null,16.661016949152543,840,493.5,"""","""","""","""","""","""","""","""","2021-09-28 21:35:36",24.212.174.218,"Mozilla/5.0 (Macintosh; Intel Mac OS X 10_15_6) AppleWebKit/605.1.15 (KHTML, like Gecko) Version/13.1.2 Safari/605.1.15",Macintosh,Safari,13.1.2,"OS X",10_15_6,fe3c1d035a65c549f7011c5446f73ede
9,1,1581.0000000000582,arrowright,psychophysics,165,512946,0.0-3.0-0.80,"""",key,arrowright,16.670212765957448,840,493.5,81,3,1,26,35,25,35,true,"2021-09-28 21:35:36",24.212.174.218,"Mozilla/5.0 (Macintosh; Intel Mac OS X 10_15_6) AppleWebKit/605.1.15 (KHTML, like Gecko) Version/13.1.2 Safari/605.1.15",Macintosh,Safari,13.1.2,"OS X",10_15_6,fe3c1d035a65c549f7011c5446f73ede
9,1,null,null,psychophysics,166,513949,0.0-3.0-1.80,"""",key,null,16.661016949152543,840,493.5,"""","""","""","""","""","""","""","""","2021-09-28 21:35:36",24.212.174.218,"Mozilla/5.0 (Macintosh; Intel Mac OS X 10_15_6) AppleWebKit/605.1.15 (KHTML, like Gecko) Version/13.1.2 Safari/605.1.15",Macintosh,Safari,13.1.2,"OS X",10_15_6,fe3c1d035a65c549f7011c5446f73ede
9,1,902,arrowright,psychophysics,167,514875,0.0-3.0-0.81,"""",key,arrowright,16.563636363636363,840,493.5,82,3,-1,20,35,25,35,false,"2021-09-28 21:35:36",24.212.174.218,"Mozilla/5.0 (Macintosh; Intel Mac OS X 10_15_6) AppleWebKit/605.1.15 (KHTML, like Gecko) Version/13.1.2 Safari/605.1.15",Macintosh,Safari,13.1.2,"OS X",10_15_6,fe3c1d035a65c549f7011c5446f73ede
9,1,null,null,psychophysics,168,515878,0.0-3.0-1.81,"""",key,null,16.661016949152543,840,493.5,"""","""","""","""","""","""","""","""","2021-09-28 21:35:36",24.212.174.218,"Mozilla/5.0 (Macintosh; Intel Mac OS X 10_15_6) AppleWebKit/605.1.15 (KHTML, like Gecko) Version/13.1.2 Safari/605.1.15",Macintosh,Safari,13.1.2,"OS X",10_15_6,fe3c1d035a65c549f7011c5446f73ede
9,1,2069.999999999942,arrowright,psychophysics,169,517953,0.0-3.0-0.82,"""",key,arrowright,16.666666666666668,840,493.5,83,3,-1,20,15,25,35,false,"2021-09-28 21:35:36",24.212.174.218,"Mozilla/5.0 (Macintosh; Intel Mac OS X 10_15_6) AppleWebKit/605.1.15 (KHTML, like Gecko) Version/13.1.2 Safari/605.1.15",Macintosh,Safari,13.1.2,"OS X",10_15_6,fe3c1d035a65c549f7011c5446f73ede
9,1,null,null,psychophysics,170,518956,0.0-3.0-1.82,"""",key,null,16.677966101694917,840,493.5,"""","""","""","""","""","""","""","""","2021-09-28 21:35:36",24.212.174.218,"Mozilla/5.0 (Macintosh; Intel Mac OS X 10_15_6) AppleWebKit/605.1.15 (KHTML, like Gecko) Version/13.1.2 Safari/605.1.15",Macintosh,Safari,13.1.2,"OS X",10_15_6,fe3c1d035a65c549f7011c5446f73ede
9,1,1336,arrowleft,psychophysics,171,520308,0.0-3.0-0.83,"""",key,arrowleft,16.604938271604937,840,493.5,84,4,-1,30,35,25,35,true,"2021-09-28 21:35:36",24.212.174.218,"Mozilla/5.0 (Macintosh; Intel Mac OS X 10_15_6) AppleWebKit/605.1.15 (KHTML, like Gecko) Version/13.1.2 Safari/605.1.15",Macintosh,Safari,13.1.2,"OS X",10_15_6,fe3c1d035a65c549f7011c5446f73ede
9,1,null,null,psychophysics,172,521319,0.0-3.0-1.83,"""",key,null,16.677966101694917,840,493.5,"""","""","""","""","""","""","""","""","2021-09-28 21:35:36",24.212.174.218,"Mozilla/5.0 (Macintosh; Intel Mac OS X 10_15_6) AppleWebKit/605.1.15 (KHTML, like Gecko) Version/13.1.2 Safari/605.1.15",Macintosh,Safari,13.1.2,"OS X",10_15_6,fe3c1d035a65c549f7011c5446f73ede
9,1,10576.999999999942," ",html-keyboard-response,173,531899,0.0-3.0-2.83-0.83,"<div style=""color: white; text-align: center; vertical-align: top; display: inline-block; width: 800px; margin: auto""><p>You have completed 30% of the trials. You are on block 4 of 10. <br>Good job! Take a break if you need to.</p><p>Press any key to continue the experiment.</p></div>","""","""","""","""","""","""","""","""","""","""","""","""","""","2021-09-28 21:35:36",24.212.174.218,"Mozilla/5.0 (Macintosh; Intel Mac OS X 10_15_6) AppleWebKit/605.1.15 (KHTML, like Gecko) Version/13.1.2 Safari/605.1.15",Macintosh,Safari,13.1.2,"OS X",10_15_6,fe3c1d035a65c549f7011c5446f73ede
9,1,3127,arrowright,psychophysics,174,536036,0.0-3.0-0.84,"""",key,arrowright,16.629032258064516,840,493.5,85,4,1,26,35,25,35,true,"2021-09-28 21:35:36",24.212.174.218,"Mozilla/5.0 (Macintosh; Intel Mac OS X 10_15_6) AppleWebKit/605.1.15 (KHTML, like Gecko) Version/13.1.2 Safari/605.1.15",Macintosh,Safari,13.1.2,"OS X",10_15_6,fe3c1d035a65c549f7011c5446f73ede
9,1,null,null,psychophysics,175,537040,0.0-3.0-1.84,"""",key,null,16.661016949152543,840,493.5,"""","""","""","""","""","""","""","""","2021-09-28 21:35:36",24.212.174.218,"Mozilla/5.0 (Macintosh; Intel Mac OS X 10_15_6) AppleWebKit/605.1.15 (KHTML, like Gecko) Version/13.1.2 Safari/605.1.15",Macintosh,Safari,13.1.2,"OS X",10_15_6,fe3c1d035a65c549f7011c5446f73ede
9,1,1536,arrowleft,psychophysics,176,538594,0.0-3.0-0.85,"""",key,arrowleft,16.623655913978496,840,493.5,86,4,-1,25,35,25,35,true,"2021-09-28 21:35:36",24.212.174.218,"Mozilla/5.0 (Macintosh; Intel Mac OS X 10_15_6) AppleWebKit/605.1.15 (KHTML, like Gecko) Version/13.1.2 Safari/605.1.15",Macintosh,Safari,13.1.2,"OS X",10_15_6,fe3c1d035a65c549f7011c5446f73ede
9,1,null,null,psychophysics,177,539600,0.0-3.0-1.85,"""",key,null,16.661016949152543,840,493.5,"""","""","""","""","""","""","""","""","2021-09-28 21:35:36",24.212.174.218,"Mozilla/5.0 (Macintosh; Intel Mac OS X 10_15_6) AppleWebKit/605.1.15 (KHTML, like Gecko) Version/13.1.2 Safari/605.1.15",Macintosh,Safari,13.1.2,"OS X",10_15_6,fe3c1d035a65c549f7011c5446f73ede
9,1,905.9999999998836,arrowright,psychophysics,178,540511,0.0-3.0-0.86,"""",key,arrowright,16.666666666666668,840,493.5,87,4,-1,23,35,25,35,false,"2021-09-28 21:35:36",24.212.174.218,"Mozilla/5.0 (Macintosh; Intel Mac OS X 10_15_6) AppleWebKit/605.1.15 (KHTML, like Gecko) Version/13.1.2 Safari/605.1.15",Macintosh,Safari,13.1.2,"OS X",10_15_6,fe3c1d035a65c549f7011c5446f73ede
9,1,null,null,psychophysics,179,541514,0.0-3.0-1.86,"""",key,null,16.677966101694917,840,493.5,"""","""","""","""","""","""","""","""","2021-09-28 21:35:36",24.212.174.218,"Mozilla/5.0 (Macintosh; Intel Mac OS X 10_15_6) AppleWebKit/605.1.15 (KHTML, like Gecko) Version/13.1.2 Safari/605.1.15",Macintosh,Safari,13.1.2,"OS X",10_15_6,fe3c1d035a65c549f7011c5446f73ede
9,1,4838,arrowleft,psychophysics,180,546357,0.0-3.0-0.87,"""",key,arrowleft,16.664359861591695,840,493.5,88,4,-1,23,15,25,35,true,"2021-09-28 21:35:36",24.212.174.218,"Mozilla/5.0 (Macintosh; Intel Mac OS X 10_15_6) AppleWebKit/605.1.15 (KHTML, like Gecko) Version/13.1.2 Safari/605.1.15",Macintosh,Safari,13.1.2,"OS X",10_15_6,fe3c1d035a65c549f7011c5446f73ede
9,1,null,null,psychophysics,181,547364,0.0-3.0-1.87,"""",key,null,16.583333333333332,840,493.5,"""","""","""","""","""","""","""","""","2021-09-28 21:35:36",24.212.174.218,"Mozilla/5.0 (Macintosh; Intel Mac OS X 10_15_6) AppleWebKit/605.1.15 (KHTML, like Gecko) Version/13.1.2 Safari/605.1.15",Macintosh,Safari,13.1.2,"OS X",10_15_6,fe3c1d035a65c549f7011c5446f73ede
9,1,938,arrowright,psychophysics,182,548306,0.0-3.0-0.88,"""",key,arrowright,16.672727272727272,840,493.5,89,4,1,30,15,25,35,true,"2021-09-28 21:35:36",24.212.174.218,"Mozilla/5.0 (Macintosh; Intel Mac OS X 10_15_6) AppleWebKit/605.1.15 (KHTML, like Gecko) Version/13.1.2 Safari/605.1.15",Macintosh,Safari,13.1.2,"OS X",10_15_6,fe3c1d035a65c549f7011c5446f73ede
9,1,null,null,psychophysics,183,549308,0.0-3.0-1.88,"""",key,null,16.661016949152543,840,493.5,"""","""","""","""","""","""","""","""","2021-09-28 21:35:36",24.212.174.218,"Mozilla/5.0 (Macintosh; Intel Mac OS X 10_15_6) AppleWebKit/605.1.15 (KHTML, like Gecko) Version/13.1.2 Safari/605.1.15",Macintosh,Safari,13.1.2,"OS X",10_15_6,fe3c1d035a65c549f7011c5446f73ede
9,1,747.9999999998836,arrowright,psychophysics,184,550074,0.0-3.0-0.89,"""",key,arrowright,16.57777777777778,840,493.5,90,4,1,30,15,25,35,true,"2021-09-28 21:35:36",24.212.174.218,"Mozilla/5.0 (Macintosh; Intel Mac OS X 10_15_6) AppleWebKit/605.1.15 (KHTML, like Gecko) Version/13.1.2 Safari/605.1.15",Macintosh,Safari,13.1.2,"OS X",10_15_6,fe3c1d035a65c549f7011c5446f73ede
9,1,null,null,psychophysics,185,551078,0.0-3.0-1.89,"""",key,null,16.65,840,493.5,"""","""","""","""","""","""","""","""","2021-09-28 21:35:36",24.212.174.218,"Mozilla/5.0 (Macintosh; Intel Mac OS X 10_15_6) AppleWebKit/605.1.15 (KHTML, like Gecko) Version/13.1.2 Safari/605.1.15",Macintosh,Safari,13.1.2,"OS X",10_15_6,fe3c1d035a65c549f7011c5446f73ede
9,1,3206,arrowleft,psychophysics,186,554289,0.0-3.0-0.90,"""",key,arrowleft,16.664921465968586,840,493.5,91,4,-1,26,15,25,35,true,"2021-09-28 21:35:36",24.212.174.218,"Mozilla/5.0 (Macintosh; Intel Mac OS X 10_15_6) AppleWebKit/605.1.15 (KHTML, like Gecko) Version/13.1.2 Safari/605.1.15",Macintosh,Safari,13.1.2,"OS X",10_15_6,fe3c1d035a65c549f7011c5446f73ede
9,1,null,null,psychophysics,187,555295,0.0-3.0-1.90,"""",key,null,16.616666666666667,840,493.5,"""","""","""","""","""","""","""","""","2021-09-28 21:35:36",24.212.174.218,"Mozilla/5.0 (Macintosh; Intel Mac OS X 10_15_6) AppleWebKit/605.1.15 (KHTML, like Gecko) Version/13.1.2 Safari/605.1.15",Macintosh,Safari,13.1.2,"OS X",10_15_6,fe3c1d035a65c549f7011c5446f73ede
9,1,1124,arrowleft,psychophysics,188,556423,0.0-3.0-0.91,"""",key,arrowleft,16.651515151515152,840,493.5,92,4,-1,26,35,25,35,true,"2021-09-28 21:35:36",24.212.174.218,"Mozilla/5.0 (Macintosh; Intel Mac OS X 10_15_6) AppleWebKit/605.1.15 (KHTML, like Gecko) Version/13.1.2 Safari/605.1.15",Macintosh,Safari,13.1.2,"OS X",10_15_6,fe3c1d035a65c549f7011c5446f73ede
9,1,null,null,psychophysics,189,557426,0.0-3.0-1.91,"""",key,null,16.65,840,493.5,"""","""","""","""","""","""","""","""","2021-09-28 21:35:36",24.212.174.218,"Mozilla/5.0 (Macintosh; Intel Mac OS X 10_15_6) AppleWebKit/605.1.15 (KHTML, like Gecko) Version/13.1.2 Safari/605.1.15",Macintosh,Safari,13.1.2,"OS X",10_15_6,fe3c1d035a65c549f7011c5446f73ede
9,1,944.0000000001164,arrowleft,psychophysics,190,558374,0.0-3.0-0.92,"""",key,arrowleft,16.672727272727272,840,493.5,93,4,-1,26,35,25,35,true,"2021-09-28 21:35:36",24.212.174.218,"Mozilla/5.0 (Macintosh; Intel Mac OS X 10_15_6) AppleWebKit/605.1.15 (KHTML, like Gecko) Version/13.1.2 Safari/605.1.15",Macintosh,Safari,13.1.2,"OS X",10_15_6,fe3c1d035a65c549f7011c5446f73ede
9,1,null,null,psychophysics,191,559378,0.0-3.0-1.92,"""",key,null,16.633333333333333,840,493.5,"""","""","""","""","""","""","""","""","2021-09-28 21:35:36",24.212.174.218,"Mozilla/5.0 (Macintosh; Intel Mac OS X 10_15_6) AppleWebKit/605.1.15 (KHTML, like Gecko) Version/13.1.2 Safari/605.1.15",Macintosh,Safari,13.1.2,"OS X",10_15_6,fe3c1d035a65c549f7011c5446f73ede
9,1,985,arrowleft,psychophysics,192,560367,0.0-3.0-0.93,"""",key,arrowleft,16.67241379310345,840,493.5,94,4,-1,30,35,25,35,true,"2021-09-28 21:35:36",24.212.174.218,"Mozilla/5.0 (Macintosh; Intel Mac OS X 10_15_6) AppleWebKit/605.1.15 (KHTML, like Gecko) Version/13.1.2 Safari/605.1.15",Macintosh,Safari,13.1.2,"OS X",10_15_6,fe3c1d035a65c549f7011c5446f73ede
9,1,null,null,psychophysics,193,561375,0.0-3.0-1.93,"""",key,null,16.677966101694917,840,493.5,"""","""","""","""","""","""","""","""","2021-09-28 21:35:36",24.212.174.218,"Mozilla/5.0 (Macintosh; Intel Mac OS X 10_15_6) AppleWebKit/605.1.15 (KHTML, like Gecko) Version/13.1.2 Safari/605.1.15",Macintosh,Safari,13.1.2,"OS X",10_15_6,fe3c1d035a65c549f7011c5446f73ede
9,1,1612,arrowright,psychophysics,194,563003,0.0-3.0-0.94,"""",key,arrowright,16.628865979381445,840,493.5,95,4,1,27,35,25,35,true,"2021-09-28 21:35:36",24.212.174.218,"Mozilla/5.0 (Macintosh; Intel Mac OS X 10_15_6) AppleWebKit/605.1.15 (KHTML, like Gecko) Version/13.1.2 Safari/605.1.15",Macintosh,Safari,13.1.2,"OS X",10_15_6,fe3c1d035a65c549f7011c5446f73ede
9,1,null,null,psychophysics,195,564006,0.0-3.0-1.94,"""",key,null,16.64406779661017,840,493.5,"""","""","""","""","""","""","""","""","2021-09-28 21:35:36",24.212.174.218,"Mozilla/5.0 (Macintosh; Intel Mac OS X 10_15_6) AppleWebKit/605.1.15 (KHTML, like Gecko) Version/13.1.2 Safari/605.1.15",Macintosh,Safari,13.1.2,"OS X",10_15_6,fe3c1d035a65c549f7011c5446f73ede
9,1,1658,arrowright,psychophysics,196,565682,0.0-3.0-0.95,"""",key,arrowright,16.63,840,493.5,96,4,-1,20,15,25,35,false,"2021-09-28 21:35:36",24.212.174.218,"Mozilla/5.0 (Macintosh; Intel Mac OS X 10_15_6) AppleWebKit/605.1.15 (KHTML, like Gecko) Version/13.1.2 Safari/605.1.15",Macintosh,Safari,13.1.2,"OS X",10_15_6,fe3c1d035a65c549f7011c5446f73ede
9,1,null,null,psychophysics,197,566690,0.0-3.0-1.95,"""",key,null,16.677966101694917,840,493.5,"""","""","""","""","""","""","""","""","2021-09-28 21:35:36",24.212.174.218,"Mozilla/5.0 (Macintosh; Intel Mac OS X 10_15_6) AppleWebKit/605.1.15 (KHTML, like Gecko) Version/13.1.2 Safari/605.1.15",Macintosh,Safari,13.1.2,"OS X",10_15_6,fe3c1d035a65c549f7011c5446f73ede
9,1,612,arrowleft,psychophysics,198,567314,0.0-3.0-0.96,"""",key,arrowleft,16.64864864864865,840,493.5,97,4,1,24,35,25,35,false,"2021-09-28 21:35:36",24.212.174.218,"Mozilla/5.0 (Macintosh; Intel Mac OS X 10_15_6) AppleWebKit/605.1.15 (KHTML, like Gecko) Version/13.1.2 Safari/605.1.15",Macintosh,Safari,13.1.2,"OS X",10_15_6,fe3c1d035a65c549f7011c5446f73ede
9,1,null,null,psychophysics,199,568316,0.0-3.0-1.96,"""",key,null,16.677966101694917,840,493.5,"""","""","""","""","""","""","""","""","2021-09-28 21:35:36",24.212.174.218,"Mozilla/5.0 (Macintosh; Intel Mac OS X 10_15_6) AppleWebKit/605.1.15 (KHTML, like Gecko) Version/13.1.2 Safari/605.1.15",Macintosh,Safari,13.1.2,"OS X",10_15_6,fe3c1d035a65c549f7011c5446f73ede
9,1,899,arrowright,psychophysics,200,569221,0.0-3.0-0.97,"""",key,arrowright,16.641509433962263,840,493.5,98,4,1,26,15,25,35,true,"2021-09-28 21:35:36",24.212.174.218,"Mozilla/5.0 (Macintosh; Intel Mac OS X 10_15_6) AppleWebKit/605.1.15 (KHTML, like Gecko) Version/13.1.2 Safari/605.1.15",Macintosh,Safari,13.1.2,"OS X",10_15_6,fe3c1d035a65c549f7011c5446f73ede
9,1,null,null,psychophysics,201,570224,0.0-3.0-1.97,"""",key,null,16.677966101694917,840,493.5,"""","""","""","""","""","""","""","""","2021-09-28 21:35:36",24.212.174.218,"Mozilla/5.0 (Macintosh; Intel Mac OS X 10_15_6) AppleWebKit/605.1.15 (KHTML, like Gecko) Version/13.1.2 Safari/605.1.15",Macintosh,Safari,13.1.2,"OS X",10_15_6,fe3c1d035a65c549f7011c5446f73ede
9,1,1798,arrowleft,psychophysics,202,572042,0.0-3.0-0.98,"""",key,arrowleft,16.623853211009173,840,493.5,99,4,-1,27,35,25,35,true,"2021-09-28 21:35:36",24.212.174.218,"Mozilla/5.0 (Macintosh; Intel Mac OS X 10_15_6) AppleWebKit/605.1.15 (KHTML, like Gecko) Version/13.1.2 Safari/605.1.15",Macintosh,Safari,13.1.2,"OS X",10_15_6,fe3c1d035a65c549f7011c5446f73ede
9,1,null,null,psychophysics,203,573048,0.0-3.0-1.98,"""",key,null,16.661016949152543,840,493.5,"""","""","""","""","""","""","""","""","2021-09-28 21:35:36",24.212.174.218,"Mozilla/5.0 (Macintosh; Intel Mac OS X 10_15_6) AppleWebKit/605.1.15 (KHTML, like Gecko) Version/13.1.2 Safari/605.1.15",Macintosh,Safari,13.1.2,"OS X",10_15_6,fe3c1d035a65c549f7011c5446f73ede
9,1,1864.9999999998836,arrowleft,psychophysics,204,574917,0.0-3.0-0.99,"""",key,arrowleft,16.675675675675677,840,493.5,100,4,-1,27,35,25,35,true,"2021-09-28 21:35:36",24.212.174.218,"Mozilla/5.0 (Macintosh; Intel Mac OS X 10_15_6) AppleWebKit/605.1.15 (KHTML, like Gecko) Version/13.1.2 Safari/605.1.15",Macintosh,Safari,13.1.2,"OS X",10_15_6,fe3c1d035a65c549f7011c5446f73ede
9,1,null,null,psychophysics,205,575920,0.0-3.0-1.99,"""",key,null,16.677966101694917,840,493.5,"""","""","""","""","""","""","""","""","2021-09-28 21:35:36",24.212.174.218,"Mozilla/5.0 (Macintosh; Intel Mac OS X 10_15_6) AppleWebKit/605.1.15 (KHTML, like Gecko) Version/13.1.2 Safari/605.1.15",Macintosh,Safari,13.1.2,"OS X",10_15_6,fe3c1d035a65c549f7011c5446f73ede
9,1,4457,arrowright,psychophysics,206,580383,0.0-3.0-0.100,"""",key,arrowright,16.662921348314608,840,493.5,101,4,1,23,15,25,35,true,"2021-09-28 21:35:36",24.212.174.218,"Mozilla/5.0 (Macintosh; Intel Mac OS X 10_15_6) AppleWebKit/605.1.15 (KHTML, like Gecko) Version/13.1.2 Safari/605.1.15",Macintosh,Safari,13.1.2,"OS X",10_15_6,fe3c1d035a65c549f7011c5446f73ede
9,1,null,null,psychophysics,207,581394,0.0-3.0-1.100,"""",key,null,16.65,840,493.5,"""","""","""","""","""","""","""","""","2021-09-28 21:35:36",24.212.174.218,"Mozilla/5.0 (Macintosh; Intel Mac OS X 10_15_6) AppleWebKit/605.1.15 (KHTML, like Gecko) Version/13.1.2 Safari/605.1.15",Macintosh,Safari,13.1.2,"OS X",10_15_6,fe3c1d035a65c549f7011c5446f73ede
9,1,1129.0000000001164,arrowright,psychophysics,208,582528,0.0-3.0-0.101,"""",key,arrowright,16.671641791044777,840,493.5,102,4,-1,23,35,25,35,false,"2021-09-28 21:35:36",24.212.174.218,"Mozilla/5.0 (Macintosh; Intel Mac OS X 10_15_6) AppleWebKit/605.1.15 (KHTML, like Gecko) Version/13.1.2 Safari/605.1.15",Macintosh,Safari,13.1.2,"OS X",10_15_6,fe3c1d035a65c549f7011c5446f73ede
9,1,null,null,psychophysics,209,583531,0.0-3.0-1.101,"""",key,null,16.661016949152543,840,493.5,"""","""","""","""","""","""","""","""","2021-09-28 21:35:36",24.212.174.218,"Mozilla/5.0 (Macintosh; Intel Mac OS X 10_15_6) AppleWebKit/605.1.15 (KHTML, like Gecko) Version/13.1.2 Safari/605.1.15",Macintosh,Safari,13.1.2,"OS X",10_15_6,fe3c1d035a65c549f7011c5446f73ede
9,1,1868.0000000001164,arrowleft,psychophysics,210,585403,0.0-3.0-0.102,"""",key,arrowleft,16.666666666666668,840,493.5,103,4,1,23,35,25,35,false,"2021-09-28 21:35:36",24.212.174.218,"Mozilla/5.0 (Macintosh; Intel Mac OS X 10_15_6) AppleWebKit/605.1.15 (KHTML, like Gecko) Version/13.1.2 Safari/605.1.15",Macintosh,Safari,13.1.2,"OS X",10_15_6,fe3c1d035a65c549f7011c5446f73ede
9,1,null,null,psychophysics,211,586407,0.0-3.0-1.102,"""",key,null,16.694915254237287,840,493.5,"""","""","""","""","""","""","""","""","2021-09-28 21:35:36",24.212.174.218,"Mozilla/5.0 (Macintosh; Intel Mac OS X 10_15_6) AppleWebKit/605.1.15 (KHTML, like Gecko) Version/13.1.2 Safari/605.1.15",Macintosh,Safari,13.1.2,"OS X",10_15_6,fe3c1d035a65c549f7011c5446f73ede
9,1,846,arrowleft,psychophysics,212,587276,0.0-3.0-0.103,"""",key,arrowleft,16.48076923076923,840,493.5,104,4,-1,30,35,25,35,true,"2021-09-28 21:35:36",24.212.174.218,"Mozilla/5.0 (Macintosh; Intel Mac OS X 10_15_6) AppleWebKit/605.1.15 (KHTML, like Gecko) Version/13.1.2 Safari/605.1.15",Macintosh,Safari,13.1.2,"OS X",10_15_6,fe3c1d035a65c549f7011c5446f73ede
9,1,null,null,psychophysics,213,588279,0.0-3.0-1.103,"""",key,null,16.677966101694917,840,493.5,"""","""","""","""","""","""","""","""","2021-09-28 21:35:36",24.212.174.218,"Mozilla/5.0 (Macintosh; Intel Mac OS X 10_15_6) AppleWebKit/605.1.15 (KHTML, like Gecko) Version/13.1.2 Safari/605.1.15",Macintosh,Safari,13.1.2,"OS X",10_15_6,fe3c1d035a65c549f7011c5446f73ede
9,1,861,arrowright,psychophysics,214,589146,0.0-3.0-0.104,"""",key,arrowright,16.647058823529413,840,493.5,105,4,-1,20,35,25,35,false,"2021-09-28 21:35:36",24.212.174.218,"Mozilla/5.0 (Macintosh; Intel Mac OS X 10_15_6) AppleWebKit/605.1.15 (KHTML, like Gecko) Version/13.1.2 Safari/605.1.15",Macintosh,Safari,13.1.2,"OS X",10_15_6,fe3c1d035a65c549f7011c5446f73ede
9,1,null,null,psychophysics,215,590149,0.0-3.0-1.104,"""",key,null,16.661016949152543,840,493.5,"""","""","""","""","""","""","""","""","2021-09-28 21:35:36",24.212.174.218,"Mozilla/5.0 (Macintosh; Intel Mac OS X 10_15_6) AppleWebKit/605.1.15 (KHTML, like Gecko) Version/13.1.2 Safari/605.1.15",Macintosh,Safari,13.1.2,"OS X",10_15_6,fe3c1d035a65c549f7011c5446f73ede
9,1,992.9999999998836,arrowright,psychophysics,216,591147,0.0-3.0-0.105,"""",key,arrowright,16.661016949152543,840,493.5,106,4,1,30,15,25,35,true,"2021-09-28 21:35:36",24.212.174.218,"Mozilla/5.0 (Macintosh; Intel Mac OS X 10_15_6) AppleWebKit/605.1.15 (KHTML, like Gecko) Version/13.1.2 Safari/605.1.15",Macintosh,Safari,13.1.2,"OS X",10_15_6,fe3c1d035a65c549f7011c5446f73ede
9,1,null,null,psychophysics,217,592150,0.0-3.0-1.105,"""",key,null,16.677966101694917,840,493.5,"""","""","""","""","""","""","""","""","2021-09-28 21:35:36",24.212.174.218,"Mozilla/5.0 (Macintosh; Intel Mac OS X 10_15_6) AppleWebKit/605.1.15 (KHTML, like Gecko) Version/13.1.2 Safari/605.1.15",Macintosh,Safari,13.1.2,"OS X",10_15_6,fe3c1d035a65c549f7011c5446f73ede
9,1,1337,arrowleft,psychophysics,218,593511,0.0-3.0-0.106,"""",key,arrowleft,16.65432098765432,840,493.5,107,4,1,23,35,25,35,false,"2021-09-28 21:35:36",24.212.174.218,"Mozilla/5.0 (Macintosh; Intel Mac OS X 10_15_6) AppleWebKit/605.1.15 (KHTML, like Gecko) Version/13.1.2 Safari/605.1.15",Macintosh,Safari,13.1.2,"OS X",10_15_6,fe3c1d035a65c549f7011c5446f73ede
9,1,null,null,psychophysics,219,594515,0.0-3.0-1.106,"""",key,null,16.661016949152543,840,493.5,"""","""","""","""","""","""","""","""","2021-09-28 21:35:36",24.212.174.218,"Mozilla/5.0 (Macintosh; Intel Mac OS X 10_15_6) AppleWebKit/605.1.15 (KHTML, like Gecko) Version/13.1.2 Safari/605.1.15",Macintosh,Safari,13.1.2,"OS X",10_15_6,fe3c1d035a65c549f7011c5446f73ede
9,1,698,arrowleft,psychophysics,220,595218,0.0-3.0-0.107,"""",key,arrowleft,16.658536585365855,840,493.5,108,4,-1,30,35,25,35,true,"2021-09-28 21:35:36",24.212.174.218,"Mozilla/5.0 (Macintosh; Intel Mac OS X 10_15_6) AppleWebKit/605.1.15 (KHTML, like Gecko) Version/13.1.2 Safari/605.1.15",Macintosh,Safari,13.1.2,"OS X",10_15_6,fe3c1d035a65c549f7011c5446f73ede
9,1,null,null,psychophysics,221,596221,0.0-3.0-1.107,"""",key,null,16.64406779661017,840,493.5,"""","""","""","""","""","""","""","""","2021-09-28 21:35:36",24.212.174.218,"Mozilla/5.0 (Macintosh; Intel Mac OS X 10_15_6) AppleWebKit/605.1.15 (KHTML, like Gecko) Version/13.1.2 Safari/605.1.15",Macintosh,Safari,13.1.2,"OS X",10_15_6,fe3c1d035a65c549f7011c5446f73ede
9,1,1062,arrowright,psychophysics,222,597299,0.0-3.0-0.108,"""",key,arrowright,16.640625,840,493.5,109,4,1,27,15,25,35,true,"2021-09-28 21:35:36",24.212.174.218,"Mozilla/5.0 (Macintosh; Intel Mac OS X 10_15_6) AppleWebKit/605.1.15 (KHTML, like Gecko) Version/13.1.2 Safari/605.1.15",Macintosh,Safari,13.1.2,"OS X",10_15_6,fe3c1d035a65c549f7011c5446f73ede
9,1,null,null,psychophysics,223,598303,0.0-3.0-1.108,"""",key,null,16.661016949152543,840,493.5,"""","""","""","""","""","""","""","""","2021-09-28 21:35:36",24.212.174.218,"Mozilla/5.0 (Macintosh; Intel Mac OS X 10_15_6) AppleWebKit/605.1.15 (KHTML, like Gecko) Version/13.1.2 Safari/605.1.15",Macintosh,Safari,13.1.2,"OS X",10_15_6,fe3c1d035a65c549f7011c5446f73ede
9,1,2259,arrowright,psychophysics,224,600583,0.0-3.0-0.109,"""",key,arrowright,16.639705882352942,840,493.5,110,4,-1,23,35,25,35,false,"2021-09-28 21:35:36",24.212.174.218,"Mozilla/5.0 (Macintosh; Intel Mac OS X 10_15_6) AppleWebKit/605.1.15 (KHTML, like Gecko) Version/13.1.2 Safari/605.1.15",Macintosh,Safari,13.1.2,"OS X",10_15_6,fe3c1d035a65c549f7011c5446f73ede
9,1,null,null,psychophysics,225,601586,0.0-3.0-1.109,"""",key,null,16.694915254237287,840,493.5,"""","""","""","""","""","""","""","""","2021-09-28 21:35:36",24.212.174.218,"Mozilla/5.0 (Macintosh; Intel Mac OS X 10_15_6) AppleWebKit/605.1.15 (KHTML, like Gecko) Version/13.1.2 Safari/605.1.15",Macintosh,Safari,13.1.2,"OS X",10_15_6,fe3c1d035a65c549f7011c5446f73ede
9,1,1387,arrowleft,psychophysics,226,602979,0.0-3.0-0.110,"""",key,arrowleft,16.662650602409638,840,493.5,111,4,-1,23,15,25,35,true,"2021-09-28 21:35:36",24.212.174.218,"Mozilla/5.0 (Macintosh; Intel Mac OS X 10_15_6) AppleWebKit/605.1.15 (KHTML, like Gecko) Version/13.1.2 Safari/605.1.15",Macintosh,Safari,13.1.2,"OS X",10_15_6,fe3c1d035a65c549f7011c5446f73ede
9,1,null,null,psychophysics,227,603982,0.0-3.0-1.110,"""",key,null,16.677966101694917,840,493.5,"""","""","""","""","""","""","""","""","2021-09-28 21:35:36",24.212.174.218,"Mozilla/5.0 (Macintosh; Intel Mac OS X 10_15_6) AppleWebKit/605.1.15 (KHTML, like Gecko) Version/13.1.2 Safari/605.1.15",Macintosh,Safari,13.1.2,"OS X",10_15_6,fe3c1d035a65c549f7011c5446f73ede
9,1,1324,arrowleft,psychophysics,228,605331,0.0-3.0-0.111,"""",key,arrowleft,16.65,840,493.5,112,5,1,20,35,25,35,false,"2021-09-28 21:35:36",24.212.174.218,"Mozilla/5.0 (Macintosh; Intel Mac OS X 10_15_6) AppleWebKit/605.1.15 (KHTML, like Gecko) Version/13.1.2 Safari/605.1.15",Macintosh,Safari,13.1.2,"OS X",10_15_6,fe3c1d035a65c549f7011c5446f73ede
9,1,null,null,psychophysics,229,606333,0.0-3.0-1.111,"""",key,null,16.677966101694917,840,493.5,"""","""","""","""","""","""","""","""","2021-09-28 21:35:36",24.212.174.218,"Mozilla/5.0 (Macintosh; Intel Mac OS X 10_15_6) AppleWebKit/605.1.15 (KHTML, like Gecko) Version/13.1.2 Safari/605.1.15",Macintosh,Safari,13.1.2,"OS X",10_15_6,fe3c1d035a65c549f7011c5446f73ede
9,1,1432," ",html-keyboard-response,230,607768,0.0-3.0-2.111-0.111,"<div style=""color: white; text-align: center; vertical-align: top; display: inline-block; width: 800px; margin: auto""><p>You have completed 40% of the trials. You are on block 5 of 10. <br>Good job! Take a break if you need to.</p><p>Press any key to continue the experiment.</p></div>","""","""","""","""","""","""","""","""","""","""","""","""","""","2021-09-28 21:35:36",24.212.174.218,"Mozilla/5.0 (Macintosh; Intel Mac OS X 10_15_6) AppleWebKit/605.1.15 (KHTML, like Gecko) Version/13.1.2 Safari/605.1.15",Macintosh,Safari,13.1.2,"OS X",10_15_6,fe3c1d035a65c549f7011c5446f73ede
9,1,898,arrowleft,psychophysics,231,609670,0.0-3.0-0.112,"""",key,arrowleft,16.673076923076923,840,493.5,113,5,-1,30,15,25,35,true,"2021-09-28 21:35:36",24.212.174.218,"Mozilla/5.0 (Macintosh; Intel Mac OS X 10_15_6) AppleWebKit/605.1.15 (KHTML, like Gecko) Version/13.1.2 Safari/605.1.15",Macintosh,Safari,13.1.2,"OS X",10_15_6,fe3c1d035a65c549f7011c5446f73ede
9,1,null,null,psychophysics,232,610678,0.0-3.0-1.112,"""",key,null,16.65,840,493.5,"""","""","""","""","""","""","""","""","2021-09-28 21:35:36",24.212.174.218,"Mozilla/5.0 (Macintosh; Intel Mac OS X 10_15_6) AppleWebKit/605.1.15 (KHTML, like Gecko) Version/13.1.2 Safari/605.1.15",Macintosh,Safari,13.1.2,"OS X",10_15_6,fe3c1d035a65c549f7011c5446f73ede
9,1,1798,arrowleft,psychophysics,233,612480,0.0-3.0-0.113,"""",key,arrowleft,16.66355140186916,840,493.5,114,5,-1,26,15,25,35,true,"2021-09-28 21:35:36",24.212.174.218,"Mozilla/5.0 (Macintosh; Intel Mac OS X 10_15_6) AppleWebKit/605.1.15 (KHTML, like Gecko) Version/13.1.2 Safari/605.1.15",Macintosh,Safari,13.1.2,"OS X",10_15_6,fe3c1d035a65c549f7011c5446f73ede
9,1,null,null,psychophysics,234,613483,0.0-3.0-1.113,"""",key,null,16.661016949152543,840,493.5,"""","""","""","""","""","""","""","""","2021-09-28 21:35:36",24.212.174.218,"Mozilla/5.0 (Macintosh; Intel Mac OS X 10_15_6) AppleWebKit/605.1.15 (KHTML, like Gecko) Version/13.1.2 Safari/605.1.15",Macintosh,Safari,13.1.2,"OS X",10_15_6,fe3c1d035a65c549f7011c5446f73ede
9,1,752,arrowright,psychophysics,235,614239,0.0-3.0-0.114,"""",key,arrowright,16.681818181818183,840,493.5,115,5,1,27,15,25,35,true,"2021-09-28 21:35:36",24.212.174.218,"Mozilla/5.0 (Macintosh; Intel Mac OS X 10_15_6) AppleWebKit/605.1.15 (KHTML, like Gecko) Version/13.1.2 Safari/605.1.15",Macintosh,Safari,13.1.2,"OS X",10_15_6,fe3c1d035a65c549f7011c5446f73ede
9,1,null,null,psychophysics,236,615242,0.0-3.0-1.114,"""",key,null,16.677966101694917,840,493.5,"""","""","""","""","""","""","""","""","2021-09-28 21:35:36",24.212.174.218,"Mozilla/5.0 (Macintosh; Intel Mac OS X 10_15_6) AppleWebKit/605.1.15 (KHTML, like Gecko) Version/13.1.2 Safari/605.1.15",Macintosh,Safari,13.1.2,"OS X",10_15_6,fe3c1d035a65c549f7011c5446f73ede
9,1,566,arrowleft,psychophysics,237,615829,0.0-3.0-0.115,"""",key,arrowleft,16.4,840,493.5,116,5,-1,30,15,25,35,true,"2021-09-28 21:35:36",24.212.174.218,"Mozilla/5.0 (Macintosh; Intel Mac OS X 10_15_6) AppleWebKit/605.1.15 (KHTML, like Gecko) Version/13.1.2 Safari/605.1.15",Macintosh,Safari,13.1.2,"OS X",10_15_6,fe3c1d035a65c549f7011c5446f73ede
9,1,null,null,psychophysics,238,616832,0.0-3.0-1.115,"""",key,null,16.661016949152543,840,493.5,"""","""","""","""","""","""","""","""","2021-09-28 21:35:36",24.212.174.218,"Mozilla/5.0 (Macintosh; Intel Mac OS X 10_15_6) AppleWebKit/605.1.15 (KHTML, like Gecko) Version/13.1.2 Safari/605.1.15",Macintosh,Safari,13.1.2,"OS X",10_15_6,fe3c1d035a65c549f7011c5446f73ede
9,1,828,arrowright,psychophysics,239,617665,0.0-3.0-0.116,"""",key,arrowright,16.6734693877551,840,493.5,117,5,1,30,15,25,35,true,"2021-09-28 21:35:36",24.212.174.218,"Mozilla/5.0 (Macintosh; Intel Mac OS X 10_15_6) AppleWebKit/605.1.15 (KHTML, like Gecko) Version/13.1.2 Safari/605.1.15",Macintosh,Safari,13.1.2,"OS X",10_15_6,fe3c1d035a65c549f7011c5446f73ede
9,1,null,null,psychophysics,240,618669,0.0-3.0-1.116,"""",key,null,16.677966101694917,840,493.5,"""","""","""","""","""","""","""","""","2021-09-28 21:35:36",24.212.174.218,"Mozilla/5.0 (Macintosh; Intel Mac OS X 10_15_6) AppleWebKit/605.1.15 (KHTML, like Gecko) Version/13.1.2 Safari/605.1.15",Macintosh,Safari,13.1.2,"OS X",10_15_6,fe3c1d035a65c549f7011c5446f73ede
9,1,1371.9999999998836,arrowright,psychophysics,241,620045,0.0-3.0-0.117,"""",key,arrowright,16.670731707317074,840,493.5,118,5,-1,23,35,25,35,false,"2021-09-28 21:35:36",24.212.174.218,"Mozilla/5.0 (Macintosh; Intel Mac OS X 10_15_6) AppleWebKit/605.1.15 (KHTML, like Gecko) Version/13.1.2 Safari/605.1.15",Macintosh,Safari,13.1.2,"OS X",10_15_6,fe3c1d035a65c549f7011c5446f73ede
9,1,null,null,psychophysics,242,621049,0.0-3.0-1.117,"""",key,null,16.661016949152543,840,493.5,"""","""","""","""","""","""","""","""","2021-09-28 21:35:36",24.212.174.218,"Mozilla/5.0 (Macintosh; Intel Mac OS X 10_15_6) AppleWebKit/605.1.15 (KHTML, like Gecko) Version/13.1.2 Safari/605.1.15",Macintosh,Safari,13.1.2,"OS X",10_15_6,fe3c1d035a65c549f7011c5446f73ede
9,1,6501.000000000116,arrowright,psychophysics,243,627572,0.0-3.0-0.118,"""",key,arrowright,16.664102564102564,840,493.5,119,5,-1,23,15,25,35,false,"2021-09-28 21:35:36",24.212.174.218,"Mozilla/5.0 (Macintosh; Intel Mac OS X 10_15_6) AppleWebKit/605.1.15 (KHTML, like Gecko) Version/13.1.2 Safari/605.1.15",Macintosh,Safari,13.1.2,"OS X",10_15_6,fe3c1d035a65c549f7011c5446f73ede
9,1,null,null,psychophysics,244,628575,0.0-3.0-1.118,"""",key,null,16.627118644067796,840,493.5,"""","""","""","""","""","""","""","""","2021-09-28 21:35:36",24.212.174.218,"Mozilla/5.0 (Macintosh; Intel Mac OS X 10_15_6) AppleWebKit/605.1.15 (KHTML, like Gecko) Version/13.1.2 Safari/605.1.15",Macintosh,Safari,13.1.2,"OS X",10_15_6,fe3c1d035a65c549f7011c5446f73ede
9,1,2223,arrowleft,psychophysics,245,630820,0.0-3.0-0.119,"""",key,arrowleft,16.597014925373134,840,493.5,120,5,1,26,35,25,35,false,"2021-09-28 21:35:36",24.212.174.218,"Mozilla/5.0 (Macintosh; Intel Mac OS X 10_15_6) AppleWebKit/605.1.15 (KHTML, like Gecko) Version/13.1.2 Safari/605.1.15",Macintosh,Safari,13.1.2,"OS X",10_15_6,fe3c1d035a65c549f7011c5446f73ede
9,1,null,null,psychophysics,246,631823,0.0-3.0-1.119,"""",key,null,16.694915254237287,840,493.5,"""","""","""","""","""","""","""","""","2021-09-28 21:35:36",24.212.174.218,"Mozilla/5.0 (Macintosh; Intel Mac OS X 10_15_6) AppleWebKit/605.1.15 (KHTML, like Gecko) Version/13.1.2 Safari/605.1.15",Macintosh,Safari,13.1.2,"OS X",10_15_6,fe3c1d035a65c549f7011c5446f73ede
9,1,2402,arrowleft,psychophysics,247,634241,0.0-3.0-0.120,"""",key,arrowleft,16.65277777777778,840,493.5,121,5,-1,24,15,25,35,true,"2021-09-28 21:35:36",24.212.174.218,"Mozilla/5.0 (Macintosh; Intel Mac OS X 10_15_6) AppleWebKit/605.1.15 (KHTML, like Gecko) Version/13.1.2 Safari/605.1.15",Macintosh,Safari,13.1.2,"OS X",10_15_6,fe3c1d035a65c549f7011c5446f73ede
9,1,null,null,psychophysics,248,635248,0.0-3.0-1.120,"""",key,null,16.583333333333332,840,493.5,"""","""","""","""","""","""","""","""","2021-09-28 21:35:36",24.212.174.218,"Mozilla/5.0 (Macintosh; Intel Mac OS X 10_15_6) AppleWebKit/605.1.15 (KHTML, like Gecko) Version/13.1.2 Safari/605.1.15",Macintosh,Safari,13.1.2,"OS X",10_15_6,fe3c1d035a65c549f7011c5446f73ede
9,1,770.0000000001164,arrowright,psychophysics,249,636024,0.0-3.0-0.121,"""",key,arrowright,16.666666666666668,840,493.5,122,5,1,27,15,25,35,true,"2021-09-28 21:35:36",24.212.174.218,"Mozilla/5.0 (Macintosh; Intel Mac OS X 10_15_6) AppleWebKit/605.1.15 (KHTML, like Gecko) Version/13.1.2 Safari/605.1.15",Macintosh,Safari,13.1.2,"OS X",10_15_6,fe3c1d035a65c549f7011c5446f73ede
9,1,null,null,psychophysics,250,637028,0.0-3.0-1.121,"""",key,null,16.65,840,493.5,"""","""","""","""","""","""","""","""","2021-09-28 21:35:36",24.212.174.218,"Mozilla/5.0 (Macintosh; Intel Mac OS X 10_15_6) AppleWebKit/605.1.15 (KHTML, like Gecko) Version/13.1.2 Safari/605.1.15",Macintosh,Safari,13.1.2,"OS X",10_15_6,fe3c1d035a65c549f7011c5446f73ede
9,1,941,arrowleft,psychophysics,251,637973,0.0-3.0-0.122,"""",key,arrowleft,16.654545454545456,840,493.5,123,5,-1,20,35,25,35,true,"2021-09-28 21:35:36",24.212.174.218,"Mozilla/5.0 (Macintosh; Intel Mac OS X 10_15_6) AppleWebKit/605.1.15 (KHTML, like Gecko) Version/13.1.2 Safari/605.1.15",Macintosh,Safari,13.1.2,"OS X",10_15_6,fe3c1d035a65c549f7011c5446f73ede
9,1,null,null,psychophysics,252,638978,0.0-3.0-1.122,"""",key,null,16.65,840,493.5,"""","""","""","""","""","""","""","""","2021-09-28 21:35:36",24.212.174.218,"Mozilla/5.0 (Macintosh; Intel Mac OS X 10_15_6) AppleWebKit/605.1.15 (KHTML, like Gecko) Version/13.1.2 Safari/605.1.15",Macintosh,Safari,13.1.2,"OS X",10_15_6,fe3c1d035a65c549f7011c5446f73ede
9,1,3591,arrowright,psychophysics,253,642573,0.0-3.0-0.123,"""",key,arrowright,16.66355140186916,840,493.5,124,5,1,27,35,25,35,true,"2021-09-28 21:35:36",24.212.174.218,"Mozilla/5.0 (Macintosh; Intel Mac OS X 10_15_6) AppleWebKit/605.1.15 (KHTML, like Gecko) Version/13.1.2 Safari/605.1.15",Macintosh,Safari,13.1.2,"OS X",10_15_6,fe3c1d035a65c549f7011c5446f73ede
9,1,null,null,psychophysics,254,643578,0.0-3.0-1.123,"""",key,null,16.616666666666667,840,493.5,"""","""","""","""","""","""","""","""","2021-09-28 21:35:36",24.212.174.218,"Mozilla/5.0 (Macintosh; Intel Mac OS X 10_15_6) AppleWebKit/605.1.15 (KHTML, like Gecko) Version/13.1.2 Safari/605.1.15",Macintosh,Safari,13.1.2,"OS X",10_15_6,fe3c1d035a65c549f7011c5446f73ede
9,1,819,arrowright,psychophysics,255,644403,0.0-3.0-0.124,"""",key,arrowright,16.666666666666668,840,493.5,125,5,1,30,35,25,35,true,"2021-09-28 21:35:36",24.212.174.218,"Mozilla/5.0 (Macintosh; Intel Mac OS X 10_15_6) AppleWebKit/605.1.15 (KHTML, like Gecko) Version/13.1.2 Safari/605.1.15",Macintosh,Safari,13.1.2,"OS X",10_15_6,fe3c1d035a65c549f7011c5446f73ede
9,1,null,null,psychophysics,256,645406,0.0-3.0-1.124,"""",key,null,16.694915254237287,840,493.5,"""","""","""","""","""","""","""","""","2021-09-28 21:35:36",24.212.174.218,"Mozilla/5.0 (Macintosh; Intel Mac OS X 10_15_6) AppleWebKit/605.1.15 (KHTML, like Gecko) Version/13.1.2 Safari/605.1.15",Macintosh,Safari,13.1.2,"OS X",10_15_6,fe3c1d035a65c549f7011c5446f73ede
9,1,7673,arrowleft,psychophysics,257,653099,0.0-3.0-0.125,"""",key,arrowleft,16.665943600867678,840,493.5,126,5,-1,24,15,25,35,true,"2021-09-28 21:35:36",24.212.174.218,"Mozilla/5.0 (Macintosh; Intel Mac OS X 10_15_6) AppleWebKit/605.1.15 (KHTML, like Gecko) Version/13.1.2 Safari/605.1.15",Macintosh,Safari,13.1.2,"OS X",10_15_6,fe3c1d035a65c549f7011c5446f73ede
9,1,null,null,psychophysics,258,654107,0.0-3.0-1.125,"""",key,null,16.694915254237287,840,493.5,"""","""","""","""","""","""","""","""","2021-09-28 21:35:36",24.212.174.218,"Mozilla/5.0 (Macintosh; Intel Mac OS X 10_15_6) AppleWebKit/605.1.15 (KHTML, like Gecko) Version/13.1.2 Safari/605.1.15",Macintosh,Safari,13.1.2,"OS X",10_15_6,fe3c1d035a65c549f7011c5446f73ede
9,1,863,arrowright,psychophysics,259,654989,0.0-3.0-0.126,"""",key,arrowright,16.596153846153847,840,493.5,127,5,1,30,35,25,35,true,"2021-09-28 21:35:36",24.212.174.218,"Mozilla/5.0 (Macintosh; Intel Mac OS X 10_15_6) AppleWebKit/605.1.15 (KHTML, like Gecko) Version/13.1.2 Safari/605.1.15",Macintosh,Safari,13.1.2,"OS X",10_15_6,fe3c1d035a65c549f7011c5446f73ede
9,1,null,null,psychophysics,260,655992,0.0-3.0-1.126,"""",key,null,16.661016949152543,840,493.5,"""","""","""","""","""","""","""","""","2021-09-28 21:35:36",24.212.174.218,"Mozilla/5.0 (Macintosh; Intel Mac OS X 10_15_6) AppleWebKit/605.1.15 (KHTML, like Gecko) Version/13.1.2 Safari/605.1.15",Macintosh,Safari,13.1.2,"OS X",10_15_6,fe3c1d035a65c549f7011c5446f73ede
9,1,1620.0000000001164,arrowright,psychophysics,261,657631,0.0-3.0-0.127,"""",key,arrowright,16.612244897959183,840,493.5,128,5,1,25,15,25,35,true,"2021-09-28 21:35:36",24.212.174.218,"Mozilla/5.0 (Macintosh; Intel Mac OS X 10_15_6) AppleWebKit/605.1.15 (KHTML, like Gecko) Version/13.1.2 Safari/605.1.15",Macintosh,Safari,13.1.2,"OS X",10_15_6,fe3c1d035a65c549f7011c5446f73ede
9,1,null,null,psychophysics,262,658634,0.0-3.0-1.127,"""",key,null,16.677966101694917,840,493.5,"""","""","""","""","""","""","""","""","2021-09-28 21:35:36",24.212.174.218,"Mozilla/5.0 (Macintosh; Intel Mac OS X 10_15_6) AppleWebKit/605.1.15 (KHTML, like Gecko) Version/13.1.2 Safari/605.1.15",Macintosh,Safari,13.1.2,"OS X",10_15_6,fe3c1d035a65c549f7011c5446f73ede
9,1,8820.000000000116,arrowright,psychophysics,263,667477,0.0-3.0-0.128,"""",key,arrowright,16.660377358490567,840,493.5,129,5,1,30,35,25,35,true,"2021-09-28 21:35:36",24.212.174.218,"Mozilla/5.0 (Macintosh; Intel Mac OS X 10_15_6) AppleWebKit/605.1.15 (KHTML, like Gecko) Version/13.1.2 Safari/605.1.15",Macintosh,Safari,13.1.2,"OS X",10_15_6,fe3c1d035a65c549f7011c5446f73ede
9,1,null,null,psychophysics,264,668483,0.0-3.0-1.128,"""",key,null,16.677966101694917,840,493.5,"""","""","""","""","""","""","""","""","2021-09-28 21:35:36",24.212.174.218,"Mozilla/5.0 (Macintosh; Intel Mac OS X 10_15_6) AppleWebKit/605.1.15 (KHTML, like Gecko) Version/13.1.2 Safari/605.1.15",Macintosh,Safari,13.1.2,"OS X",10_15_6,fe3c1d035a65c549f7011c5446f73ede
9,1,1544,arrowleft,psychophysics,265,670062,0.0-3.0-0.129,"""",key,arrowleft,16.617021276595743,840,493.5,130,5,1,20,15,25,35,false,"2021-09-28 21:35:36",24.212.174.218,"Mozilla/5.0 (Macintosh; Intel Mac OS X 10_15_6) AppleWebKit/605.1.15 (KHTML, like Gecko) Version/13.1.2 Safari/605.1.15",Macintosh,Safari,13.1.2,"OS X",10_15_6,fe3c1d035a65c549f7011c5446f73ede
9,1,null,null,psychophysics,266,671065,0.0-3.0-1.129,"""",key,null,16.661016949152543,840,493.5,"""","""","""","""","""","""","""","""","2021-09-28 21:35:36",24.212.174.218,"Mozilla/5.0 (Macintosh; Intel Mac OS X 10_15_6) AppleWebKit/605.1.15 (KHTML, like Gecko) Version/13.1.2 Safari/605.1.15",Macintosh,Safari,13.1.2,"OS X",10_15_6,fe3c1d035a65c549f7011c5446f73ede
9,1,858,arrowright,psychophysics,267,671928,0.0-3.0-0.130,"""",key,arrowright,16.647058823529413,840,493.5,131,5,1,25,15,25,35,true,"2021-09-28 21:35:36",24.212.174.218,"Mozilla/5.0 (Macintosh; Intel Mac OS X 10_15_6) AppleWebKit/605.1.15 (KHTML, like Gecko) Version/13.1.2 Safari/605.1.15",Macintosh,Safari,13.1.2,"OS X",10_15_6,fe3c1d035a65c549f7011c5446f73ede
9,1,null,null,psychophysics,268,672931,0.0-3.0-1.130,"""",key,null,16.677966101694917,840,493.5,"""","""","""","""","""","""","""","""","2021-09-28 21:35:36",24.212.174.218,"Mozilla/5.0 (Macintosh; Intel Mac OS X 10_15_6) AppleWebKit/605.1.15 (KHTML, like Gecko) Version/13.1.2 Safari/605.1.15",Macintosh,Safari,13.1.2,"OS X",10_15_6,fe3c1d035a65c549f7011c5446f73ede
