run_id,condition,rt,response,trial_type,trial_index,time_elapsed,internal_node_id,stimulus,response_type,key_press,avg_frame_time,center_x,center_y,trial,block,test_pos,test_inner_radius,test_outer_radius,ref_inner_radius,ref_outer_radius,test_bigger,recorded_at,ip,user_agent,device,browser,browser_version,platform,platform_version,source_code_version
18,1,34053.59999999963,"{""p_id"":""2760"",""age"":""21"",""handedness"":""right"",""sex"":""male"",""other_sex"":""}",survey-html-form,0,34056,0.0-0.0,"""","""","""","""","""","""","""","""","""","""","""","""","""","""","2021-10-03 17:36:47",99.240.209.93,"Mozilla/5.0 (Windows NT 10.0; Win64; x64) AppleWebKit/537.36 (KHTML, like Gecko) Chrome/94.0.4606.61 Safari/537.36",WebKit,Chrome,94.0.4606.61,Windows,10.0,fe3c1d035a65c549f7011c5446f73ede
18,1,11414.5,enter,html-keyboard-response,1,45472,0.0-1.0,"<p style=""color: white"">Welcome to the Size Judgment Experiment. <br>There will be 10 blocks in this experiment. <br>There will be 28 trials in each block. <br>You will be given a chance to take a break between blocks. <br>Press any key to start the experiment.</p>","""","""","""","""","""","""","""","""","""","""","""","""","""","2021-10-03 17:36:47",99.240.209.93,"Mozilla/5.0 (Windows NT 10.0; Win64; x64) AppleWebKit/537.36 (KHTML, like Gecko) Chrome/94.0.4606.61 Safari/537.36",WebKit,Chrome,94.0.4606.61,Windows,10.0,fe3c1d035a65c549f7011c5446f73ede
18,1,29959.89999999944,arrowright,psychophysics,2,75442,0.0-2.0,"""",key,arrowright,6.066104251012147,546.5,307,"""","""","""","""","""","""","""","""","2021-10-03 17:36:47",99.240.209.93,"Mozilla/5.0 (Windows NT 10.0; Win64; x64) AppleWebKit/537.36 (KHTML, like Gecko) Chrome/94.0.4606.61 Safari/537.36",WebKit,Chrome,94.0.4606.61,Windows,10.0,fe3c1d035a65c549f7011c5446f73ede
18,1,2666.7000000001863,arrowright,psychophysics,3,78114,0.0-3.0-0.0,"""",key,arrowright,6.063611363636367,546.5,307,1,1,1,26,15,25,35,true,"2021-10-03 17:36:47",99.240.209.93,"Mozilla/5.0 (Windows NT 10.0; Win64; x64) AppleWebKit/537.36 (KHTML, like Gecko) Chrome/94.0.4606.61 Safari/537.36",WebKit,Chrome,94.0.4606.61,Windows,10.0,fe3c1d035a65c549f7011c5446f73ede
18,1,null,null,psychophysics,4,79115,0.0-3.0-1.0,"""",key,null,6.0635060975609365,546.5,307,"""","""","""","""","""","""","""","""","2021-10-03 17:36:47",99.240.209.93,"Mozilla/5.0 (Windows NT 10.0; Win64; x64) AppleWebKit/537.36 (KHTML, like Gecko) Chrome/94.0.4606.61 Safari/537.36",WebKit,Chrome,94.0.4606.61,Windows,10.0,fe3c1d035a65c549f7011c5446f73ede
18,1,1354,arrowright,psychophysics,5,80471,0.0-3.0-0.1,"""",key,arrowright,6.063614349775792,546.5,307,2,1,1,26,15,25,35,true,"2021-10-03 17:36:47",99.240.209.93,"Mozilla/5.0 (Windows NT 10.0; Win64; x64) AppleWebKit/537.36 (KHTML, like Gecko) Chrome/94.0.4606.61 Safari/537.36",WebKit,Chrome,94.0.4606.61,Windows,10.0,fe3c1d035a65c549f7011c5446f73ede
18,1,null,null,psychophysics,6,81472,0.0-3.0-1.1,"""",key,null,6.0636097560975655,546.5,307,"""","""","""","""","""","""","""","""","2021-10-03 17:36:47",99.240.209.93,"Mozilla/5.0 (Windows NT 10.0; Win64; x64) AppleWebKit/537.36 (KHTML, like Gecko) Chrome/94.0.4606.61 Safari/537.36",WebKit,Chrome,94.0.4606.61,Windows,10.0,fe3c1d035a65c549f7011c5446f73ede
18,1,4777.399999999441,arrowright,psychophysics,7,86253,0.0-3.0-0.2,"""",key,arrowright,6.063622617534938,546.5,307,3,1,1,24,35,25,35,true,"2021-10-03 17:36:47",99.240.209.93,"Mozilla/5.0 (Windows NT 10.0; Win64; x64) AppleWebKit/537.36 (KHTML, like Gecko) Chrome/94.0.4606.61 Safari/537.36",WebKit,Chrome,94.0.4606.61,Windows,10.0,fe3c1d035a65c549f7011c5446f73ede
18,1,null,null,psychophysics,8,87255,0.0-3.0-1.2,"""",key,null,6.063597560975567,546.5,307,"""","""","""","""","""","""","""","""","2021-10-03 17:36:47",99.240.209.93,"Mozilla/5.0 (Windows NT 10.0; Win64; x64) AppleWebKit/537.36 (KHTML, like Gecko) Chrome/94.0.4606.61 Safari/537.36",WebKit,Chrome,94.0.4606.61,Windows,10.0,fe3c1d035a65c549f7011c5446f73ede
18,1,1247.699999999255,arrowleft,psychophysics,9,88505,0.0-3.0-0.3,"""",key,arrowleft,6.063631067961201,546.5,307,4,1,-1,27,15,25,35,true,"2021-10-03 17:36:47",99.240.209.93,"Mozilla/5.0 (Windows NT 10.0; Win64; x64) AppleWebKit/537.36 (KHTML, like Gecko) Chrome/94.0.4606.61 Safari/537.36",WebKit,Chrome,94.0.4606.61,Windows,10.0,fe3c1d035a65c549f7011c5446f73ede
18,1,null,null,psychophysics,10,89506,0.0-3.0-1.3,"""",key,null,6.063640243902472,546.5,307,"""","""","""","""","""","""","""","""","2021-10-03 17:36:47",99.240.209.93,"Mozilla/5.0 (Windows NT 10.0; Win64; x64) AppleWebKit/537.36 (KHTML, like Gecko) Chrome/94.0.4606.61 Safari/537.36",WebKit,Chrome,94.0.4606.61,Windows,10.0,fe3c1d035a65c549f7011c5446f73ede
18,1,1156.2999999998137,arrowright,psychophysics,11,90665,0.0-3.0-0.4,"""",key,arrowright,6.063621052631596,546.5,307,5,1,1,27,35,25,35,true,"2021-10-03 17:36:47",99.240.209.93,"Mozilla/5.0 (Windows NT 10.0; Win64; x64) AppleWebKit/537.36 (KHTML, like Gecko) Chrome/94.0.4606.61 Safari/537.36",WebKit,Chrome,94.0.4606.61,Windows,10.0,fe3c1d035a65c549f7011c5446f73ede
18,1,null,null,psychophysics,12,91666,0.0-3.0-1.4,"""",key,null,6.063548780487753,546.5,307,"""","""","""","""","""","""","""","""","2021-10-03 17:36:47",99.240.209.93,"Mozilla/5.0 (Windows NT 10.0; Win64; x64) AppleWebKit/537.36 (KHTML, like Gecko) Chrome/94.0.4606.61 Safari/537.36",WebKit,Chrome,94.0.4606.61,Windows,10.0,fe3c1d035a65c549f7011c5446f73ede
18,1,1806.0999999996275,arrowright,psychophysics,13,93475,0.0-3.0-0.5,"""",key,arrowright,6.063626262626302,546.5,307,6,1,-1,25,35,25,35,false,"2021-10-03 17:36:47",99.240.209.93,"Mozilla/5.0 (Windows NT 10.0; Win64; x64) AppleWebKit/537.36 (KHTML, like Gecko) Chrome/94.0.4606.61 Safari/537.36",WebKit,Chrome,94.0.4606.61,Windows,10.0,fe3c1d035a65c549f7011c5446f73ede
18,1,null,null,psychophysics,14,94476,0.0-3.0-1.5,"""",key,null,6.063634146341473,546.5,307,"""","""","""","""","""","""","""","""","2021-10-03 17:36:47",99.240.209.93,"Mozilla/5.0 (Windows NT 10.0; Win64; x64) AppleWebKit/537.36 (KHTML, like Gecko) Chrome/94.0.4606.61 Safari/537.36",WebKit,Chrome,94.0.4606.61,Windows,10.0,fe3c1d035a65c549f7011c5446f73ede
18,1,2564.2000000001863,arrowright,psychophysics,15,97043,0.0-3.0-0.6,"""",key,arrowright,6.063621749408975,546.5,307,7,1,-1,24,35,25,35,false,"2021-10-03 17:36:47",99.240.209.93,"Mozilla/5.0 (Windows NT 10.0; Win64; x64) AppleWebKit/537.36 (KHTML, like Gecko) Chrome/94.0.4606.61 Safari/537.36",WebKit,Chrome,94.0.4606.61,Windows,10.0,fe3c1d035a65c549f7011c5446f73ede
18,1,null,null,psychophysics,16,98044,0.0-3.0-1.6,"""",key,null,6.063676829268289,546.5,307,"""","""","""","""","""","""","""","""","2021-10-03 17:36:47",99.240.209.93,"Mozilla/5.0 (Windows NT 10.0; Win64; x64) AppleWebKit/537.36 (KHTML, like Gecko) Chrome/94.0.4606.61 Safari/537.36",WebKit,Chrome,94.0.4606.61,Windows,10.0,fe3c1d035a65c549f7011c5446f73ede
18,1,1702.3999999994412,arrowleft,psychophysics,17,99748,0.0-3.0-0.7,"""",key,arrowleft,6.063685714285696,546.5,307,8,1,1,25,35,25,35,false,"2021-10-03 17:36:47",99.240.209.93,"Mozilla/5.0 (Windows NT 10.0; Win64; x64) AppleWebKit/537.36 (KHTML, like Gecko) Chrome/94.0.4606.61 Safari/537.36",WebKit,Chrome,94.0.4606.61,Windows,10.0,fe3c1d035a65c549f7011c5446f73ede
18,1,null,null,psychophysics,18,100751,0.0-3.0-1.7,"""",key,null,6.100656441717831,546.5,307,"""","""","""","""","""","""","""","""","2021-10-03 17:36:47",99.240.209.93,"Mozilla/5.0 (Windows NT 10.0; Win64; x64) AppleWebKit/537.36 (KHTML, like Gecko) Chrome/94.0.4606.61 Safari/537.36",WebKit,Chrome,94.0.4606.61,Windows,10.0,fe3c1d035a65c549f7011c5446f73ede
18,1,925.2000000001863,arrowright,psychophysics,19,101678,0.0-3.0-0.8,"""",key,arrowright,6.063585526315747,546.5,307,9,1,1,27,15,25,35,true,"2021-10-03 17:36:47",99.240.209.93,"Mozilla/5.0 (Windows NT 10.0; Win64; x64) AppleWebKit/537.36 (KHTML, like Gecko) Chrome/94.0.4606.61 Safari/537.36",WebKit,Chrome,94.0.4606.61,Windows,10.0,fe3c1d035a65c549f7011c5446f73ede
18,1,null,null,psychophysics,20,102679,0.0-3.0-1.8,"""",key,null,6.10077914110427,546.5,307,"""","""","""","""","""","""","""","""","2021-10-03 17:36:47",99.240.209.93,"Mozilla/5.0 (Windows NT 10.0; Win64; x64) AppleWebKit/537.36 (KHTML, like Gecko) Chrome/94.0.4606.61 Safari/537.36",WebKit,Chrome,94.0.4606.61,Windows,10.0,fe3c1d035a65c549f7011c5446f73ede
18,1,1690.2000000001863,arrowright,psychophysics,21,104372,0.0-3.0-0.9,"""",key,arrowright,6.063618705035977,546.5,307,10,1,-1,23,15,25,35,false,"2021-10-03 17:36:47",99.240.209.93,"Mozilla/5.0 (Windows NT 10.0; Win64; x64) AppleWebKit/537.36 (KHTML, like Gecko) Chrome/94.0.4606.61 Safari/537.36",WebKit,Chrome,94.0.4606.61,Windows,10.0,fe3c1d035a65c549f7011c5446f73ede
18,1,null,null,psychophysics,22,105373,0.0-3.0-1.9,"""",key,null,6.063646341463471,546.5,307,"""","""","""","""","""","""","""","""","2021-10-03 17:36:47",99.240.209.93,"Mozilla/5.0 (Windows NT 10.0; Win64; x64) AppleWebKit/537.36 (KHTML, like Gecko) Chrome/94.0.4606.61 Safari/537.36",WebKit,Chrome,94.0.4606.61,Windows,10.0,fe3c1d035a65c549f7011c5446f73ede
18,1,1988.1000000005588,arrowleft,psychophysics,23,107366,0.0-3.0-0.10,"""",key,arrowleft,6.063640243902472,546.5,307,11,1,1,25,35,25,35,false,"2021-10-03 17:36:47",99.240.209.93,"Mozilla/5.0 (Windows NT 10.0; Win64; x64) AppleWebKit/537.36 (KHTML, like Gecko) Chrome/94.0.4606.61 Safari/537.36",WebKit,Chrome,94.0.4606.61,Windows,10.0,fe3c1d035a65c549f7011c5446f73ede
18,1,null,null,psychophysics,24,108366,0.0-3.0-1.10,"""",key,null,6.063567073170749,546.5,307,"""","""","""","""","""","""","""","""","2021-10-03 17:36:47",99.240.209.93,"Mozilla/5.0 (Windows NT 10.0; Win64; x64) AppleWebKit/537.36 (KHTML, like Gecko) Chrome/94.0.4606.61 Safari/537.36",WebKit,Chrome,94.0.4606.61,Windows,10.0,fe3c1d035a65c549f7011c5446f73ede
18,1,4384.200000000186,arrowright,psychophysics,25,112754,0.0-3.0-0.11,"""",key,arrowright,6.0720304709141395,546.5,307,12,1,1,24,15,25,35,true,"2021-10-03 17:36:47",99.240.209.93,"Mozilla/5.0 (Windows NT 10.0; Win64; x64) AppleWebKit/537.36 (KHTML, like Gecko) Chrome/94.0.4606.61 Safari/537.36",WebKit,Chrome,94.0.4606.61,Windows,10.0,fe3c1d035a65c549f7011c5446f73ede
18,1,null,null,psychophysics,26,113756,0.0-3.0-1.11,"""",key,null,6.063396341463398,546.5,307,"""","""","""","""","""","""","""","""","2021-10-03 17:36:47",99.240.209.93,"Mozilla/5.0 (Windows NT 10.0; Win64; x64) AppleWebKit/537.36 (KHTML, like Gecko) Chrome/94.0.4606.61 Safari/537.36",WebKit,Chrome,94.0.4606.61,Windows,10.0,fe3c1d035a65c549f7011c5446f73ede
18,1,1327,arrowright,psychophysics,27,115085,0.0-3.0-0.12,"""",key,arrowright,6.091502304147465,546.5,307,13,1,1,25,15,25,35,true,"2021-10-03 17:36:47",99.240.209.93,"Mozilla/5.0 (Windows NT 10.0; Win64; x64) AppleWebKit/537.36 (KHTML, like Gecko) Chrome/94.0.4606.61 Safari/537.36",WebKit,Chrome,94.0.4606.61,Windows,10.0,fe3c1d035a65c549f7011c5446f73ede
18,1,null,null,psychophysics,28,116086,0.0-3.0-1.12,"""",key,null,6.063530487804844,546.5,307,"""","""","""","""","""","""","""","""","2021-10-03 17:36:47",99.240.209.93,"Mozilla/5.0 (Windows NT 10.0; Win64; x64) AppleWebKit/537.36 (KHTML, like Gecko) Chrome/94.0.4606.61 Safari/537.36",WebKit,Chrome,94.0.4606.61,Windows,10.0,fe3c1d035a65c549f7011c5446f73ede
18,1,1754.300000000745,arrowright,psychophysics,29,117843,0.0-3.0-0.13,"""",key,arrowright,6.063643598615904,546.5,307,14,1,1,27,35,25,35,true,"2021-10-03 17:36:47",99.240.209.93,"Mozilla/5.0 (Windows NT 10.0; Win64; x64) AppleWebKit/537.36 (KHTML, like Gecko) Chrome/94.0.4606.61 Safari/537.36",WebKit,Chrome,94.0.4606.61,Windows,10.0,fe3c1d035a65c549f7011c5446f73ede
18,1,null,null,psychophysics,30,118844,0.0-3.0-1.13,"""",key,null,6.063524390243933,546.5,307,"""","""","""","""","""","""","""","""","2021-10-03 17:36:47",99.240.209.93,"Mozilla/5.0 (Windows NT 10.0; Win64; x64) AppleWebKit/537.36 (KHTML, like Gecko) Chrome/94.0.4606.61 Safari/537.36",WebKit,Chrome,94.0.4606.61,Windows,10.0,fe3c1d035a65c549f7011c5446f73ede
18,1,5140.600000000559,arrowright,psychophysics,31,123987,0.0-3.0-0.14,"""",key,arrowright,6.0636351829988255,546.5,307,15,1,1,25,35,25,35,true,"2021-10-03 17:36:47",99.240.209.93,"Mozilla/5.0 (Windows NT 10.0; Win64; x64) AppleWebKit/537.36 (KHTML, like Gecko) Chrome/94.0.4606.61 Safari/537.36",WebKit,Chrome,94.0.4606.61,Windows,10.0,fe3c1d035a65c549f7011c5446f73ede
18,1,null,null,psychophysics,32,124988,0.0-3.0-1.14,"""",key,null,6.063512195121936,546.5,307,"""","""","""","""","""","""","""","""","2021-10-03 17:36:47",99.240.209.93,"Mozilla/5.0 (Windows NT 10.0; Win64; x64) AppleWebKit/537.36 (KHTML, like Gecko) Chrome/94.0.4606.61 Safari/537.36",WebKit,Chrome,94.0.4606.61,Windows,10.0,fe3c1d035a65c549f7011c5446f73ede
18,1,839,arrowleft,psychophysics,33,125831,0.0-3.0-0.15,"""",key,arrowleft,6.063637681159362,546.5,307,16,1,-1,30,35,25,35,true,"2021-10-03 17:36:47",99.240.209.93,"Mozilla/5.0 (Windows NT 10.0; Win64; x64) AppleWebKit/537.36 (KHTML, like Gecko) Chrome/94.0.4606.61 Safari/537.36",WebKit,Chrome,94.0.4606.61,Windows,10.0,fe3c1d035a65c549f7011c5446f73ede
18,1,null,null,psychophysics,34,126832,0.0-3.0-1.15,"""",key,null,6.063567073170749,546.5,307,"""","""","""","""","""","""","""","""","2021-10-03 17:36:47",99.240.209.93,"Mozilla/5.0 (Windows NT 10.0; Win64; x64) AppleWebKit/537.36 (KHTML, like Gecko) Chrome/94.0.4606.61 Safari/537.36",WebKit,Chrome,94.0.4606.61,Windows,10.0,fe3c1d035a65c549f7011c5446f73ede
18,1,1002.7999999998137,arrowleft,psychophysics,35,127837,0.0-3.0-0.16,"""",key,arrowleft,6.0636181818182004,546.5,307,17,1,-1,30,35,25,35,true,"2021-10-03 17:36:47",99.240.209.93,"Mozilla/5.0 (Windows NT 10.0; Win64; x64) AppleWebKit/537.36 (KHTML, like Gecko) Chrome/94.0.4606.61 Safari/537.36",WebKit,Chrome,94.0.4606.61,Windows,10.0,fe3c1d035a65c549f7011c5446f73ede
18,1,null,null,psychophysics,36,128838,0.0-3.0-1.16,"""",key,null,6.063518292682935,546.5,307,"""","""","""","""","""","""","""","""","2021-10-03 17:36:47",99.240.209.93,"Mozilla/5.0 (Windows NT 10.0; Win64; x64) AppleWebKit/537.36 (KHTML, like Gecko) Chrome/94.0.4606.61 Safari/537.36",WebKit,Chrome,94.0.4606.61,Windows,10.0,fe3c1d035a65c549f7011c5446f73ede
18,1,1007.7999999998137,arrowleft,psychophysics,37,129848,0.0-3.0-0.17,"""",key,arrowleft,6.063632530120537,546.5,307,18,1,1,20,15,25,35,false,"2021-10-03 17:36:47",99.240.209.93,"Mozilla/5.0 (Windows NT 10.0; Win64; x64) AppleWebKit/537.36 (KHTML, like Gecko) Chrome/94.0.4606.61 Safari/537.36",WebKit,Chrome,94.0.4606.61,Windows,10.0,fe3c1d035a65c549f7011c5446f73ede
18,1,null,null,psychophysics,38,130850,0.0-3.0-1.17,"""",key,null,6.063524390243933,546.5,307,"""","""","""","""","""","""","""","""","2021-10-03 17:36:47",99.240.209.93,"Mozilla/5.0 (Windows NT 10.0; Win64; x64) AppleWebKit/537.36 (KHTML, like Gecko) Chrome/94.0.4606.61 Safari/537.36",WebKit,Chrome,94.0.4606.61,Windows,10.0,fe3c1d035a65c549f7011c5446f73ede
18,1,2033.5999999996275,arrowright,psychophysics,39,132887,0.0-3.0-0.18,"""",key,arrowright,6.0635641791044605,546.5,307,19,1,-1,24,35,25,35,false,"2021-10-03 17:36:47",99.240.209.93,"Mozilla/5.0 (Windows NT 10.0; Win64; x64) AppleWebKit/537.36 (KHTML, like Gecko) Chrome/94.0.4606.61 Safari/537.36",WebKit,Chrome,94.0.4606.61,Windows,10.0,fe3c1d035a65c549f7011c5446f73ede
18,1,null,null,psychophysics,40,133889,0.0-3.0-1.18,"""",key,null,6.063585365853569,546.5,307,"""","""","""","""","""","""","""","""","2021-10-03 17:36:47",99.240.209.93,"Mozilla/5.0 (Windows NT 10.0; Win64; x64) AppleWebKit/537.36 (KHTML, like Gecko) Chrome/94.0.4606.61 Safari/537.36",WebKit,Chrome,94.0.4606.61,Windows,10.0,fe3c1d035a65c549f7011c5446f73ede
18,1,2825.2999999998137,arrowright,psychophysics,41,136716,0.0-3.0-0.19,"""",key,arrowright,6.076650862068948,546.5,307,20,1,-1,23,35,25,35,false,"2021-10-03 17:36:47",99.240.209.93,"Mozilla/5.0 (Windows NT 10.0; Win64; x64) AppleWebKit/537.36 (KHTML, like Gecko) Chrome/94.0.4606.61 Safari/537.36",WebKit,Chrome,94.0.4606.61,Windows,10.0,fe3c1d035a65c549f7011c5446f73ede
18,1,null,null,psychophysics,42,137718,0.0-3.0-1.19,"""",key,null,6.0636363636363635,546.5,307,"""","""","""","""","""","""","""","""","2021-10-03 17:36:47",99.240.209.93,"Mozilla/5.0 (Windows NT 10.0; Win64; x64) AppleWebKit/537.36 (KHTML, like Gecko) Chrome/94.0.4606.61 Safari/537.36",WebKit,Chrome,94.0.4606.61,Windows,10.0,fe3c1d035a65c549f7011c5446f73ede
18,1,1306.3999999994412,arrowright,psychophysics,43,139026,0.0-3.0-0.20,"""",key,arrowright,6.063672897196212,546.5,307,21,1,-1,20,15,25,35,false,"2021-10-03 17:36:47",99.240.209.93,"Mozilla/5.0 (Windows NT 10.0; Win64; x64) AppleWebKit/537.36 (KHTML, like Gecko) Chrome/94.0.4606.61 Safari/537.36",WebKit,Chrome,94.0.4606.61,Windows,10.0,fe3c1d035a65c549f7011c5446f73ede
18,1,null,null,psychophysics,44,140027,0.0-3.0-1.20,"""",key,null,6.0635636363637095,546.5,307,"""","""","""","""","""","""","""","""","2021-10-03 17:36:47",99.240.209.93,"Mozilla/5.0 (Windows NT 10.0; Win64; x64) AppleWebKit/537.36 (KHTML, like Gecko) Chrome/94.0.4606.61 Safari/537.36",WebKit,Chrome,94.0.4606.61,Windows,10.0,fe3c1d035a65c549f7011c5446f73ede
18,1,2148.4000000003725,arrowleft,psychophysics,45,142179,0.0-3.0-0.21,"""",key,arrowleft,6.080843750000068,546.5,307,22,1,-1,23,15,25,35,true,"2021-10-03 17:36:47",99.240.209.93,"Mozilla/5.0 (Windows NT 10.0; Win64; x64) AppleWebKit/537.36 (KHTML, like Gecko) Chrome/94.0.4606.61 Safari/537.36",WebKit,Chrome,94.0.4606.61,Windows,10.0,fe3c1d035a65c549f7011c5446f73ede
18,1,null,null,psychophysics,46,143181,0.0-3.0-1.21,"""",key,null,6.1007195121950115,546.5,307,"""","""","""","""","""","""","""","""","2021-10-03 17:36:47",99.240.209.93,"Mozilla/5.0 (Windows NT 10.0; Win64; x64) AppleWebKit/537.36 (KHTML, like Gecko) Chrome/94.0.4606.61 Safari/537.36",WebKit,Chrome,94.0.4606.61,Windows,10.0,fe3c1d035a65c549f7011c5446f73ede
18,1,1883.7000000001863,arrowright,psychophysics,47,145067,0.0-3.0-0.22,"""",key,arrowright,6.063622580645156,546.5,307,23,1,1,24,35,25,35,true,"2021-10-03 17:36:47",99.240.209.93,"Mozilla/5.0 (Windows NT 10.0; Win64; x64) AppleWebKit/537.36 (KHTML, like Gecko) Chrome/94.0.4606.61 Safari/537.36",WebKit,Chrome,94.0.4606.61,Windows,10.0,fe3c1d035a65c549f7011c5446f73ede
18,1,null,null,psychophysics,48,146068,0.0-3.0-1.22,"""",key,null,6.063512195121936,546.5,307,"""","""","""","""","""","""","""","""","2021-10-03 17:36:47",99.240.209.93,"Mozilla/5.0 (Windows NT 10.0; Win64; x64) AppleWebKit/537.36 (KHTML, like Gecko) Chrome/94.0.4606.61 Safari/537.36",WebKit,Chrome,94.0.4606.61,Windows,10.0,fe3c1d035a65c549f7011c5446f73ede
18,1,1304.2999999998137,arrowleft,psychophysics,49,147374,0.0-3.0-0.23,"""",key,arrowleft,6.063607476635485,546.5,307,24,1,1,20,35,25,35,false,"2021-10-03 17:36:47",99.240.209.93,"Mozilla/5.0 (Windows NT 10.0; Win64; x64) AppleWebKit/537.36 (KHTML, like Gecko) Chrome/94.0.4606.61 Safari/537.36",WebKit,Chrome,94.0.4606.61,Windows,10.0,fe3c1d035a65c549f7011c5446f73ede
18,1,null,null,psychophysics,50,148376,0.0-3.0-1.23,"""",key,null,6.100533742331214,546.5,307,"""","""","""","""","""","""","""","""","2021-10-03 17:36:47",99.240.209.93,"Mozilla/5.0 (Windows NT 10.0; Win64; x64) AppleWebKit/537.36 (KHTML, like Gecko) Chrome/94.0.4606.61 Safari/537.36",WebKit,Chrome,94.0.4606.61,Windows,10.0,fe3c1d035a65c549f7011c5446f73ede
18,1,1226.3999999994412,arrowleft,psychophysics,51,149606,0.0-3.0-0.24,"""",key,arrowleft,6.063554455445489,546.5,307,25,1,1,23,35,25,35,false,"2021-10-03 17:36:47",99.240.209.93,"Mozilla/5.0 (Windows NT 10.0; Win64; x64) AppleWebKit/537.36 (KHTML, like Gecko) Chrome/94.0.4606.61 Safari/537.36",WebKit,Chrome,94.0.4606.61,Windows,10.0,fe3c1d035a65c549f7011c5446f73ede
18,1,null,null,psychophysics,52,150607,0.0-3.0-1.24,"""",key,null,6.063597560975745,546.5,307,"""","""","""","""","""","""","""","""","2021-10-03 17:36:47",99.240.209.93,"Mozilla/5.0 (Windows NT 10.0; Win64; x64) AppleWebKit/537.36 (KHTML, like Gecko) Chrome/94.0.4606.61 Safari/537.36",WebKit,Chrome,94.0.4606.61,Windows,10.0,fe3c1d035a65c549f7011c5446f73ede
18,1,1665,arrowright,psychophysics,53,152275,0.0-3.0-0.25,"""",key,arrowright,6.063620437956207,546.5,307,26,1,-1,20,15,25,35,false,"2021-10-03 17:36:47",99.240.209.93,"Mozilla/5.0 (Windows NT 10.0; Win64; x64) AppleWebKit/537.36 (KHTML, like Gecko) Chrome/94.0.4606.61 Safari/537.36",WebKit,Chrome,94.0.4606.61,Windows,10.0,fe3c1d035a65c549f7011c5446f73ede
18,1,null,null,psychophysics,54,153276,0.0-3.0-1.25,"""",key,null,6.063603658536655,546.5,307,"""","""","""","""","""","""","""","""","2021-10-03 17:36:47",99.240.209.93,"Mozilla/5.0 (Windows NT 10.0; Win64; x64) AppleWebKit/537.36 (KHTML, like Gecko) Chrome/94.0.4606.61 Safari/537.36",WebKit,Chrome,94.0.4606.61,Windows,10.0,fe3c1d035a65c549f7011c5446f73ede
18,1,6140.399999999441,arrowright,psychophysics,55,159418,0.0-3.0-0.26,"""",key,arrowright,6.0636472332016025,546.5,307,27,1,1,26,35,25,35,true,"2021-10-03 17:36:47",99.240.209.93,"Mozilla/5.0 (Windows NT 10.0; Win64; x64) AppleWebKit/537.36 (KHTML, like Gecko) Chrome/94.0.4606.61 Safari/537.36",WebKit,Chrome,94.0.4606.61,Windows,10.0,fe3c1d035a65c549f7011c5446f73ede
18,1,null,null,psychophysics,56,160421,0.0-3.0-1.26,"""",key,null,6.063660606060523,546.5,307,"""","""","""","""","""","""","""","""","2021-10-03 17:36:47",99.240.209.93,"Mozilla/5.0 (Windows NT 10.0; Win64; x64) AppleWebKit/537.36 (KHTML, like Gecko) Chrome/94.0.4606.61 Safari/537.36",WebKit,Chrome,94.0.4606.61,Windows,10.0,fe3c1d035a65c549f7011c5446f73ede
18,1,1490,arrowright,psychophysics,57,161914,0.0-3.0-0.27,"""",key,arrowright,6.063628571428601,546.5,307,28,2,-1,24,15,25,35,false,"2021-10-03 17:36:47",99.240.209.93,"Mozilla/5.0 (Windows NT 10.0; Win64; x64) AppleWebKit/537.36 (KHTML, like Gecko) Chrome/94.0.4606.61 Safari/537.36",WebKit,Chrome,94.0.4606.61,Windows,10.0,fe3c1d035a65c549f7011c5446f73ede
18,1,null,null,psychophysics,58,162915,0.0-3.0-1.27,"""",key,null,6.063499999999937,546.5,307,"""","""","""","""","""","""","""","""","2021-10-03 17:36:47",99.240.209.93,"Mozilla/5.0 (Windows NT 10.0; Win64; x64) AppleWebKit/537.36 (KHTML, like Gecko) Chrome/94.0.4606.61 Safari/537.36",WebKit,Chrome,94.0.4606.61,Windows,10.0,fe3c1d035a65c549f7011c5446f73ede
18,1,5121.700000000186,0,html-keyboard-response,59,168038,0.0-3.0-2.27-0.27,"<div style=""color: white; text-align: center; vertical-align: top; display: inline-block; width: 800px; margin: auto""><p>You have completed 10% of the trials. You are on block 2 of 10. <br>Good job! Take a break if you need to.</p><p>Press any key to continue the experiment.</p></div>","""","""","""","""","""","""","""","""","""","""","""","""","""","2021-10-03 17:36:47",99.240.209.93,"Mozilla/5.0 (Windows NT 10.0; Win64; x64) AppleWebKit/537.36 (KHTML, like Gecko) Chrome/94.0.4606.61 Safari/537.36",WebKit,Chrome,94.0.4606.61,Windows,10.0,fe3c1d035a65c549f7011c5446f73ede
18,1,1164.8999999994412,arrowleft,psychophysics,60,170207,0.0-3.0-0.28,"""",key,arrowleft,6.064145077720231,546.5,307,29,2,1,20,35,25,35,false,"2021-10-03 17:36:47",99.240.209.93,"Mozilla/5.0 (Windows NT 10.0; Win64; x64) AppleWebKit/537.36 (KHTML, like Gecko) Chrome/94.0.4606.61 Safari/537.36",WebKit,Chrome,94.0.4606.61,Windows,10.0,fe3c1d035a65c549f7011c5446f73ede
18,1,null,null,psychophysics,61,171207,0.0-3.0-1.28,"""",key,null,6.063548780487753,546.5,307,"""","""","""","""","""","""","""","""","2021-10-03 17:36:47",99.240.209.93,"Mozilla/5.0 (Windows NT 10.0; Win64; x64) AppleWebKit/537.36 (KHTML, like Gecko) Chrome/94.0.4606.61 Safari/537.36",WebKit,Chrome,94.0.4606.61,Windows,10.0,fe3c1d035a65c549f7011c5446f73ede
18,1,1863,arrowright,psychophysics,62,173073,0.0-3.0-0.29,"""",key,arrowright,6.063604575163362,546.5,307,30,2,1,30,35,25,35,true,"2021-10-03 17:36:47",99.240.209.93,"Mozilla/5.0 (Windows NT 10.0; Win64; x64) AppleWebKit/537.36 (KHTML, like Gecko) Chrome/94.0.4606.61 Safari/537.36",WebKit,Chrome,94.0.4606.61,Windows,10.0,fe3c1d035a65c549f7011c5446f73ede
18,1,null,null,psychophysics,63,174074,0.0-3.0-1.29,"""",key,null,6.063603658536477,546.5,307,"""","""","""","""","""","""","""","""","2021-10-03 17:36:47",99.240.209.93,"Mozilla/5.0 (Windows NT 10.0; Win64; x64) AppleWebKit/537.36 (KHTML, like Gecko) Chrome/94.0.4606.61 Safari/537.36",WebKit,Chrome,94.0.4606.61,Windows,10.0,fe3c1d035a65c549f7011c5446f73ede
18,1,1423.1000000005588,arrowleft,psychophysics,64,175500,0.0-3.0-0.30,"""",key,arrowleft,6.063625531914852,546.5,307,31,2,-1,26,35,25,35,true,"2021-10-03 17:36:47",99.240.209.93,"Mozilla/5.0 (Windows NT 10.0; Win64; x64) AppleWebKit/537.36 (KHTML, like Gecko) Chrome/94.0.4606.61 Safari/537.36",WebKit,Chrome,94.0.4606.61,Windows,10.0,fe3c1d035a65c549f7011c5446f73ede
18,1,null,null,psychophysics,65,176506,0.0-3.0-1.30,"""",key,null,6.063579268292659,546.5,307,"""","""","""","""","""","""","""","""","2021-10-03 17:36:47",99.240.209.93,"Mozilla/5.0 (Windows NT 10.0; Win64; x64) AppleWebKit/537.36 (KHTML, like Gecko) Chrome/94.0.4606.61 Safari/537.36",WebKit,Chrome,94.0.4606.61,Windows,10.0,fe3c1d035a65c549f7011c5446f73ede
18,1,871.2000000001863,arrowright,psychophysics,66,177379,0.0-3.0-0.31,"""",key,arrowright,6.06364583333339,546.5,307,32,2,1,30,35,25,35,true,"2021-10-03 17:36:47",99.240.209.93,"Mozilla/5.0 (Windows NT 10.0; Win64; x64) AppleWebKit/537.36 (KHTML, like Gecko) Chrome/94.0.4606.61 Safari/537.36",WebKit,Chrome,94.0.4606.61,Windows,10.0,fe3c1d035a65c549f7011c5446f73ede
18,1,null,null,psychophysics,67,178380,0.0-3.0-1.31,"""",key,null,6.063603658536655,546.5,307,"""","""","""","""","""","""","""","""","2021-10-03 17:36:47",99.240.209.93,"Mozilla/5.0 (Windows NT 10.0; Win64; x64) AppleWebKit/537.36 (KHTML, like Gecko) Chrome/94.0.4606.61 Safari/537.36",WebKit,Chrome,94.0.4606.61,Windows,10.0,fe3c1d035a65c549f7011c5446f73ede
18,1,1127.2999999998137,arrowright,psychophysics,68,179510,0.0-3.0-0.32,"""",key,arrowright,6.063600000000018,546.5,307,33,2,1,27,35,25,35,true,"2021-10-03 17:36:47",99.240.209.93,"Mozilla/5.0 (Windows NT 10.0; Win64; x64) AppleWebKit/537.36 (KHTML, like Gecko) Chrome/94.0.4606.61 Safari/537.36",WebKit,Chrome,94.0.4606.61,Windows,10.0,fe3c1d035a65c549f7011c5446f73ede
18,1,null,null,psychophysics,69,180512,0.0-3.0-1.32,"""",key,null,6.063445121951212,546.5,307,"""","""","""","""","""","""","""","""","2021-10-03 17:36:47",99.240.209.93,"Mozilla/5.0 (Windows NT 10.0; Win64; x64) AppleWebKit/537.36 (KHTML, like Gecko) Chrome/94.0.4606.61 Safari/537.36",WebKit,Chrome,94.0.4606.61,Windows,10.0,fe3c1d035a65c549f7011c5446f73ede
18,1,1734,arrowleft,psychophysics,70,182248,0.0-3.0-0.33,"""",key,arrowleft,6.06366666666663,546.5,307,34,2,1,23,35,25,35,false,"2021-10-03 17:36:47",99.240.209.93,"Mozilla/5.0 (Windows NT 10.0; Win64; x64) AppleWebKit/537.36 (KHTML, like Gecko) Chrome/94.0.4606.61 Safari/537.36",WebKit,Chrome,94.0.4606.61,Windows,10.0,fe3c1d035a65c549f7011c5446f73ede
18,1,null,null,psychophysics,71,183249,0.0-3.0-1.33,"""",key,null,6.0636000000000365,546.5,307,"""","""","""","""","""","""","""","""","2021-10-03 17:36:47",99.240.209.93,"Mozilla/5.0 (Windows NT 10.0; Win64; x64) AppleWebKit/537.36 (KHTML, like Gecko) Chrome/94.0.4606.61 Safari/537.36",WebKit,Chrome,94.0.4606.61,Windows,10.0,fe3c1d035a65c549f7011c5446f73ede
18,1,1329,arrowleft,psychophysics,72,184580,0.0-3.0-0.34,"""",key,arrowleft,6.063628440366902,546.5,307,35,2,-1,27,35,25,35,true,"2021-10-03 17:36:47",99.240.209.93,"Mozilla/5.0 (Windows NT 10.0; Win64; x64) AppleWebKit/537.36 (KHTML, like Gecko) Chrome/94.0.4606.61 Safari/537.36",WebKit,Chrome,94.0.4606.61,Windows,10.0,fe3c1d035a65c549f7011c5446f73ede
18,1,null,null,psychophysics,73,185581,0.0-3.0-1.34,"""",key,null,6.0636097560975655,546.5,307,"""","""","""","""","""","""","""","""","2021-10-03 17:36:47",99.240.209.93,"Mozilla/5.0 (Windows NT 10.0; Win64; x64) AppleWebKit/537.36 (KHTML, like Gecko) Chrome/94.0.4606.61 Safari/537.36",WebKit,Chrome,94.0.4606.61,Windows,10.0,fe3c1d035a65c549f7011c5446f73ede
18,1,1770.7000000001863,arrowleft,psychophysics,74,187354,0.0-3.0-0.35,"""",key,arrowleft,6.063592465753485,546.5,307,36,2,-1,26,15,25,35,true,"2021-10-03 17:36:47",99.240.209.93,"Mozilla/5.0 (Windows NT 10.0; Win64; x64) AppleWebKit/537.36 (KHTML, like Gecko) Chrome/94.0.4606.61 Safari/537.36",WebKit,Chrome,94.0.4606.61,Windows,10.0,fe3c1d035a65c549f7011c5446f73ede
18,1,null,null,psychophysics,75,188356,0.0-3.0-1.35,"""",key,null,6.06346341463412,546.5,307,"""","""","""","""","""","""","""","""","2021-10-03 17:36:47",99.240.209.93,"Mozilla/5.0 (Windows NT 10.0; Win64; x64) AppleWebKit/537.36 (KHTML, like Gecko) Chrome/94.0.4606.61 Safari/537.36",WebKit,Chrome,94.0.4606.61,Windows,10.0,fe3c1d035a65c549f7011c5446f73ede
18,1,1639.0999999996275,arrowright,psychophysics,76,189997,0.0-3.0-0.36,"""",key,arrowright,6.086223880597043,546.5,307,37,2,1,26,15,25,35,true,"2021-10-03 17:36:47",99.240.209.93,"Mozilla/5.0 (Windows NT 10.0; Win64; x64) AppleWebKit/537.36 (KHTML, like Gecko) Chrome/94.0.4606.61 Safari/537.36",WebKit,Chrome,94.0.4606.61,Windows,10.0,fe3c1d035a65c549f7011c5446f73ede
18,1,null,null,psychophysics,77,190998,0.0-3.0-1.36,"""",key,null,6.063646341463559,546.5,307,"""","""","""","""","""","""","""","""","2021-10-03 17:36:47",99.240.209.93,"Mozilla/5.0 (Windows NT 10.0; Win64; x64) AppleWebKit/537.36 (KHTML, like Gecko) Chrome/94.0.4606.61 Safari/537.36",WebKit,Chrome,94.0.4606.61,Windows,10.0,fe3c1d035a65c549f7011c5446f73ede
18,1,1065.4000000003725,arrowright,psychophysics,78,192067,0.0-3.0-0.37,"""",key,arrowright,6.063630681818143,546.5,307,38,2,1,26,15,25,35,true,"2021-10-03 17:36:47",99.240.209.93,"Mozilla/5.0 (Windows NT 10.0; Win64; x64) AppleWebKit/537.36 (KHTML, like Gecko) Chrome/94.0.4606.61 Safari/537.36",WebKit,Chrome,94.0.4606.61,Windows,10.0,fe3c1d035a65c549f7011c5446f73ede
18,1,null,null,psychophysics,79,193067,0.0-3.0-1.37,"""",key,null,6.06356097560975,546.5,307,"""","""","""","""","""","""","""","""","2021-10-03 17:36:47",99.240.209.93,"Mozilla/5.0 (Windows NT 10.0; Win64; x64) AppleWebKit/537.36 (KHTML, like Gecko) Chrome/94.0.4606.61 Safari/537.36",WebKit,Chrome,94.0.4606.61,Windows,10.0,fe3c1d035a65c549f7011c5446f73ede
18,1,1115.5,arrowright,psychophysics,80,194185,0.0-3.0-0.38,"""",key,arrowright,6.063595628415335,546.5,307,39,2,-1,27,35,25,35,false,"2021-10-03 17:36:47",99.240.209.93,"Mozilla/5.0 (Windows NT 10.0; Win64; x64) AppleWebKit/537.36 (KHTML, like Gecko) Chrome/94.0.4606.61 Safari/537.36",WebKit,Chrome,94.0.4606.61,Windows,10.0,fe3c1d035a65c549f7011c5446f73ede
18,1,null,null,psychophysics,81,195187,0.0-3.0-1.38,"""",key,null,6.063506097561025,546.5,307,"""","""","""","""","""","""","""","""","2021-10-03 17:36:47",99.240.209.93,"Mozilla/5.0 (Windows NT 10.0; Win64; x64) AppleWebKit/537.36 (KHTML, like Gecko) Chrome/94.0.4606.61 Safari/537.36",WebKit,Chrome,94.0.4606.61,Windows,10.0,fe3c1d035a65c549f7011c5446f73ede
18,1,1325.7999999998137,arrowleft,psychophysics,82,196514,0.0-3.0-0.39,"""",key,arrowleft,6.0915622119814605,546.5,307,40,2,-1,30,35,25,35,true,"2021-10-03 17:36:47",99.240.209.93,"Mozilla/5.0 (Windows NT 10.0; Win64; x64) AppleWebKit/537.36 (KHTML, like Gecko) Chrome/94.0.4606.61 Safari/537.36",WebKit,Chrome,94.0.4606.61,Windows,10.0,fe3c1d035a65c549f7011c5446f73ede
18,1,null,null,psychophysics,83,197516,0.0-3.0-1.39,"""",key,null,6.0635454545455465,546.5,307,"""","""","""","""","""","""","""","""","2021-10-03 17:36:47",99.240.209.93,"Mozilla/5.0 (Windows NT 10.0; Win64; x64) AppleWebKit/537.36 (KHTML, like Gecko) Chrome/94.0.4606.61 Safari/537.36",WebKit,Chrome,94.0.4606.61,Windows,10.0,fe3c1d035a65c549f7011c5446f73ede
18,1,1269.699999999255,arrowright,psychophysics,84,198788,0.0-3.0-0.40,"""",key,arrowright,6.06362980769238,546.5,307,41,2,-1,26,35,25,35,false,"2021-10-03 17:36:47",99.240.209.93,"Mozilla/5.0 (Windows NT 10.0; Win64; x64) AppleWebKit/537.36 (KHTML, like Gecko) Chrome/94.0.4606.61 Safari/537.36",WebKit,Chrome,94.0.4606.61,Windows,10.0,fe3c1d035a65c549f7011c5446f73ede
18,1,null,null,psychophysics,85,199790,0.0-3.0-1.40,"""",key,null,6.063615853658653,546.5,307,"""","""","""","""","""","""","""","""","2021-10-03 17:36:47",99.240.209.93,"Mozilla/5.0 (Windows NT 10.0; Win64; x64) AppleWebKit/537.36 (KHTML, like Gecko) Chrome/94.0.4606.61 Safari/537.36",WebKit,Chrome,94.0.4606.61,Windows,10.0,fe3c1d035a65c549f7011c5446f73ede
18,1,891,arrowright,psychophysics,86,200683,0.0-3.0-0.41,"""",key,arrowright,6.063612244897926,546.5,307,42,2,-1,20,35,25,35,false,"2021-10-03 17:36:47",99.240.209.93,"Mozilla/5.0 (Windows NT 10.0; Win64; x64) AppleWebKit/537.36 (KHTML, like Gecko) Chrome/94.0.4606.61 Safari/537.36",WebKit,Chrome,94.0.4606.61,Windows,10.0,fe3c1d035a65c549f7011c5446f73ede
18,1,null,null,psychophysics,87,201684,0.0-3.0-1.41,"""",key,null,6.063432926829214,546.5,307,"""","""","""","""","""","""","""","""","2021-10-03 17:36:47",99.240.209.93,"Mozilla/5.0 (Windows NT 10.0; Win64; x64) AppleWebKit/537.36 (KHTML, like Gecko) Chrome/94.0.4606.61 Safari/537.36",WebKit,Chrome,94.0.4606.61,Windows,10.0,fe3c1d035a65c549f7011c5446f73ede
18,1,1010.6999999992549,arrowright,psychophysics,88,202697,0.0-3.0-0.42,"""",key,arrowright,6.063638554216946,546.5,307,43,2,1,30,15,25,35,true,"2021-10-03 17:36:47",99.240.209.93,"Mozilla/5.0 (Windows NT 10.0; Win64; x64) AppleWebKit/537.36 (KHTML, like Gecko) Chrome/94.0.4606.61 Safari/537.36",WebKit,Chrome,94.0.4606.61,Windows,10.0,fe3c1d035a65c549f7011c5446f73ede
18,1,null,null,psychophysics,89,203699,0.0-3.0-1.42,"""",key,null,6.063542682926842,546.5,307,"""","""","""","""","""","""","""","""","2021-10-03 17:36:47",99.240.209.93,"Mozilla/5.0 (Windows NT 10.0; Win64; x64) AppleWebKit/537.36 (KHTML, like Gecko) Chrome/94.0.4606.61 Safari/537.36",WebKit,Chrome,94.0.4606.61,Windows,10.0,fe3c1d035a65c549f7011c5446f73ede
18,1,1538.300000000745,arrowright,psychophysics,90,205239,0.0-3.0-0.43,"""",key,arrowright,6.063636363636272,546.5,307,44,2,1,24,15,25,35,true,"2021-10-03 17:36:47",99.240.209.93,"Mozilla/5.0 (Windows NT 10.0; Win64; x64) AppleWebKit/537.36 (KHTML, like Gecko) Chrome/94.0.4606.61 Safari/537.36",WebKit,Chrome,94.0.4606.61,Windows,10.0,fe3c1d035a65c549f7011c5446f73ede
18,1,null,null,psychophysics,91,206241,0.0-3.0-1.43,"""",key,null,6.063621951219563,546.5,307,"""","""","""","""","""","""","""","""","2021-10-03 17:36:47",99.240.209.93,"Mozilla/5.0 (Windows NT 10.0; Win64; x64) AppleWebKit/537.36 (KHTML, like Gecko) Chrome/94.0.4606.61 Safari/537.36",WebKit,Chrome,94.0.4606.61,Windows,10.0,fe3c1d035a65c549f7011c5446f73ede
18,1,1763.4000000003725,arrowright,psychophysics,92,208007,0.0-3.0-0.44,"""",key,arrowright,6.08455517241382,546.5,307,45,2,1,25,35,25,35,true,"2021-10-03 17:36:47",99.240.209.93,"Mozilla/5.0 (Windows NT 10.0; Win64; x64) AppleWebKit/537.36 (KHTML, like Gecko) Chrome/94.0.4606.61 Safari/537.36",WebKit,Chrome,94.0.4606.61,Windows,10.0,fe3c1d035a65c549f7011c5446f73ede
18,1,null,null,psychophysics,93,209008,0.0-3.0-1.44,"""",key,null,6.063591463414657,546.5,307,"""","""","""","""","""","""","""","""","2021-10-03 17:36:47",99.240.209.93,"Mozilla/5.0 (Windows NT 10.0; Win64; x64) AppleWebKit/537.36 (KHTML, like Gecko) Chrome/94.0.4606.61 Safari/537.36",WebKit,Chrome,94.0.4606.61,Windows,10.0,fe3c1d035a65c549f7011c5446f73ede
18,1,1102.5,arrowright,psychophysics,94,210114,0.0-3.0-0.45,"""",key,arrowright,6.063563535911628,546.5,307,46,2,1,30,15,25,35,true,"2021-10-03 17:36:47",99.240.209.93,"Mozilla/5.0 (Windows NT 10.0; Win64; x64) AppleWebKit/537.36 (KHTML, like Gecko) Chrome/94.0.4606.61 Safari/537.36",WebKit,Chrome,94.0.4606.61,Windows,10.0,fe3c1d035a65c549f7011c5446f73ede
18,1,null,null,psychophysics,95,211115,0.0-3.0-1.45,"""",key,null,6.0635426829266645,546.5,307,"""","""","""","""","""","""","""","""","2021-10-03 17:36:47",99.240.209.93,"Mozilla/5.0 (Windows NT 10.0; Win64; x64) AppleWebKit/537.36 (KHTML, like Gecko) Chrome/94.0.4606.61 Safari/537.36",WebKit,Chrome,94.0.4606.61,Windows,10.0,fe3c1d035a65c549f7011c5446f73ede
18,1,1259.3999999994412,arrowleft,psychophysics,96,212376,0.0-3.0-0.46,"""",key,arrowleft,6.063632850241504,546.5,307,47,2,-1,25,15,25,35,true,"2021-10-03 17:36:47",99.240.209.93,"Mozilla/5.0 (Windows NT 10.0; Win64; x64) AppleWebKit/537.36 (KHTML, like Gecko) Chrome/94.0.4606.61 Safari/537.36",WebKit,Chrome,94.0.4606.61,Windows,10.0,fe3c1d035a65c549f7011c5446f73ede
18,1,null,null,psychophysics,97,213377,0.0-3.0-1.46,"""",key,null,6.063530487804844,546.5,307,"""","""","""","""","""","""","""","""","2021-10-03 17:36:47",99.240.209.93,"Mozilla/5.0 (Windows NT 10.0; Win64; x64) AppleWebKit/537.36 (KHTML, like Gecko) Chrome/94.0.4606.61 Safari/537.36",WebKit,Chrome,94.0.4606.61,Windows,10.0,fe3c1d035a65c549f7011c5446f73ede
18,1,1790.7999999998137,arrowright,psychophysics,98,215170,0.0-3.0-0.47,"""",key,arrowright,6.063593220339015,546.5,307,48,2,-1,23,35,25,35,false,"2021-10-03 17:36:47",99.240.209.93,"Mozilla/5.0 (Windows NT 10.0; Win64; x64) AppleWebKit/537.36 (KHTML, like Gecko) Chrome/94.0.4606.61 Safari/537.36",WebKit,Chrome,94.0.4606.61,Windows,10.0,fe3c1d035a65c549f7011c5446f73ede
18,1,null,null,psychophysics,99,216172,0.0-3.0-1.47,"""",key,null,6.063469512195031,546.5,307,"""","""","""","""","""","""","""","""","2021-10-03 17:36:47",99.240.209.93,"Mozilla/5.0 (Windows NT 10.0; Win64; x64) AppleWebKit/537.36 (KHTML, like Gecko) Chrome/94.0.4606.61 Safari/537.36",WebKit,Chrome,94.0.4606.61,Windows,10.0,fe3c1d035a65c549f7011c5446f73ede
18,1,1087.7000000001863,arrowleft,psychophysics,100,217261,0.0-3.0-0.48,"""",key,arrowleft,6.063754189944034,546.5,307,49,2,-1,30,15,25,35,true,"2021-10-03 17:36:47",99.240.209.93,"Mozilla/5.0 (Windows NT 10.0; Win64; x64) AppleWebKit/537.36 (KHTML, like Gecko) Chrome/94.0.4606.61 Safari/537.36",WebKit,Chrome,94.0.4606.61,Windows,10.0,fe3c1d035a65c549f7011c5446f73ede
18,1,null,null,psychophysics,101,218263,0.0-3.0-1.48,"""",key,null,6.0636524390244695,546.5,307,"""","""","""","""","""","""","""","""","2021-10-03 17:36:47",99.240.209.93,"Mozilla/5.0 (Windows NT 10.0; Win64; x64) AppleWebKit/537.36 (KHTML, like Gecko) Chrome/94.0.4606.61 Safari/537.36",WebKit,Chrome,94.0.4606.61,Windows,10.0,fe3c1d035a65c549f7011c5446f73ede
18,1,972.7000000001863,arrowright,psychophysics,102,219238,0.0-3.0-0.49,"""",key,arrowright,6.06364375000012,546.5,307,50,2,-1,20,35,25,35,false,"2021-10-03 17:36:47",99.240.209.93,"Mozilla/5.0 (Windows NT 10.0; Win64; x64) AppleWebKit/537.36 (KHTML, like Gecko) Chrome/94.0.4606.61 Safari/537.36",WebKit,Chrome,94.0.4606.61,Windows,10.0,fe3c1d035a65c549f7011c5446f73ede
18,1,null,null,psychophysics,103,220239,0.0-3.0-1.49,"""",key,null,6.063353658536493,546.5,307,"""","""","""","""","""","""","""","""","2021-10-03 17:36:47",99.240.209.93,"Mozilla/5.0 (Windows NT 10.0; Win64; x64) AppleWebKit/537.36 (KHTML, like Gecko) Chrome/94.0.4606.61 Safari/537.36",WebKit,Chrome,94.0.4606.61,Windows,10.0,fe3c1d035a65c549f7011c5446f73ede
18,1,1314,arrowright,psychophysics,104,221556,0.0-3.0-0.50,"""",key,arrowright,6.063541666666693,546.5,307,51,2,-1,25,35,25,35,false,"2021-10-03 17:36:47",99.240.209.93,"Mozilla/5.0 (Windows NT 10.0; Win64; x64) AppleWebKit/537.36 (KHTML, like Gecko) Chrome/94.0.4606.61 Safari/537.36",WebKit,Chrome,94.0.4606.61,Windows,10.0,fe3c1d035a65c549f7011c5446f73ede
18,1,null,null,psychophysics,105,222558,0.0-3.0-1.50,"""",key,null,6.063280487804859,546.5,307,"""","""","""","""","""","""","""","""","2021-10-03 17:36:47",99.240.209.93,"Mozilla/5.0 (Windows NT 10.0; Win64; x64) AppleWebKit/537.36 (KHTML, like Gecko) Chrome/94.0.4606.61 Safari/537.36",WebKit,Chrome,94.0.4606.61,Windows,10.0,fe3c1d035a65c549f7011c5446f73ede
18,1,1285.199999999255,arrowleft,psychophysics,106,223845,0.0-3.0-0.51,"""",key,arrowleft,6.063608490565972,546.5,307,52,2,-1,27,35,25,35,true,"2021-10-03 17:36:47",99.240.209.93,"Mozilla/5.0 (Windows NT 10.0; Win64; x64) AppleWebKit/537.36 (KHTML, like Gecko) Chrome/94.0.4606.61 Safari/537.36",WebKit,Chrome,94.0.4606.61,Windows,10.0,fe3c1d035a65c549f7011c5446f73ede
18,1,null,null,psychophysics,107,224846,0.0-3.0-1.51,"""",key,null,6.0636097560975655,546.5,307,"""","""","""","""","""","""","""","""","2021-10-03 17:36:47",99.240.209.93,"Mozilla/5.0 (Windows NT 10.0; Win64; x64) AppleWebKit/537.36 (KHTML, like Gecko) Chrome/94.0.4606.61 Safari/537.36",WebKit,Chrome,94.0.4606.61,Windows,10.0,fe3c1d035a65c549f7011c5446f73ede
18,1,1090.8999999994412,arrowleft,psychophysics,108,225939,0.0-3.0-0.52,"""",key,arrowleft,6.063620111731879,546.5,307,53,2,-1,27,15,25,35,true,"2021-10-03 17:36:47",99.240.209.93,"Mozilla/5.0 (Windows NT 10.0; Win64; x64) AppleWebKit/537.36 (KHTML, like Gecko) Chrome/94.0.4606.61 Safari/537.36",WebKit,Chrome,94.0.4606.61,Windows,10.0,fe3c1d035a65c549f7011c5446f73ede
18,1,null,null,psychophysics,109,226941,0.0-3.0-1.52,"""",key,null,6.063378048780489,546.5,307,"""","""","""","""","""","""","""","""","2021-10-03 17:36:47",99.240.209.93,"Mozilla/5.0 (Windows NT 10.0; Win64; x64) AppleWebKit/537.36 (KHTML, like Gecko) Chrome/94.0.4606.61 Safari/537.36",WebKit,Chrome,94.0.4606.61,Windows,10.0,fe3c1d035a65c549f7011c5446f73ede
18,1,1103.5,arrowleft,psychophysics,110,228048,0.0-3.0-0.53,"""",key,arrowleft,6.063571428571467,546.5,307,54,2,1,20,35,25,35,false,"2021-10-03 17:36:47",99.240.209.93,"Mozilla/5.0 (Windows NT 10.0; Win64; x64) AppleWebKit/537.36 (KHTML, like Gecko) Chrome/94.0.4606.61 Safari/537.36",WebKit,Chrome,94.0.4606.61,Windows,10.0,fe3c1d035a65c549f7011c5446f73ede
18,1,null,null,psychophysics,111,229049,0.0-3.0-1.53,"""",key,null,6.063451219512123,546.5,307,"""","""","""","""","""","""","""","""","2021-10-03 17:36:47",99.240.209.93,"Mozilla/5.0 (Windows NT 10.0; Win64; x64) AppleWebKit/537.36 (KHTML, like Gecko) Chrome/94.0.4606.61 Safari/537.36",WebKit,Chrome,94.0.4606.61,Windows,10.0,fe3c1d035a65c549f7011c5446f73ede
18,1,821.7000000001863,arrowright,psychophysics,112,229873,0.0-3.0-0.54,"""",key,arrowright,6.06347407407399,546.5,307,55,2,1,26,15,25,35,true,"2021-10-03 17:36:47",99.240.209.93,"Mozilla/5.0 (Windows NT 10.0; Win64; x64) AppleWebKit/537.36 (KHTML, like Gecko) Chrome/94.0.4606.61 Safari/537.36",WebKit,Chrome,94.0.4606.61,Windows,10.0,fe3c1d035a65c549f7011c5446f73ede
18,1,null,null,psychophysics,113,230874,0.0-3.0-1.54,"""",key,null,6.063390243902488,546.5,307,"""","""","""","""","""","""","""","""","2021-10-03 17:36:47",99.240.209.93,"Mozilla/5.0 (Windows NT 10.0; Win64; x64) AppleWebKit/537.36 (KHTML, like Gecko) Chrome/94.0.4606.61 Safari/537.36",WebKit,Chrome,94.0.4606.61,Windows,10.0,fe3c1d035a65c549f7011c5446f73ede
18,1,1449,arrowleft,psychophysics,114,232325,0.0-3.0-0.55,"""",key,arrowleft,6.063630252100841,546.5,307,56,3,-1,23,15,25,35,true,"2021-10-03 17:36:47",99.240.209.93,"Mozilla/5.0 (Windows NT 10.0; Win64; x64) AppleWebKit/537.36 (KHTML, like Gecko) Chrome/94.0.4606.61 Safari/537.36",WebKit,Chrome,94.0.4606.61,Windows,10.0,fe3c1d035a65c549f7011c5446f73ede
18,1,null,null,psychophysics,115,233327,0.0-3.0-1.55,"""",key,null,6.063493902439027,546.5,307,"""","""","""","""","""","""","""","""","2021-10-03 17:36:47",99.240.209.93,"Mozilla/5.0 (Windows NT 10.0; Win64; x64) AppleWebKit/537.36 (KHTML, like Gecko) Chrome/94.0.4606.61 Safari/537.36",WebKit,Chrome,94.0.4606.61,Windows,10.0,fe3c1d035a65c549f7011c5446f73ede
18,1,1326,arrowright,html-keyboard-response,116,234654,0.0-3.0-2.55-0.55,"<div style=""color: white; text-align: center; vertical-align: top; display: inline-block; width: 800px; margin: auto""><p>You have completed 20% of the trials. You are on block 3 of 10. <br>Good job! Take a break if you need to.</p><p>Press any key to continue the experiment.</p></div>","""","""","""","""","""","""","""","""","""","""","""","""","""","2021-10-03 17:36:47",99.240.209.93,"Mozilla/5.0 (Windows NT 10.0; Win64; x64) AppleWebKit/537.36 (KHTML, like Gecko) Chrome/94.0.4606.61 Safari/537.36",WebKit,Chrome,94.0.4606.61,Windows,10.0,fe3c1d035a65c549f7011c5446f73ede
18,1,858.2000000001863,arrowright,psychophysics,117,236516,0.0-3.0-0.56,"""",key,arrowright,6.151035714285848,546.5,307,57,3,-1,25,35,25,35,false,"2021-10-03 17:36:47",99.240.209.93,"Mozilla/5.0 (Windows NT 10.0; Win64; x64) AppleWebKit/537.36 (KHTML, like Gecko) Chrome/94.0.4606.61 Safari/537.36",WebKit,Chrome,94.0.4606.61,Windows,10.0,fe3c1d035a65c549f7011c5446f73ede
18,1,null,null,psychophysics,118,237517,0.0-3.0-1.56,"""",key,null,6.063524390243933,546.5,307,"""","""","""","""","""","""","""","""","2021-10-03 17:36:47",99.240.209.93,"Mozilla/5.0 (Windows NT 10.0; Win64; x64) AppleWebKit/537.36 (KHTML, like Gecko) Chrome/94.0.4606.61 Safari/537.36",WebKit,Chrome,94.0.4606.61,Windows,10.0,fe3c1d035a65c549f7011c5446f73ede
18,1,679.7000000001863,arrowleft,psychophysics,119,238199,0.0-3.0-0.57,"""",key,arrowleft,6.06351785714287,546.5,307,58,3,-1,30,15,25,35,true,"2021-10-03 17:36:47",99.240.209.93,"Mozilla/5.0 (Windows NT 10.0; Win64; x64) AppleWebKit/537.36 (KHTML, like Gecko) Chrome/94.0.4606.61 Safari/537.36",WebKit,Chrome,94.0.4606.61,Windows,10.0,fe3c1d035a65c549f7011c5446f73ede
18,1,null,null,psychophysics,120,239201,0.0-3.0-1.57,"""",key,null,6.0633841463413995,546.5,307,"""","""","""","""","""","""","""","""","2021-10-03 17:36:47",99.240.209.93,"Mozilla/5.0 (Windows NT 10.0; Win64; x64) AppleWebKit/537.36 (KHTML, like Gecko) Chrome/94.0.4606.61 Safari/537.36",WebKit,Chrome,94.0.4606.61,Windows,10.0,fe3c1d035a65c549f7011c5446f73ede
18,1,567.5,arrowright,psychophysics,121,239771,0.0-3.0-0.58,"""",key,arrowright,6.063569892473239,546.5,307,59,3,1,27,15,25,35,true,"2021-10-03 17:36:47",99.240.209.93,"Mozilla/5.0 (Windows NT 10.0; Win64; x64) AppleWebKit/537.36 (KHTML, like Gecko) Chrome/94.0.4606.61 Safari/537.36",WebKit,Chrome,94.0.4606.61,Windows,10.0,fe3c1d035a65c549f7011c5446f73ede
18,1,null,null,psychophysics,122,240772,0.0-3.0-1.58,"""",key,null,6.06354878048793,546.5,307,"""","""","""","""","""","""","""","""","2021-10-03 17:36:47",99.240.209.93,"Mozilla/5.0 (Windows NT 10.0; Win64; x64) AppleWebKit/537.36 (KHTML, like Gecko) Chrome/94.0.4606.61 Safari/537.36",WebKit,Chrome,94.0.4606.61,Windows,10.0,fe3c1d035a65c549f7011c5446f73ede
18,1,935.5,arrowright,psychophysics,123,241709,0.0-3.0-0.59,"""",key,arrowright,6.063571428571293,546.5,307,60,3,-1,27,35,25,35,false,"2021-10-03 17:36:47",99.240.209.93,"Mozilla/5.0 (Windows NT 10.0; Win64; x64) AppleWebKit/537.36 (KHTML, like Gecko) Chrome/94.0.4606.61 Safari/537.36",WebKit,Chrome,94.0.4606.61,Windows,10.0,fe3c1d035a65c549f7011c5446f73ede
18,1,null,null,psychophysics,124,242711,0.0-3.0-1.59,"""",key,null,6.063597560975745,546.5,307,"""","""","""","""","""","""","""","""","2021-10-03 17:36:47",99.240.209.93,"Mozilla/5.0 (Windows NT 10.0; Win64; x64) AppleWebKit/537.36 (KHTML, like Gecko) Chrome/94.0.4606.61 Safari/537.36",WebKit,Chrome,94.0.4606.61,Windows,10.0,fe3c1d035a65c549f7011c5446f73ede
18,1,646.7999999998137,arrowright,psychophysics,125,243359,0.0-3.0-0.60,"""",key,arrowright,6.063632075471654,546.5,307,61,3,1,23,15,25,35,true,"2021-10-03 17:36:47",99.240.209.93,"Mozilla/5.0 (Windows NT 10.0; Win64; x64) AppleWebKit/537.36 (KHTML, like Gecko) Chrome/94.0.4606.61 Safari/537.36",WebKit,Chrome,94.0.4606.61,Windows,10.0,fe3c1d035a65c549f7011c5446f73ede
18,1,null,null,psychophysics,126,244360,0.0-3.0-1.60,"""",key,null,6.0636097560975655,546.5,307,"""","""","""","""","""","""","""","""","2021-10-03 17:36:47",99.240.209.93,"Mozilla/5.0 (Windows NT 10.0; Win64; x64) AppleWebKit/537.36 (KHTML, like Gecko) Chrome/94.0.4606.61 Safari/537.36",WebKit,Chrome,94.0.4606.61,Windows,10.0,fe3c1d035a65c549f7011c5446f73ede
18,1,1031.9000000003725,arrowleft,psychophysics,127,245397,0.0-3.0-0.61,"""",key,arrowleft,6.063699999999987,546.5,307,62,3,1,25,35,25,35,false,"2021-10-03 17:36:47",99.240.209.93,"Mozilla/5.0 (Windows NT 10.0; Win64; x64) AppleWebKit/537.36 (KHTML, like Gecko) Chrome/94.0.4606.61 Safari/537.36",WebKit,Chrome,94.0.4606.61,Windows,10.0,fe3c1d035a65c549f7011c5446f73ede
18,1,null,null,psychophysics,128,246398,0.0-3.0-1.61,"""",key,null,6.063536585365754,546.5,307,"""","""","""","""","""","""","""","""","2021-10-03 17:36:47",99.240.209.93,"Mozilla/5.0 (Windows NT 10.0; Win64; x64) AppleWebKit/537.36 (KHTML, like Gecko) Chrome/94.0.4606.61 Safari/537.36",WebKit,Chrome,94.0.4606.61,Windows,10.0,fe3c1d035a65c549f7011c5446f73ede
18,1,558.5999999996275,arrowright,psychophysics,129,246959,0.0-3.0-0.62,"""",key,arrowright,6.063527472527662,546.5,307,63,3,1,26,15,25,35,true,"2021-10-03 17:36:47",99.240.209.93,"Mozilla/5.0 (Windows NT 10.0; Win64; x64) AppleWebKit/537.36 (KHTML, like Gecko) Chrome/94.0.4606.61 Safari/537.36",WebKit,Chrome,94.0.4606.61,Windows,10.0,fe3c1d035a65c549f7011c5446f73ede
18,1,null,null,psychophysics,130,247960,0.0-3.0-1.62,"""",key,null,6.063763636363508,546.5,307,"""","""","""","""","""","""","""","""","2021-10-03 17:36:47",99.240.209.93,"Mozilla/5.0 (Windows NT 10.0; Win64; x64) AppleWebKit/537.36 (KHTML, like Gecko) Chrome/94.0.4606.61 Safari/537.36",WebKit,Chrome,94.0.4606.61,Windows,10.0,fe3c1d035a65c549f7011c5446f73ede
18,1,721.3999999994412,arrowleft,psychophysics,131,248684,0.0-3.0-0.63,"""",key,arrowleft,6.063542372881537,546.5,307,64,3,-1,24,15,25,35,true,"2021-10-03 17:36:47",99.240.209.93,"Mozilla/5.0 (Windows NT 10.0; Win64; x64) AppleWebKit/537.36 (KHTML, like Gecko) Chrome/94.0.4606.61 Safari/537.36",WebKit,Chrome,94.0.4606.61,Windows,10.0,fe3c1d035a65c549f7011c5446f73ede
18,1,null,null,psychophysics,132,249685,0.0-3.0-1.63,"""",key,null,6.063579268292659,546.5,307,"""","""","""","""","""","""","""","""","2021-10-03 17:36:47",99.240.209.93,"Mozilla/5.0 (Windows NT 10.0; Win64; x64) AppleWebKit/537.36 (KHTML, like Gecko) Chrome/94.0.4606.61 Safari/537.36",WebKit,Chrome,94.0.4606.61,Windows,10.0,fe3c1d035a65c549f7011c5446f73ede
18,1,847.5999999996275,arrowright,psychophysics,133,250535,0.0-3.0-0.64,"""",key,arrowright,6.063561151079288,546.5,307,65,3,-1,26,35,25,35,false,"2021-10-03 17:36:47",99.240.209.93,"Mozilla/5.0 (Windows NT 10.0; Win64; x64) AppleWebKit/537.36 (KHTML, like Gecko) Chrome/94.0.4606.61 Safari/537.36",WebKit,Chrome,94.0.4606.61,Windows,10.0,fe3c1d035a65c549f7011c5446f73ede
18,1,null,null,psychophysics,134,251537,0.0-3.0-1.64,"""",key,null,6.063569696969705,546.5,307,"""","""","""","""","""","""","""","""","2021-10-03 17:36:47",99.240.209.93,"Mozilla/5.0 (Windows NT 10.0; Win64; x64) AppleWebKit/537.36 (KHTML, like Gecko) Chrome/94.0.4606.61 Safari/537.36",WebKit,Chrome,94.0.4606.61,Windows,10.0,fe3c1d035a65c549f7011c5446f73ede
18,1,581.9000000003725,arrowright,psychophysics,135,252121,0.0-3.0-0.65,"""",key,arrowright,6.063557894736847,546.5,307,66,3,1,23,15,25,35,true,"2021-10-03 17:36:47",99.240.209.93,"Mozilla/5.0 (Windows NT 10.0; Win64; x64) AppleWebKit/537.36 (KHTML, like Gecko) Chrome/94.0.4606.61 Safari/537.36",WebKit,Chrome,94.0.4606.61,Windows,10.0,fe3c1d035a65c549f7011c5446f73ede
18,1,null,null,psychophysics,136,253123,0.0-3.0-1.65,"""",key,null,6.063573170731571,546.5,307,"""","""","""","""","""","""","""","""","2021-10-03 17:36:47",99.240.209.93,"Mozilla/5.0 (Windows NT 10.0; Win64; x64) AppleWebKit/537.36 (KHTML, like Gecko) Chrome/94.0.4606.61 Safari/537.36",WebKit,Chrome,94.0.4606.61,Windows,10.0,fe3c1d035a65c549f7011c5446f73ede
18,1,743.8999999994412,arrowright,psychophysics,137,253868,0.0-3.0-0.66,"""",key,arrowright,6.063573770491754,546.5,307,67,3,1,24,35,25,35,true,"2021-10-03 17:36:47",99.240.209.93,"Mozilla/5.0 (Windows NT 10.0; Win64; x64) AppleWebKit/537.36 (KHTML, like Gecko) Chrome/94.0.4606.61 Safari/537.36",WebKit,Chrome,94.0.4606.61,Windows,10.0,fe3c1d035a65c549f7011c5446f73ede
18,1,null,null,psychophysics,138,254870,0.0-3.0-1.66,"""",key,null,6.063585365853569,546.5,307,"""","""","""","""","""","""","""","""","2021-10-03 17:36:47",99.240.209.93,"Mozilla/5.0 (Windows NT 10.0; Win64; x64) AppleWebKit/537.36 (KHTML, like Gecko) Chrome/94.0.4606.61 Safari/537.36",WebKit,Chrome,94.0.4606.61,Windows,10.0,fe3c1d035a65c549f7011c5446f73ede
18,1,1194.2000000001863,arrowright,psychophysics,139,256066,0.0-3.0-0.67,"""",key,arrowright,6.063693877551004,546.5,307,68,3,-1,26,35,25,35,false,"2021-10-03 17:36:47",99.240.209.93,"Mozilla/5.0 (Windows NT 10.0; Win64; x64) AppleWebKit/537.36 (KHTML, like Gecko) Chrome/94.0.4606.61 Safari/537.36",WebKit,Chrome,94.0.4606.61,Windows,10.0,fe3c1d035a65c549f7011c5446f73ede
18,1,null,null,psychophysics,140,257069,0.0-3.0-1.67,"""",key,null,6.0635818181818735,546.5,307,"""","""","""","""","""","""","""","""","2021-10-03 17:36:47",99.240.209.93,"Mozilla/5.0 (Windows NT 10.0; Win64; x64) AppleWebKit/537.36 (KHTML, like Gecko) Chrome/94.0.4606.61 Safari/537.36",WebKit,Chrome,94.0.4606.61,Windows,10.0,fe3c1d035a65c549f7011c5446f73ede
18,1,1868.2000000001863,arrowleft,psychophysics,141,258939,0.0-3.0-0.68,"""",key,arrowleft,6.063543973941373,546.5,307,69,3,-1,23,15,25,35,true,"2021-10-03 17:36:47",99.240.209.93,"Mozilla/5.0 (Windows NT 10.0; Win64; x64) AppleWebKit/537.36 (KHTML, like Gecko) Chrome/94.0.4606.61 Safari/537.36",WebKit,Chrome,94.0.4606.61,Windows,10.0,fe3c1d035a65c549f7011c5446f73ede
18,1,null,null,psychophysics,142,259941,0.0-3.0-1.68,"""",key,null,6.100742331288356,546.5,307,"""","""","""","""","""","""","""","""","2021-10-03 17:36:47",99.240.209.93,"Mozilla/5.0 (Windows NT 10.0; Win64; x64) AppleWebKit/537.36 (KHTML, like Gecko) Chrome/94.0.4606.61 Safari/537.36",WebKit,Chrome,94.0.4606.61,Windows,10.0,fe3c1d035a65c549f7011c5446f73ede
18,1,547,arrowright,psychophysics,143,260490,0.0-3.0-0.69,"""",key,arrowright,6.06372222222239,546.5,307,70,3,1,30,15,25,35,true,"2021-10-03 17:36:47",99.240.209.93,"Mozilla/5.0 (Windows NT 10.0; Win64; x64) AppleWebKit/537.36 (KHTML, like Gecko) Chrome/94.0.4606.61 Safari/537.36",WebKit,Chrome,94.0.4606.61,Windows,10.0,fe3c1d035a65c549f7011c5446f73ede
18,1,null,null,psychophysics,144,261492,0.0-3.0-1.69,"""",key,null,6.063451219512123,546.5,307,"""","""","""","""","""","""","""","""","2021-10-03 17:36:47",99.240.209.93,"Mozilla/5.0 (Windows NT 10.0; Win64; x64) AppleWebKit/537.36 (KHTML, like Gecko) Chrome/94.0.4606.61 Safari/537.36",WebKit,Chrome,94.0.4606.61,Windows,10.0,fe3c1d035a65c549f7011c5446f73ede
18,1,665.2999999998137,arrowright,psychophysics,145,262161,0.0-3.0-0.70,"""",key,arrowright,6.119119266055016,546.5,307,71,3,1,27,35,25,35,true,"2021-10-03 17:36:47",99.240.209.93,"Mozilla/5.0 (Windows NT 10.0; Win64; x64) AppleWebKit/537.36 (KHTML, like Gecko) Chrome/94.0.4606.61 Safari/537.36",WebKit,Chrome,94.0.4606.61,Windows,10.0,fe3c1d035a65c549f7011c5446f73ede
18,1,null,null,psychophysics,146,263163,0.0-3.0-1.70,"""",key,null,6.063676829268111,546.5,307,"""","""","""","""","""","""","""","""","2021-10-03 17:36:47",99.240.209.93,"Mozilla/5.0 (Windows NT 10.0; Win64; x64) AppleWebKit/537.36 (KHTML, like Gecko) Chrome/94.0.4606.61 Safari/537.36",WebKit,Chrome,94.0.4606.61,Windows,10.0,fe3c1d035a65c549f7011c5446f73ede
18,1,1461.9000000003725,arrowright,psychophysics,147,264627,0.0-3.0-0.71,"""",key,arrowright,6.0889037656902225,546.5,307,72,3,-1,20,35,25,35,false,"2021-10-03 17:36:47",99.240.209.93,"Mozilla/5.0 (Windows NT 10.0; Win64; x64) AppleWebKit/537.36 (KHTML, like Gecko) Chrome/94.0.4606.61 Safari/537.36",WebKit,Chrome,94.0.4606.61,Windows,10.0,fe3c1d035a65c549f7011c5446f73ede
18,1,null,null,psychophysics,148,265628,0.0-3.0-1.71,"""",key,null,6.063493902439027,546.5,307,"""","""","""","""","""","""","""","""","2021-10-03 17:36:47",99.240.209.93,"Mozilla/5.0 (Windows NT 10.0; Win64; x64) AppleWebKit/537.36 (KHTML, like Gecko) Chrome/94.0.4606.61 Safari/537.36",WebKit,Chrome,94.0.4606.61,Windows,10.0,fe3c1d035a65c549f7011c5446f73ede
18,1,998.0999999996275,arrowleft,psychophysics,149,266628,0.0-3.0-0.72,"""",key,arrowleft,6.063603658536833,546.5,307,73,3,-1,26,15,25,35,true,"2021-10-03 17:36:47",99.240.209.93,"Mozilla/5.0 (Windows NT 10.0; Win64; x64) AppleWebKit/537.36 (KHTML, like Gecko) Chrome/94.0.4606.61 Safari/537.36",WebKit,Chrome,94.0.4606.61,Windows,10.0,fe3c1d035a65c549f7011c5446f73ede
18,1,null,null,psychophysics,150,267629,0.0-3.0-1.72,"""",key,null,6.063603658536477,546.5,307,"""","""","""","""","""","""","""","""","2021-10-03 17:36:47",99.240.209.93,"Mozilla/5.0 (Windows NT 10.0; Win64; x64) AppleWebKit/537.36 (KHTML, like Gecko) Chrome/94.0.4606.61 Safari/537.36",WebKit,Chrome,94.0.4606.61,Windows,10.0,fe3c1d035a65c549f7011c5446f73ede
18,1,1036.2000000001863,arrowright,psychophysics,151,268669,0.0-3.0-0.73,"""",key,arrowright,6.063584795321423,546.5,307,74,3,-1,25,35,25,35,false,"2021-10-03 17:36:47",99.240.209.93,"Mozilla/5.0 (Windows NT 10.0; Win64; x64) AppleWebKit/537.36 (KHTML, like Gecko) Chrome/94.0.4606.61 Safari/537.36",WebKit,Chrome,94.0.4606.61,Windows,10.0,fe3c1d035a65c549f7011c5446f73ede
18,1,null,null,psychophysics,152,269670,0.0-3.0-1.73,"""",key,null,6.06354268292702,546.5,307,"""","""","""","""","""","""","""","""","2021-10-03 17:36:47",99.240.209.93,"Mozilla/5.0 (Windows NT 10.0; Win64; x64) AppleWebKit/537.36 (KHTML, like Gecko) Chrome/94.0.4606.61 Safari/537.36",WebKit,Chrome,94.0.4606.61,Windows,10.0,fe3c1d035a65c549f7011c5446f73ede
18,1,629.9000000003725,arrowright,psychophysics,153,270302,0.0-3.0-0.74,"""",key,arrowright,6.063601941747356,546.5,307,75,3,1,30,35,25,35,true,"2021-10-03 17:36:47",99.240.209.93,"Mozilla/5.0 (Windows NT 10.0; Win64; x64) AppleWebKit/537.36 (KHTML, like Gecko) Chrome/94.0.4606.61 Safari/537.36",WebKit,Chrome,94.0.4606.61,Windows,10.0,fe3c1d035a65c549f7011c5446f73ede
18,1,null,null,psychophysics,154,271304,0.0-3.0-1.74,"""",key,null,6.063506097560848,546.5,307,"""","""","""","""","""","""","""","""","2021-10-03 17:36:47",99.240.209.93,"Mozilla/5.0 (Windows NT 10.0; Win64; x64) AppleWebKit/537.36 (KHTML, like Gecko) Chrome/94.0.4606.61 Safari/537.36",WebKit,Chrome,94.0.4606.61,Windows,10.0,fe3c1d035a65c549f7011c5446f73ede
18,1,1325.9000000003725,arrowleft,psychophysics,155,272632,0.0-3.0-0.75,"""",key,arrowleft,6.0916221198158595,546.5,307,76,3,-1,27,15,25,35,true,"2021-10-03 17:36:47",99.240.209.93,"Mozilla/5.0 (Windows NT 10.0; Win64; x64) AppleWebKit/537.36 (KHTML, like Gecko) Chrome/94.0.4606.61 Safari/537.36",WebKit,Chrome,94.0.4606.61,Windows,10.0,fe3c1d035a65c549f7011c5446f73ede
18,1,null,null,psychophysics,156,273633,0.0-3.0-1.75,"""",key,null,6.063646341463205,546.5,307,"""","""","""","""","""","""","""","""","2021-10-03 17:36:47",99.240.209.93,"Mozilla/5.0 (Windows NT 10.0; Win64; x64) AppleWebKit/537.36 (KHTML, like Gecko) Chrome/94.0.4606.61 Safari/537.36",WebKit,Chrome,94.0.4606.61,Windows,10.0,fe3c1d035a65c549f7011c5446f73ede
18,1,969.2000000001863,arrowleft,psychophysics,157,274606,0.0-3.0-0.76,"""",key,arrowleft,6.063631250000253,546.5,307,77,3,-1,24,15,25,35,true,"2021-10-03 17:36:47",99.240.209.93,"Mozilla/5.0 (Windows NT 10.0; Win64; x64) AppleWebKit/537.36 (KHTML, like Gecko) Chrome/94.0.4606.61 Safari/537.36",WebKit,Chrome,94.0.4606.61,Windows,10.0,fe3c1d035a65c549f7011c5446f73ede
18,1,null,null,psychophysics,158,275607,0.0-3.0-1.76,"""",key,null,6.063567073170661,546.5,307,"""","""","""","""","""","""","""","""","2021-10-03 17:36:47",99.240.209.93,"Mozilla/5.0 (Windows NT 10.0; Win64; x64) AppleWebKit/537.36 (KHTML, like Gecko) Chrome/94.0.4606.61 Safari/537.36",WebKit,Chrome,94.0.4606.61,Windows,10.0,fe3c1d035a65c549f7011c5446f73ede
18,1,701.7000000001863,arrowright,psychophysics,159,276311,0.0-3.0-0.77,"""",key,arrowright,6.063573913043871,546.5,307,78,3,1,27,15,25,35,true,"2021-10-03 17:36:47",99.240.209.93,"Mozilla/5.0 (Windows NT 10.0; Win64; x64) AppleWebKit/537.36 (KHTML, like Gecko) Chrome/94.0.4606.61 Safari/537.36",WebKit,Chrome,94.0.4606.61,Windows,10.0,fe3c1d035a65c549f7011c5446f73ede
18,1,null,null,psychophysics,160,277312,0.0-3.0-1.77,"""",key,null,6.063548780487575,546.5,307,"""","""","""","""","""","""","""","""","2021-10-03 17:36:47",99.240.209.93,"Mozilla/5.0 (Windows NT 10.0; Win64; x64) AppleWebKit/537.36 (KHTML, like Gecko) Chrome/94.0.4606.61 Safari/537.36",WebKit,Chrome,94.0.4606.61,Windows,10.0,fe3c1d035a65c549f7011c5446f73ede
18,1,1236.300000000745,arrowright,psychophysics,161,278551,0.0-3.0-0.78,"""",key,arrowright,6.063620689655069,546.5,307,79,3,1,26,35,25,35,true,"2021-10-03 17:36:47",99.240.209.93,"Mozilla/5.0 (Windows NT 10.0; Win64; x64) AppleWebKit/537.36 (KHTML, like Gecko) Chrome/94.0.4606.61 Safari/537.36",WebKit,Chrome,94.0.4606.61,Windows,10.0,fe3c1d035a65c549f7011c5446f73ede
18,1,null,null,psychophysics,162,279552,0.0-3.0-1.78,"""",key,null,6.100628048780647,546.5,307,"""","""","""","""","""","""","""","""","2021-10-03 17:36:47",99.240.209.93,"Mozilla/5.0 (Windows NT 10.0; Win64; x64) AppleWebKit/537.36 (KHTML, like Gecko) Chrome/94.0.4606.61 Safari/537.36",WebKit,Chrome,94.0.4606.61,Windows,10.0,fe3c1d035a65c549f7011c5446f73ede
18,1,756.6999999992549,arrowright,psychophysics,163,280312,0.0-3.0-0.79,"""",key,arrowright,6.06363709677422,546.5,307,80,3,-1,27,35,25,35,false,"2021-10-03 17:36:47",99.240.209.93,"Mozilla/5.0 (Windows NT 10.0; Win64; x64) AppleWebKit/537.36 (KHTML, like Gecko) Chrome/94.0.4606.61 Safari/537.36",WebKit,Chrome,94.0.4606.61,Windows,10.0,fe3c1d035a65c549f7011c5446f73ede
18,1,null,null,psychophysics,164,281314,0.0-3.0-1.79,"""",key,null,6.06366463414629,546.5,307,"""","""","""","""","""","""","""","""","2021-10-03 17:36:47",99.240.209.93,"Mozilla/5.0 (Windows NT 10.0; Win64; x64) AppleWebKit/537.36 (KHTML, like Gecko) Chrome/94.0.4606.61 Safari/537.36",WebKit,Chrome,94.0.4606.61,Windows,10.0,fe3c1d035a65c549f7011c5446f73ede
18,1,806.4000000003725,arrowleft,psychophysics,165,282123,0.0-3.0-0.80,"""",key,arrowleft,6.063669172932282,546.5,307,81,3,-1,30,15,25,35,true,"2021-10-03 17:36:47",99.240.209.93,"Mozilla/5.0 (Windows NT 10.0; Win64; x64) AppleWebKit/537.36 (KHTML, like Gecko) Chrome/94.0.4606.61 Safari/537.36",WebKit,Chrome,94.0.4606.61,Windows,10.0,fe3c1d035a65c549f7011c5446f73ede
18,1,null,null,psychophysics,166,283124,0.0-3.0-1.80,"""",key,null,6.063615853658653,546.5,307,"""","""","""","""","""","""","""","""","2021-10-03 17:36:47",99.240.209.93,"Mozilla/5.0 (Windows NT 10.0; Win64; x64) AppleWebKit/537.36 (KHTML, like Gecko) Chrome/94.0.4606.61 Safari/537.36",WebKit,Chrome,94.0.4606.61,Windows,10.0,fe3c1d035a65c549f7011c5446f73ede
18,1,900.7000000001863,arrowleft,psychophysics,167,284027,0.0-3.0-0.81,"""",key,arrowleft,6.063695945945723,546.5,307,82,3,1,20,35,25,35,false,"2021-10-03 17:36:47",99.240.209.93,"Mozilla/5.0 (Windows NT 10.0; Win64; x64) AppleWebKit/537.36 (KHTML, like Gecko) Chrome/94.0.4606.61 Safari/537.36",WebKit,Chrome,94.0.4606.61,Windows,10.0,fe3c1d035a65c549f7011c5446f73ede
18,1,null,null,psychophysics,168,285028,0.0-3.0-1.81,"""",key,null,6.063548780487575,546.5,307,"""","""","""","""","""","""","""","""","2021-10-03 17:36:47",99.240.209.93,"Mozilla/5.0 (Windows NT 10.0; Win64; x64) AppleWebKit/537.36 (KHTML, like Gecko) Chrome/94.0.4606.61 Safari/537.36",WebKit,Chrome,94.0.4606.61,Windows,10.0,fe3c1d035a65c549f7011c5446f73ede
18,1,677.4000000003725,arrowright,psychophysics,169,285708,0.0-3.0-0.82,"""",key,arrowright,6.06364864864867,546.5,307,83,3,1,24,15,25,35,true,"2021-10-03 17:36:47",99.240.209.93,"Mozilla/5.0 (Windows NT 10.0; Win64; x64) AppleWebKit/537.36 (KHTML, like Gecko) Chrome/94.0.4606.61 Safari/537.36",WebKit,Chrome,94.0.4606.61,Windows,10.0,fe3c1d035a65c549f7011c5446f73ede
18,1,null,null,psychophysics,170,286711,0.0-3.0-1.82,"""",key,null,6.063493902439027,546.5,307,"""","""","""","""","""","""","""","""","2021-10-03 17:36:47",99.240.209.93,"Mozilla/5.0 (Windows NT 10.0; Win64; x64) AppleWebKit/537.36 (KHTML, like Gecko) Chrome/94.0.4606.61 Safari/537.36",WebKit,Chrome,94.0.4606.61,Windows,10.0,fe3c1d035a65c549f7011c5446f73ede
18,1,765.3000000007451,arrowleft,psychophysics,171,287478,0.0-3.0-0.83,"""",key,arrowleft,6.063761904761787,546.5,307,84,4,-1,24,15,25,35,true,"2021-10-03 17:36:47",99.240.209.93,"Mozilla/5.0 (Windows NT 10.0; Win64; x64) AppleWebKit/537.36 (KHTML, like Gecko) Chrome/94.0.4606.61 Safari/537.36",WebKit,Chrome,94.0.4606.61,Windows,10.0,fe3c1d035a65c549f7011c5446f73ede
18,1,null,null,psychophysics,172,288479,0.0-3.0-1.83,"""",key,null,6.100822085889622,546.5,307,"""","""","""","""","""","""","""","""","2021-10-03 17:36:47",99.240.209.93,"Mozilla/5.0 (Windows NT 10.0; Win64; x64) AppleWebKit/537.36 (KHTML, like Gecko) Chrome/94.0.4606.61 Safari/537.36",WebKit,Chrome,94.0.4606.61,Windows,10.0,fe3c1d035a65c549f7011c5446f73ede
18,1,170735.89999999944,0,html-keyboard-response,173,459216,0.0-3.0-2.83-0.83,"<div style=""color: white; text-align: center; vertical-align: top; display: inline-block; width: 800px; margin: auto""><p>You have completed 30% of the trials. You are on block 4 of 10. <br>Good job! Take a break if you need to.</p><p>Press any key to continue the experiment.</p></div>","""","""","""","""","""","""","""","""","""","""","""","""","""","2021-10-03 17:36:47",99.240.209.93,"Mozilla/5.0 (Windows NT 10.0; Win64; x64) AppleWebKit/537.36 (KHTML, like Gecko) Chrome/94.0.4606.61 Safari/537.36",WebKit,Chrome,94.0.4606.61,Windows,10.0,fe3c1d035a65c549f7011c5446f73ede
18,1,910,arrowright,psychophysics,174,461132,0.0-3.0-0.84,"""",key,arrowright,6.064586666666437,546.5,307,85,4,1,30,15,25,35,true,"2021-10-03 17:36:47",99.240.209.93,"Mozilla/5.0 (Windows NT 10.0; Win64; x64) AppleWebKit/537.36 (KHTML, like Gecko) Chrome/94.0.4606.61 Safari/537.36",WebKit,Chrome,94.0.4606.61,Windows,10.0,fe3c1d035a65c549f7011c5446f73ede
18,1,null,null,psychophysics,175,462133,0.0-3.0-1.84,"""",key,null,6.063481707316852,546.5,307,"""","""","""","""","""","""","""","""","2021-10-03 17:36:47",99.240.209.93,"Mozilla/5.0 (Windows NT 10.0; Win64; x64) AppleWebKit/537.36 (KHTML, like Gecko) Chrome/94.0.4606.61 Safari/537.36",WebKit,Chrome,94.0.4606.61,Windows,10.0,fe3c1d035a65c549f7011c5446f73ede
18,1,987.7000000001863,arrowright,psychophysics,176,463123,0.0-3.0-0.85,"""",key,arrowright,6.063650306748467,546.5,307,86,4,-1,25,35,25,35,false,"2021-10-03 17:36:47",99.240.209.93,"Mozilla/5.0 (Windows NT 10.0; Win64; x64) AppleWebKit/537.36 (KHTML, like Gecko) Chrome/94.0.4606.61 Safari/537.36",WebKit,Chrome,94.0.4606.61,Windows,10.0,fe3c1d035a65c549f7011c5446f73ede
18,1,null,null,psychophysics,177,464123,0.0-3.0-1.85,"""",key,null,6.06354878048793,546.5,307,"""","""","""","""","""","""","""","""","2021-10-03 17:36:47",99.240.209.93,"Mozilla/5.0 (Windows NT 10.0; Win64; x64) AppleWebKit/537.36 (KHTML, like Gecko) Chrome/94.0.4606.61 Safari/537.36",WebKit,Chrome,94.0.4606.61,Windows,10.0,fe3c1d035a65c549f7011c5446f73ede
18,1,594.3999999994412,arrowright,psychophysics,178,464720,0.0-3.0-0.86,"""",key,arrowright,6.0634329896906305,546.5,307,87,4,1,25,15,25,35,true,"2021-10-03 17:36:47",99.240.209.93,"Mozilla/5.0 (Windows NT 10.0; Win64; x64) AppleWebKit/537.36 (KHTML, like Gecko) Chrome/94.0.4606.61 Safari/537.36",WebKit,Chrome,94.0.4606.61,Windows,10.0,fe3c1d035a65c549f7011c5446f73ede
18,1,null,null,psychophysics,179,465723,0.0-3.0-1.86,"""",key,null,6.0634024390243075,546.5,307,"""","""","""","""","""","""","""","""","2021-10-03 17:36:47",99.240.209.93,"Mozilla/5.0 (Windows NT 10.0; Win64; x64) AppleWebKit/537.36 (KHTML, like Gecko) Chrome/94.0.4606.61 Safari/537.36",WebKit,Chrome,94.0.4606.61,Windows,10.0,fe3c1d035a65c549f7011c5446f73ede
18,1,697.7000000001863,arrowright,psychophysics,180,466422,0.0-3.0-0.87,"""",key,arrowright,6.0636347826089425,546.5,307,88,4,1,27,15,25,35,true,"2021-10-03 17:36:47",99.240.209.93,"Mozilla/5.0 (Windows NT 10.0; Win64; x64) AppleWebKit/537.36 (KHTML, like Gecko) Chrome/94.0.4606.61 Safari/537.36",WebKit,Chrome,94.0.4606.61,Windows,10.0,fe3c1d035a65c549f7011c5446f73ede
18,1,null,null,psychophysics,181,467423,0.0-3.0-1.87,"""",key,null,6.063499999999937,546.5,307,"""","""","""","""","""","""","""","""","2021-10-03 17:36:47",99.240.209.93,"Mozilla/5.0 (Windows NT 10.0; Win64; x64) AppleWebKit/537.36 (KHTML, like Gecko) Chrome/94.0.4606.61 Safari/537.36",WebKit,Chrome,94.0.4606.61,Windows,10.0,fe3c1d035a65c549f7011c5446f73ede
18,1,955.2999999998137,arrowright,psychophysics,182,468380,0.0-3.0-0.88,"""",key,arrowright,6.063464968153098,546.5,307,89,4,1,23,15,25,35,true,"2021-10-03 17:36:47",99.240.209.93,"Mozilla/5.0 (Windows NT 10.0; Win64; x64) AppleWebKit/537.36 (KHTML, like Gecko) Chrome/94.0.4606.61 Safari/537.36",WebKit,Chrome,94.0.4606.61,Windows,10.0,fe3c1d035a65c549f7011c5446f73ede
18,1,null,null,psychophysics,183,469382,0.0-3.0-1.88,"""",key,null,6.063499999999937,546.5,307,"""","""","""","""","""","""","""","""","2021-10-03 17:36:47",99.240.209.93,"Mozilla/5.0 (Windows NT 10.0; Win64; x64) AppleWebKit/537.36 (KHTML, like Gecko) Chrome/94.0.4606.61 Safari/537.36",WebKit,Chrome,94.0.4606.61,Windows,10.0,fe3c1d035a65c549f7011c5446f73ede
18,1,559.2999999998137,arrowleft,psychophysics,184,469943,0.0-3.0-0.89,"""",key,arrowleft,6.0633516483518015,546.5,307,90,4,-1,27,15,25,35,true,"2021-10-03 17:36:47",99.240.209.93,"Mozilla/5.0 (Windows NT 10.0; Win64; x64) AppleWebKit/537.36 (KHTML, like Gecko) Chrome/94.0.4606.61 Safari/537.36",WebKit,Chrome,94.0.4606.61,Windows,10.0,fe3c1d035a65c549f7011c5446f73ede
18,1,null,null,psychophysics,185,470944,0.0-3.0-1.89,"""",key,null,6.063509090909043,546.5,307,"""","""","""","""","""","""","""","""","2021-10-03 17:36:47",99.240.209.93,"Mozilla/5.0 (Windows NT 10.0; Win64; x64) AppleWebKit/537.36 (KHTML, like Gecko) Chrome/94.0.4606.61 Safari/537.36",WebKit,Chrome,94.0.4606.61,Windows,10.0,fe3c1d035a65c549f7011c5446f73ede
18,1,1459.2999999998137,arrowleft,psychophysics,186,472407,0.0-3.0-0.90,"""",key,arrowleft,6.06353333333318,546.5,307,91,4,-1,30,35,25,35,true,"2021-10-03 17:36:47",99.240.209.93,"Mozilla/5.0 (Windows NT 10.0; Win64; x64) AppleWebKit/537.36 (KHTML, like Gecko) Chrome/94.0.4606.61 Safari/537.36",WebKit,Chrome,94.0.4606.61,Windows,10.0,fe3c1d035a65c549f7011c5446f73ede
18,1,null,null,psychophysics,187,473408,0.0-3.0-1.90,"""",key,null,6.063524390243933,546.5,307,"""","""","""","""","""","""","""","""","2021-10-03 17:36:47",99.240.209.93,"Mozilla/5.0 (Windows NT 10.0; Win64; x64) AppleWebKit/537.36 (KHTML, like Gecko) Chrome/94.0.4606.61 Safari/537.36",WebKit,Chrome,94.0.4606.61,Windows,10.0,fe3c1d035a65c549f7011c5446f73ede
18,1,834,arrowleft,psychophysics,188,474244,0.0-3.0-0.91,"""",key,arrowleft,6.0635547445255105,546.5,307,92,4,-1,26,15,25,35,true,"2021-10-03 17:36:47",99.240.209.93,"Mozilla/5.0 (Windows NT 10.0; Win64; x64) AppleWebKit/537.36 (KHTML, like Gecko) Chrome/94.0.4606.61 Safari/537.36",WebKit,Chrome,94.0.4606.61,Windows,10.0,fe3c1d035a65c549f7011c5446f73ede
18,1,null,null,psychophysics,189,475245,0.0-3.0-1.91,"""",key,null,6.063512195122113,546.5,307,"""","""","""","""","""","""","""","""","2021-10-03 17:36:47",99.240.209.93,"Mozilla/5.0 (Windows NT 10.0; Win64; x64) AppleWebKit/537.36 (KHTML, like Gecko) Chrome/94.0.4606.61 Safari/537.36",WebKit,Chrome,94.0.4606.61,Windows,10.0,fe3c1d035a65c549f7011c5446f73ede
18,1,1041.4000000003725,arrowright,psychophysics,190,476288,0.0-3.0-0.92,"""",key,arrowright,6.063654970760289,546.5,307,93,4,-1,24,35,25,35,false,"2021-10-03 17:36:47",99.240.209.93,"Mozilla/5.0 (Windows NT 10.0; Win64; x64) AppleWebKit/537.36 (KHTML, like Gecko) Chrome/94.0.4606.61 Safari/537.36",WebKit,Chrome,94.0.4606.61,Windows,10.0,fe3c1d035a65c549f7011c5446f73ede
18,1,null,null,psychophysics,191,477289,0.0-3.0-1.92,"""",key,null,6.063487804878117,546.5,307,"""","""","""","""","""","""","""","""","2021-10-03 17:36:47",99.240.209.93,"Mozilla/5.0 (Windows NT 10.0; Win64; x64) AppleWebKit/537.36 (KHTML, like Gecko) Chrome/94.0.4606.61 Safari/537.36",WebKit,Chrome,94.0.4606.61,Windows,10.0,fe3c1d035a65c549f7011c5446f73ede
18,1,603.4000000003725,arrowleft,psychophysics,192,477897,0.0-3.0-0.93,"""",key,arrowleft,6.062898989899126,546.5,307,94,4,-1,24,15,25,35,true,"2021-10-03 17:36:47",99.240.209.93,"Mozilla/5.0 (Windows NT 10.0; Win64; x64) AppleWebKit/537.36 (KHTML, like Gecko) Chrome/94.0.4606.61 Safari/537.36",WebKit,Chrome,94.0.4606.61,Windows,10.0,fe3c1d035a65c549f7011c5446f73ede
18,1,null,null,psychophysics,193,478897,0.0-3.0-1.93,"""",key,null,6.063530487804844,546.5,307,"""","""","""","""","""","""","""","""","2021-10-03 17:36:47",99.240.209.93,"Mozilla/5.0 (Windows NT 10.0; Win64; x64) AppleWebKit/537.36 (KHTML, like Gecko) Chrome/94.0.4606.61 Safari/537.36",WebKit,Chrome,94.0.4606.61,Windows,10.0,fe3c1d035a65c549f7011c5446f73ede
18,1,1989.2000000001863,arrowright,psychophysics,194,480888,0.0-3.0-0.94,"""",key,arrowright,6.063624999999841,546.5,307,95,4,-1,25,35,25,35,false,"2021-10-03 17:36:47",99.240.209.93,"Mozilla/5.0 (Windows NT 10.0; Win64; x64) AppleWebKit/537.36 (KHTML, like Gecko) Chrome/94.0.4606.61 Safari/537.36",WebKit,Chrome,94.0.4606.61,Windows,10.0,fe3c1d035a65c549f7011c5446f73ede
18,1,null,null,psychophysics,195,481889,0.0-3.0-1.94,"""",key,null,6.063567073170661,546.5,307,"""","""","""","""","""","""","""","""","2021-10-03 17:36:47",99.240.209.93,"Mozilla/5.0 (Windows NT 10.0; Win64; x64) AppleWebKit/537.36 (KHTML, like Gecko) Chrome/94.0.4606.61 Safari/537.36",WebKit,Chrome,94.0.4606.61,Windows,10.0,fe3c1d035a65c549f7011c5446f73ede
18,1,1235.7000000001863,arrowright,psychophysics,196,483127,0.0-3.0-0.95,"""",key,arrowright,6.063640394088642,546.5,307,96,4,-1,23,35,25,35,false,"2021-10-03 17:36:47",99.240.209.93,"Mozilla/5.0 (Windows NT 10.0; Win64; x64) AppleWebKit/537.36 (KHTML, like Gecko) Chrome/94.0.4606.61 Safari/537.36",WebKit,Chrome,94.0.4606.61,Windows,10.0,fe3c1d035a65c549f7011c5446f73ede
18,1,null,null,psychophysics,197,484129,0.0-3.0-1.95,"""",key,null,6.063445121951035,546.5,307,"""","""","""","""","""","""","""","""","2021-10-03 17:36:47",99.240.209.93,"Mozilla/5.0 (Windows NT 10.0; Win64; x64) AppleWebKit/537.36 (KHTML, like Gecko) Chrome/94.0.4606.61 Safari/537.36",WebKit,Chrome,94.0.4606.61,Windows,10.0,fe3c1d035a65c549f7011c5446f73ede
18,1,916.7999999998137,arrowleft,psychophysics,198,485048,0.0-3.0-0.96,"""",key,arrowleft,6.063662251655324,546.5,307,97,4,-1,23,15,25,35,true,"2021-10-03 17:36:47",99.240.209.93,"Mozilla/5.0 (Windows NT 10.0; Win64; x64) AppleWebKit/537.36 (KHTML, like Gecko) Chrome/94.0.4606.61 Safari/537.36",WebKit,Chrome,94.0.4606.61,Windows,10.0,fe3c1d035a65c549f7011c5446f73ede
18,1,null,null,psychophysics,199,486049,0.0-3.0-1.96,"""",key,null,6.063506097561203,546.5,307,"""","""","""","""","""","""","""","""","2021-10-03 17:36:47",99.240.209.93,"Mozilla/5.0 (Windows NT 10.0; Win64; x64) AppleWebKit/537.36 (KHTML, like Gecko) Chrome/94.0.4606.61 Safari/537.36",WebKit,Chrome,94.0.4606.61,Windows,10.0,fe3c1d035a65c549f7011c5446f73ede
18,1,756,arrowright,psychophysics,200,486807,0.0-3.0-0.97,"""",key,arrowright,6.063580645160982,546.5,307,98,4,1,30,35,25,35,true,"2021-10-03 17:36:47",99.240.209.93,"Mozilla/5.0 (Windows NT 10.0; Win64; x64) AppleWebKit/537.36 (KHTML, like Gecko) Chrome/94.0.4606.61 Safari/537.36",WebKit,Chrome,94.0.4606.61,Windows,10.0,fe3c1d035a65c549f7011c5446f73ede
18,1,null,null,psychophysics,201,487809,0.0-3.0-1.97,"""",key,null,6.063335365853585,546.5,307,"""","""","""","""","""","""","""","""","2021-10-03 17:36:47",99.240.209.93,"Mozilla/5.0 (Windows NT 10.0; Win64; x64) AppleWebKit/537.36 (KHTML, like Gecko) Chrome/94.0.4606.61 Safari/537.36",WebKit,Chrome,94.0.4606.61,Windows,10.0,fe3c1d035a65c549f7011c5446f73ede
18,1,798.1999999992549,arrowleft,psychophysics,202,488609,0.0-3.0-0.98,"""",key,arrowleft,6.0635954198473705,546.5,307,99,4,-1,30,35,25,35,true,"2021-10-03 17:36:47",99.240.209.93,"Mozilla/5.0 (Windows NT 10.0; Win64; x64) AppleWebKit/537.36 (KHTML, like Gecko) Chrome/94.0.4606.61 Safari/537.36",WebKit,Chrome,94.0.4606.61,Windows,10.0,fe3c1d035a65c549f7011c5446f73ede
18,1,null,null,psychophysics,203,489610,0.0-3.0-1.98,"""",key,null,6.063585365853746,546.5,307,"""","""","""","""","""","""","""","""","2021-10-03 17:36:47",99.240.209.93,"Mozilla/5.0 (Windows NT 10.0; Win64; x64) AppleWebKit/537.36 (KHTML, like Gecko) Chrome/94.0.4606.61 Safari/537.36",WebKit,Chrome,94.0.4606.61,Windows,10.0,fe3c1d035a65c549f7011c5446f73ede
18,1,829.2999999998137,arrowright,psychophysics,204,490443,0.0-3.0-0.99,"""",key,arrowright,6.063477941176696,546.5,307,100,4,1,30,15,25,35,true,"2021-10-03 17:36:47",99.240.209.93,"Mozilla/5.0 (Windows NT 10.0; Win64; x64) AppleWebKit/537.36 (KHTML, like Gecko) Chrome/94.0.4606.61 Safari/537.36",WebKit,Chrome,94.0.4606.61,Windows,10.0,fe3c1d035a65c549f7011c5446f73ede
18,1,null,null,psychophysics,205,491444,0.0-3.0-1.99,"""",key,null,6.063567073170661,546.5,307,"""","""","""","""","""","""","""","""","2021-10-03 17:36:47",99.240.209.93,"Mozilla/5.0 (Windows NT 10.0; Win64; x64) AppleWebKit/537.36 (KHTML, like Gecko) Chrome/94.0.4606.61 Safari/537.36",WebKit,Chrome,94.0.4606.61,Windows,10.0,fe3c1d035a65c549f7011c5446f73ede
18,1,1033.5999999996275,arrowleft,psychophysics,206,492479,0.0-3.0-0.100,"""",key,arrowleft,6.063629411764936,546.5,307,101,4,1,23,35,25,35,false,"2021-10-03 17:36:47",99.240.209.93,"Mozilla/5.0 (Windows NT 10.0; Win64; x64) AppleWebKit/537.36 (KHTML, like Gecko) Chrome/94.0.4606.61 Safari/537.36",WebKit,Chrome,94.0.4606.61,Windows,10.0,fe3c1d035a65c549f7011c5446f73ede
18,1,null,null,psychophysics,207,493480,0.0-3.0-1.100,"""",key,null,6.063524390243933,546.5,307,"""","""","""","""","""","""","""","""","2021-10-03 17:36:47",99.240.209.93,"Mozilla/5.0 (Windows NT 10.0; Win64; x64) AppleWebKit/537.36 (KHTML, like Gecko) Chrome/94.0.4606.61 Safari/537.36",WebKit,Chrome,94.0.4606.61,Windows,10.0,fe3c1d035a65c549f7011c5446f73ede
18,1,1001.5999999996275,arrowleft,psychophysics,208,494484,0.0-3.0-0.101,"""",key,arrowleft,6.063624242424372,546.5,307,102,4,-1,30,35,25,35,true,"2021-10-03 17:36:47",99.240.209.93,"Mozilla/5.0 (Windows NT 10.0; Win64; x64) AppleWebKit/537.36 (KHTML, like Gecko) Chrome/94.0.4606.61 Safari/537.36",WebKit,Chrome,94.0.4606.61,Windows,10.0,fe3c1d035a65c549f7011c5446f73ede
18,1,null,null,psychophysics,209,495485,0.0-3.0-1.101,"""",key,null,6.063493902439027,546.5,307,"""","""","""","""","""","""","""","""","2021-10-03 17:36:47",99.240.209.93,"Mozilla/5.0 (Windows NT 10.0; Win64; x64) AppleWebKit/537.36 (KHTML, like Gecko) Chrome/94.0.4606.61 Safari/537.36",WebKit,Chrome,94.0.4606.61,Windows,10.0,fe3c1d035a65c549f7011c5446f73ede
18,1,703.5,arrowright,psychophysics,210,496192,0.0-3.0-0.102,"""",key,arrowright,6.063504347826212,546.5,307,103,4,1,30,15,25,35,true,"2021-10-03 17:36:47",99.240.209.93,"Mozilla/5.0 (Windows NT 10.0; Win64; x64) AppleWebKit/537.36 (KHTML, like Gecko) Chrome/94.0.4606.61 Safari/537.36",WebKit,Chrome,94.0.4606.61,Windows,10.0,fe3c1d035a65c549f7011c5446f73ede
18,1,null,null,psychophysics,211,497193,0.0-3.0-1.102,"""",key,null,6.063618181818024,546.5,307,"""","""","""","""","""","""","""","""","2021-10-03 17:36:47",99.240.209.93,"Mozilla/5.0 (Windows NT 10.0; Win64; x64) AppleWebKit/537.36 (KHTML, like Gecko) Chrome/94.0.4606.61 Safari/537.36",WebKit,Chrome,94.0.4606.61,Windows,10.0,fe3c1d035a65c549f7011c5446f73ede
18,1,829.9000000003725,arrowleft,psychophysics,212,498026,0.0-3.0-0.103,"""",key,arrowleft,6.063624999999935,546.5,307,104,4,1,20,35,25,35,false,"2021-10-03 17:36:47",99.240.209.93,"Mozilla/5.0 (Windows NT 10.0; Win64; x64) AppleWebKit/537.36 (KHTML, like Gecko) Chrome/94.0.4606.61 Safari/537.36",WebKit,Chrome,94.0.4606.61,Windows,10.0,fe3c1d035a65c549f7011c5446f73ede
18,1,null,null,psychophysics,213,499027,0.0-3.0-1.103,"""",key,null,6.063603658536477,546.5,307,"""","""","""","""","""","""","""","""","2021-10-03 17:36:47",99.240.209.93,"Mozilla/5.0 (Windows NT 10.0; Win64; x64) AppleWebKit/537.36 (KHTML, like Gecko) Chrome/94.0.4606.61 Safari/537.36",WebKit,Chrome,94.0.4606.61,Windows,10.0,fe3c1d035a65c549f7011c5446f73ede
18,1,911.2000000001863,arrowright,psychophysics,214,499941,0.0-3.0-0.104,"""",key,arrowright,6.063686666666763,546.5,307,105,4,1,30,35,25,35,true,"2021-10-03 17:36:47",99.240.209.93,"Mozilla/5.0 (Windows NT 10.0; Win64; x64) AppleWebKit/537.36 (KHTML, like Gecko) Chrome/94.0.4606.61 Safari/537.36",WebKit,Chrome,94.0.4606.61,Windows,10.0,fe3c1d035a65c549f7011c5446f73ede
18,1,null,null,psychophysics,215,500942,0.0-3.0-1.104,"""",key,null,6.063597560975567,546.5,307,"""","""","""","""","""","""","""","""","2021-10-03 17:36:47",99.240.209.93,"Mozilla/5.0 (Windows NT 10.0; Win64; x64) AppleWebKit/537.36 (KHTML, like Gecko) Chrome/94.0.4606.61 Safari/537.36",WebKit,Chrome,94.0.4606.61,Windows,10.0,fe3c1d035a65c549f7011c5446f73ede
18,1,707.5,arrowright,psychophysics,216,501651,0.0-3.0-0.105,"""",key,arrowright,6.06363793103484,546.5,307,106,4,-1,20,35,25,35,false,"2021-10-03 17:36:47",99.240.209.93,"Mozilla/5.0 (Windows NT 10.0; Win64; x64) AppleWebKit/537.36 (KHTML, like Gecko) Chrome/94.0.4606.61 Safari/537.36",WebKit,Chrome,94.0.4606.61,Windows,10.0,fe3c1d035a65c549f7011c5446f73ede
18,1,null,null,psychophysics,217,502654,0.0-3.0-1.105,"""",key,null,6.0634268292683045,546.5,307,"""","""","""","""","""","""","""","""","2021-10-03 17:36:47",99.240.209.93,"Mozilla/5.0 (Windows NT 10.0; Win64; x64) AppleWebKit/537.36 (KHTML, like Gecko) Chrome/94.0.4606.61 Safari/537.36",WebKit,Chrome,94.0.4606.61,Windows,10.0,fe3c1d035a65c549f7011c5446f73ede
18,1,830.2000000001863,arrowleft,psychophysics,218,503487,0.0-3.0-0.106,"""",key,arrowleft,6.063588235294018,546.5,307,107,4,-1,27,15,25,35,true,"2021-10-03 17:36:47",99.240.209.93,"Mozilla/5.0 (Windows NT 10.0; Win64; x64) AppleWebKit/537.36 (KHTML, like Gecko) Chrome/94.0.4606.61 Safari/537.36",WebKit,Chrome,94.0.4606.61,Windows,10.0,fe3c1d035a65c549f7011c5446f73ede
18,1,null,null,psychophysics,219,504488,0.0-3.0-1.106,"""",key,null,6.063585365853746,546.5,307,"""","""","""","""","""","""","""","""","2021-10-03 17:36:47",99.240.209.93,"Mozilla/5.0 (Windows NT 10.0; Win64; x64) AppleWebKit/537.36 (KHTML, like Gecko) Chrome/94.0.4606.61 Safari/537.36",WebKit,Chrome,94.0.4606.61,Windows,10.0,fe3c1d035a65c549f7011c5446f73ede
18,1,914.8000000007451,arrowright,psychophysics,220,505404,0.0-3.0-0.107,"""",key,arrowright,6.063642384105868,546.5,307,108,4,1,23,15,25,35,true,"2021-10-03 17:36:47",99.240.209.93,"Mozilla/5.0 (Windows NT 10.0; Win64; x64) AppleWebKit/537.36 (KHTML, like Gecko) Chrome/94.0.4606.61 Safari/537.36",WebKit,Chrome,94.0.4606.61,Windows,10.0,fe3c1d035a65c549f7011c5446f73ede
18,1,null,null,psychophysics,221,506406,0.0-3.0-1.107,"""",key,null,6.063439024390124,546.5,307,"""","""","""","""","""","""","""","""","2021-10-03 17:36:47",99.240.209.93,"Mozilla/5.0 (Windows NT 10.0; Win64; x64) AppleWebKit/537.36 (KHTML, like Gecko) Chrome/94.0.4606.61 Safari/537.36",WebKit,Chrome,94.0.4606.61,Windows,10.0,fe3c1d035a65c549f7011c5446f73ede
18,1,697.2999999998137,arrowright,psychophysics,222,507106,0.0-3.0-0.108,"""",key,arrowright,6.063508771929743,546.5,307,109,4,1,25,15,25,35,true,"2021-10-03 17:36:47",99.240.209.93,"Mozilla/5.0 (Windows NT 10.0; Win64; x64) AppleWebKit/537.36 (KHTML, like Gecko) Chrome/94.0.4606.61 Safari/537.36",WebKit,Chrome,94.0.4606.61,Windows,10.0,fe3c1d035a65c549f7011c5446f73ede
18,1,null,null,psychophysics,223,508106,0.0-3.0-1.108,"""",key,null,6.06354268292702,546.5,307,"""","""","""","""","""","""","""","""","2021-10-03 17:36:47",99.240.209.93,"Mozilla/5.0 (Windows NT 10.0; Win64; x64) AppleWebKit/537.36 (KHTML, like Gecko) Chrome/94.0.4606.61 Safari/537.36",WebKit,Chrome,94.0.4606.61,Windows,10.0,fe3c1d035a65c549f7011c5446f73ede
18,1,1567.4000000003725,arrowleft,psychophysics,224,509678,0.0-3.0-0.109,"""",key,arrowleft,6.063631782945572,546.5,307,110,4,1,24,35,25,35,false,"2021-10-03 17:36:47",99.240.209.93,"Mozilla/5.0 (Windows NT 10.0; Win64; x64) AppleWebKit/537.36 (KHTML, like Gecko) Chrome/94.0.4606.61 Safari/537.36",WebKit,Chrome,94.0.4606.61,Windows,10.0,fe3c1d035a65c549f7011c5446f73ede
18,1,null,null,psychophysics,225,510679,0.0-3.0-1.109,"""",key,null,6.100640243902467,546.5,307,"""","""","""","""","""","""","""","""","2021-10-03 17:36:47",99.240.209.93,"Mozilla/5.0 (Windows NT 10.0; Win64; x64) AppleWebKit/537.36 (KHTML, like Gecko) Chrome/94.0.4606.61 Safari/537.36",WebKit,Chrome,94.0.4606.61,Windows,10.0,fe3c1d035a65c549f7011c5446f73ede
18,1,2470.2000000001863,arrowleft,psychophysics,226,513151,0.0-3.0-0.110,"""",key,arrowleft,6.063677339901485,546.5,307,111,4,-1,23,15,25,35,true,"2021-10-03 17:36:47",99.240.209.93,"Mozilla/5.0 (Windows NT 10.0; Win64; x64) AppleWebKit/537.36 (KHTML, like Gecko) Chrome/94.0.4606.61 Safari/537.36",WebKit,Chrome,94.0.4606.61,Windows,10.0,fe3c1d035a65c549f7011c5446f73ede
18,1,null,null,psychophysics,227,514152,0.0-3.0-1.110,"""",key,null,6.06355487804884,546.5,307,"""","""","""","""","""","""","""","""","2021-10-03 17:36:47",99.240.209.93,"Mozilla/5.0 (Windows NT 10.0; Win64; x64) AppleWebKit/537.36 (KHTML, like Gecko) Chrome/94.0.4606.61 Safari/537.36",WebKit,Chrome,94.0.4606.61,Windows,10.0,fe3c1d035a65c549f7011c5446f73ede
18,1,760.7999999998137,arrowright,psychophysics,228,514919,0.0-3.0-0.111,"""",key,arrowright,6.063690476190661,546.5,307,112,5,-1,24,35,25,35,false,"2021-10-03 17:36:47",99.240.209.93,"Mozilla/5.0 (Windows NT 10.0; Win64; x64) AppleWebKit/537.36 (KHTML, like Gecko) Chrome/94.0.4606.61 Safari/537.36",WebKit,Chrome,94.0.4606.61,Windows,10.0,fe3c1d035a65c549f7011c5446f73ede
18,1,null,null,psychophysics,229,515920,0.0-3.0-1.111,"""",key,null,6.06356097560975,546.5,307,"""","""","""","""","""","""","""","""","2021-10-03 17:36:47",99.240.209.93,"Mozilla/5.0 (Windows NT 10.0; Win64; x64) AppleWebKit/537.36 (KHTML, like Gecko) Chrome/94.0.4606.61 Safari/537.36",WebKit,Chrome,94.0.4606.61,Windows,10.0,fe3c1d035a65c549f7011c5446f73ede
18,1,49793,arrowright,html-keyboard-response,230,565713,0.0-3.0-2.111-0.111,"<div style=""color: white; text-align: center; vertical-align: top; display: inline-block; width: 800px; margin: auto""><p>You have completed 40% of the trials. You are on block 5 of 10. <br>Good job! Take a break if you need to.</p><p>Press any key to continue the experiment.</p></div>","""","""","""","""","""","""","""","""","""","""","""","""","""","2021-10-03 17:36:47",99.240.209.93,"Mozilla/5.0 (Windows NT 10.0; Win64; x64) AppleWebKit/537.36 (KHTML, like Gecko) Chrome/94.0.4606.61 Safari/537.36",WebKit,Chrome,94.0.4606.61,Windows,10.0,fe3c1d035a65c549f7011c5446f73ede
18,1,1653.0999999996275,arrowleft,psychophysics,231,568371,0.0-3.0-0.112,"""",key,arrowleft,6.063945054944823,546.5,307,113,5,-1,24,15,25,35,true,"2021-10-03 17:36:47",99.240.209.93,"Mozilla/5.0 (Windows NT 10.0; Win64; x64) AppleWebKit/537.36 (KHTML, like Gecko) Chrome/94.0.4606.61 Safari/537.36",WebKit,Chrome,94.0.4606.61,Windows,10.0,fe3c1d035a65c549f7011c5446f73ede
18,1,null,null,psychophysics,232,569372,0.0-3.0-1.112,"""",key,null,6.06354878048793,546.5,307,"""","""","""","""","""","""","""","""","2021-10-03 17:36:47",99.240.209.93,"Mozilla/5.0 (Windows NT 10.0; Win64; x64) AppleWebKit/537.36 (KHTML, like Gecko) Chrome/94.0.4606.61 Safari/537.36",WebKit,Chrome,94.0.4606.61,Windows,10.0,fe3c1d035a65c549f7011c5446f73ede
18,1,1264.0999999996275,arrowleft,psychophysics,233,570639,0.0-3.0-0.113,"""",key,arrowleft,6.063620192307728,546.5,307,114,5,-1,26,35,25,35,true,"2021-10-03 17:36:47",99.240.209.93,"Mozilla/5.0 (Windows NT 10.0; Win64; x64) AppleWebKit/537.36 (KHTML, like Gecko) Chrome/94.0.4606.61 Safari/537.36",WebKit,Chrome,94.0.4606.61,Windows,10.0,fe3c1d035a65c549f7011c5446f73ede
18,1,null,null,psychophysics,234,571640,0.0-3.0-1.113,"""",key,null,6.063585365853392,546.5,307,"""","""","""","""","""","""","""","""","2021-10-03 17:36:47",99.240.209.93,"Mozilla/5.0 (Windows NT 10.0; Win64; x64) AppleWebKit/537.36 (KHTML, like Gecko) Chrome/94.0.4606.61 Safari/537.36",WebKit,Chrome,94.0.4606.61,Windows,10.0,fe3c1d035a65c549f7011c5446f73ede
18,1,607.2000000001863,arrowright,psychophysics,235,572252,0.0-3.0-0.114,"""",key,arrowright,6.063499999999767,546.5,307,115,5,-1,20,15,25,35,false,"2021-10-03 17:36:47",99.240.209.93,"Mozilla/5.0 (Windows NT 10.0; Win64; x64) AppleWebKit/537.36 (KHTML, like Gecko) Chrome/94.0.4606.61 Safari/537.36",WebKit,Chrome,94.0.4606.61,Windows,10.0,fe3c1d035a65c549f7011c5446f73ede
18,1,null,null,psychophysics,236,573253,0.0-3.0-1.114,"""",key,null,6.063524390243579,546.5,307,"""","""","""","""","""","""","""","""","2021-10-03 17:36:47",99.240.209.93,"Mozilla/5.0 (Windows NT 10.0; Win64; x64) AppleWebKit/537.36 (KHTML, like Gecko) Chrome/94.0.4606.61 Safari/537.36",WebKit,Chrome,94.0.4606.61,Windows,10.0,fe3c1d035a65c549f7011c5446f73ede
18,1,593.8000000007451,arrowleft,psychophysics,237,573849,0.0-3.0-0.115,"""",key,arrowleft,6.0638144329903145,546.5,307,116,5,-1,30,15,25,35,true,"2021-10-03 17:36:47",99.240.209.93,"Mozilla/5.0 (Windows NT 10.0; Win64; x64) AppleWebKit/537.36 (KHTML, like Gecko) Chrome/94.0.4606.61 Safari/537.36",WebKit,Chrome,94.0.4606.61,Windows,10.0,fe3c1d035a65c549f7011c5446f73ede
18,1,null,null,psychophysics,238,574850,0.0-3.0-1.115,"""",key,null,6.063518292683024,546.5,307,"""","""","""","""","""","""","""","""","2021-10-03 17:36:47",99.240.209.93,"Mozilla/5.0 (Windows NT 10.0; Win64; x64) AppleWebKit/537.36 (KHTML, like Gecko) Chrome/94.0.4606.61 Safari/537.36",WebKit,Chrome,94.0.4606.61,Windows,10.0,fe3c1d035a65c549f7011c5446f73ede
18,1,1116.6000000005588,arrowright,psychophysics,239,575968,0.0-3.0-0.116,"""",key,arrowright,6.063510869565147,546.5,307,117,5,1,24,15,25,35,true,"2021-10-03 17:36:47",99.240.209.93,"Mozilla/5.0 (Windows NT 10.0; Win64; x64) AppleWebKit/537.36 (KHTML, like Gecko) Chrome/94.0.4606.61 Safari/537.36",WebKit,Chrome,94.0.4606.61,Windows,10.0,fe3c1d035a65c549f7011c5446f73ede
18,1,null,null,psychophysics,240,576969,0.0-3.0-1.116,"""",key,null,6.06356097560975,546.5,307,"""","""","""","""","""","""","""","""","2021-10-03 17:36:47",99.240.209.93,"Mozilla/5.0 (Windows NT 10.0; Win64; x64) AppleWebKit/537.36 (KHTML, like Gecko) Chrome/94.0.4606.61 Safari/537.36",WebKit,Chrome,94.0.4606.61,Windows,10.0,fe3c1d035a65c549f7011c5446f73ede
18,1,1304.7999999998137,arrowright,psychophysics,241,578277,0.0-3.0-0.117,"""",key,arrowright,6.063646511627946,546.5,307,118,5,1,25,35,25,35,true,"2021-10-03 17:36:47",99.240.209.93,"Mozilla/5.0 (Windows NT 10.0; Win64; x64) AppleWebKit/537.36 (KHTML, like Gecko) Chrome/94.0.4606.61 Safari/537.36",WebKit,Chrome,94.0.4606.61,Windows,10.0,fe3c1d035a65c549f7011c5446f73ede
18,1,null,null,psychophysics,242,579279,0.0-3.0-1.117,"""",key,null,6.063573170731571,546.5,307,"""","""","""","""","""","""","""","""","2021-10-03 17:36:47",99.240.209.93,"Mozilla/5.0 (Windows NT 10.0; Win64; x64) AppleWebKit/537.36 (KHTML, like Gecko) Chrome/94.0.4606.61 Safari/537.36",WebKit,Chrome,94.0.4606.61,Windows,10.0,fe3c1d035a65c549f7011c5446f73ede
18,1,874.7999999998137,arrowleft,psychophysics,243,580156,0.0-3.0-0.118,"""",key,arrowleft,6.063611111111338,546.5,307,119,5,-1,26,15,25,35,true,"2021-10-03 17:36:47",99.240.209.93,"Mozilla/5.0 (Windows NT 10.0; Win64; x64) AppleWebKit/537.36 (KHTML, like Gecko) Chrome/94.0.4606.61 Safari/537.36",WebKit,Chrome,94.0.4606.61,Windows,10.0,fe3c1d035a65c549f7011c5446f73ede
18,1,null,null,psychophysics,244,581158,0.0-3.0-1.118,"""",key,null,6.063585365853392,546.5,307,"""","""","""","""","""","""","""","""","2021-10-03 17:36:47",99.240.209.93,"Mozilla/5.0 (Windows NT 10.0; Win64; x64) AppleWebKit/537.36 (KHTML, like Gecko) Chrome/94.0.4606.61 Safari/537.36",WebKit,Chrome,94.0.4606.61,Windows,10.0,fe3c1d035a65c549f7011c5446f73ede
18,1,495.29999999981374,arrowright,psychophysics,245,581656,0.0-3.0-0.119,"""",key,arrowright,6.063493827160988,546.5,307,120,5,1,23,15,25,35,true,"2021-10-03 17:36:47",99.240.209.93,"Mozilla/5.0 (Windows NT 10.0; Win64; x64) AppleWebKit/537.36 (KHTML, like Gecko) Chrome/94.0.4606.61 Safari/537.36",WebKit,Chrome,94.0.4606.61,Windows,10.0,fe3c1d035a65c549f7011c5446f73ede
18,1,null,null,psychophysics,246,582657,0.0-3.0-1.119,"""",key,null,6.063481707316852,546.5,307,"""","""","""","""","""","""","""","""","2021-10-03 17:36:47",99.240.209.93,"Mozilla/5.0 (Windows NT 10.0; Win64; x64) AppleWebKit/537.36 (KHTML, like Gecko) Chrome/94.0.4606.61 Safari/537.36",WebKit,Chrome,94.0.4606.61,Windows,10.0,fe3c1d035a65c549f7011c5446f73ede
18,1,680.7000000001863,arrowright,psychophysics,247,583340,0.0-3.0-0.120,"""",key,arrowright,6.063499999999684,546.5,307,121,5,1,25,15,25,35,true,"2021-10-03 17:36:47",99.240.209.93,"Mozilla/5.0 (Windows NT 10.0; Win64; x64) AppleWebKit/537.36 (KHTML, like Gecko) Chrome/94.0.4606.61 Safari/537.36",WebKit,Chrome,94.0.4606.61,Windows,10.0,fe3c1d035a65c549f7011c5446f73ede
18,1,null,null,psychophysics,248,584340,0.0-3.0-1.120,"""",key,null,6.06354878048793,546.5,307,"""","""","""","""","""","""","""","""","2021-10-03 17:36:47",99.240.209.93,"Mozilla/5.0 (Windows NT 10.0; Win64; x64) AppleWebKit/537.36 (KHTML, like Gecko) Chrome/94.0.4606.61 Safari/537.36",WebKit,Chrome,94.0.4606.61,Windows,10.0,fe3c1d035a65c549f7011c5446f73ede
18,1,689.4000000003725,arrowright,psychophysics,249,585034,0.0-3.0-0.121,"""",key,arrowright,6.063469026548854,546.5,307,122,5,1,30,15,25,35,true,"2021-10-03 17:36:47",99.240.209.93,"Mozilla/5.0 (Windows NT 10.0; Win64; x64) AppleWebKit/537.36 (KHTML, like Gecko) Chrome/94.0.4606.61 Safari/537.36",WebKit,Chrome,94.0.4606.61,Windows,10.0,fe3c1d035a65c549f7011c5446f73ede
18,1,null,null,psychophysics,250,586035,0.0-3.0-1.121,"""",key,null,6.0636402439026496,546.5,307,"""","""","""","""","""","""","""","""","2021-10-03 17:36:47",99.240.209.93,"Mozilla/5.0 (Windows NT 10.0; Win64; x64) AppleWebKit/537.36 (KHTML, like Gecko) Chrome/94.0.4606.61 Safari/537.36",WebKit,Chrome,94.0.4606.61,Windows,10.0,fe3c1d035a65c549f7011c5446f73ede
18,1,1021.1000000005588,arrowright,psychophysics,251,587060,0.0-3.0-0.122,"""",key,arrowright,6.0635833333335105,546.5,307,123,5,1,26,15,25,35,true,"2021-10-03 17:36:47",99.240.209.93,"Mozilla/5.0 (Windows NT 10.0; Win64; x64) AppleWebKit/537.36 (KHTML, like Gecko) Chrome/94.0.4606.61 Safari/537.36",WebKit,Chrome,94.0.4606.61,Windows,10.0,fe3c1d035a65c549f7011c5446f73ede
18,1,null,null,psychophysics,252,588061,0.0-3.0-1.122,"""",key,null,6.063530487805554,546.5,307,"""","""","""","""","""","""","""","""","2021-10-03 17:36:47",99.240.209.93,"Mozilla/5.0 (Windows NT 10.0; Win64; x64) AppleWebKit/537.36 (KHTML, like Gecko) Chrome/94.0.4606.61 Safari/537.36",WebKit,Chrome,94.0.4606.61,Windows,10.0,fe3c1d035a65c549f7011c5446f73ede
18,1,727.2000000001863,arrowright,psychophysics,253,588790,0.0-3.0-0.123,"""",key,arrowright,6.063583333333372,546.5,307,124,5,1,30,35,25,35,true,"2021-10-03 17:36:47",99.240.209.93,"Mozilla/5.0 (Windows NT 10.0; Win64; x64) AppleWebKit/537.36 (KHTML, like Gecko) Chrome/94.0.4606.61 Safari/537.36",WebKit,Chrome,94.0.4606.61,Windows,10.0,fe3c1d035a65c549f7011c5446f73ede
18,1,null,null,psychophysics,254,589791,0.0-3.0-1.123,"""",key,null,6.063597560975922,546.5,307,"""","""","""","""","""","""","""","""","2021-10-03 17:36:47",99.240.209.93,"Mozilla/5.0 (Windows NT 10.0; Win64; x64) AppleWebKit/537.36 (KHTML, like Gecko) Chrome/94.0.4606.61 Safari/537.36",WebKit,Chrome,94.0.4606.61,Windows,10.0,fe3c1d035a65c549f7011c5446f73ede
18,1,1283.8999999994412,arrowleft,psychophysics,255,591077,0.0-3.0-0.124,"""",key,arrowleft,6.092552380952319,546.5,307,125,5,-1,23,35,25,35,true,"2021-10-03 17:36:47",99.240.209.93,"Mozilla/5.0 (Windows NT 10.0; Win64; x64) AppleWebKit/537.36 (KHTML, like Gecko) Chrome/94.0.4606.61 Safari/537.36",WebKit,Chrome,94.0.4606.61,Windows,10.0,fe3c1d035a65c549f7011c5446f73ede
18,1,null,null,psychophysics,256,592080,0.0-3.0-1.124,"""",key,null,6.063530487804844,546.5,307,"""","""","""","""","""","""","""","""","2021-10-03 17:36:47",99.240.209.93,"Mozilla/5.0 (Windows NT 10.0; Win64; x64) AppleWebKit/537.36 (KHTML, like Gecko) Chrome/94.0.4606.61 Safari/537.36",WebKit,Chrome,94.0.4606.61,Windows,10.0,fe3c1d035a65c549f7011c5446f73ede
18,1,930.2999999998137,arrowright,psychophysics,257,593013,0.0-3.0-0.125,"""",key,arrowright,6.0635816993464235,546.5,307,126,5,1,24,15,25,35,true,"2021-10-03 17:36:47",99.240.209.93,"Mozilla/5.0 (Windows NT 10.0; Win64; x64) AppleWebKit/537.36 (KHTML, like Gecko) Chrome/94.0.4606.61 Safari/537.36",WebKit,Chrome,94.0.4606.61,Windows,10.0,fe3c1d035a65c549f7011c5446f73ede
18,1,null,null,psychophysics,258,594014,0.0-3.0-1.125,"""",key,null,6.063573170732281,546.5,307,"""","""","""","""","""","""","""","""","2021-10-03 17:36:47",99.240.209.93,"Mozilla/5.0 (Windows NT 10.0; Win64; x64) AppleWebKit/537.36 (KHTML, like Gecko) Chrome/94.0.4606.61 Safari/537.36",WebKit,Chrome,94.0.4606.61,Windows,10.0,fe3c1d035a65c549f7011c5446f73ede
18,1,1027.1000000005588,arrowright,psychophysics,259,595043,0.0-3.0-0.126,"""",key,arrowright,6.063763313609886,546.5,307,127,5,-1,23,35,25,35,false,"2021-10-03 17:36:47",99.240.209.93,"Mozilla/5.0 (Windows NT 10.0; Win64; x64) AppleWebKit/537.36 (KHTML, like Gecko) Chrome/94.0.4606.61 Safari/537.36",WebKit,Chrome,94.0.4606.61,Windows,10.0,fe3c1d035a65c549f7011c5446f73ede
18,1,null,null,psychophysics,260,596044,0.0-3.0-1.126,"""",key,null,6.100699386503004,546.5,307,"""","""","""","""","""","""","""","""","2021-10-03 17:36:47",99.240.209.93,"Mozilla/5.0 (Windows NT 10.0; Win64; x64) AppleWebKit/537.36 (KHTML, like Gecko) Chrome/94.0.4606.61 Safari/537.36",WebKit,Chrome,94.0.4606.61,Windows,10.0,fe3c1d035a65c549f7011c5446f73ede
18,1,951.7999999998137,arrowleft,psychophysics,261,596998,0.0-3.0-0.127,"""",key,arrowleft,6.063750000000418,546.5,307,128,5,-1,30,15,25,35,true,"2021-10-03 17:36:47",99.240.209.93,"Mozilla/5.0 (Windows NT 10.0; Win64; x64) AppleWebKit/537.36 (KHTML, like Gecko) Chrome/94.0.4606.61 Safari/537.36",WebKit,Chrome,94.0.4606.61,Windows,10.0,fe3c1d035a65c549f7011c5446f73ede
18,1,null,null,psychophysics,262,598002,0.0-3.0-1.127,"""",key,null,6.063515151515745,546.5,307,"""","""","""","""","""","""","""","""","2021-10-03 17:36:47",99.240.209.93,"Mozilla/5.0 (Windows NT 10.0; Win64; x64) AppleWebKit/537.36 (KHTML, like Gecko) Chrome/94.0.4606.61 Safari/537.36",WebKit,Chrome,94.0.4606.61,Windows,10.0,fe3c1d035a65c549f7011c5446f73ede
18,1,1204.2999999998137,arrowright,psychophysics,263,599208,0.0-3.0-0.128,"""",key,arrowright,6.063717171717364,546.5,307,129,5,1,26,35,25,35,true,"2021-10-03 17:36:47",99.240.209.93,"Mozilla/5.0 (Windows NT 10.0; Win64; x64) AppleWebKit/537.36 (KHTML, like Gecko) Chrome/94.0.4606.61 Safari/537.36",WebKit,Chrome,94.0.4606.61,Windows,10.0,fe3c1d035a65c549f7011c5446f73ede
18,1,null,null,psychophysics,264,600210,0.0-3.0-1.128,"""",key,null,6.063579268292837,546.5,307,"""","""","""","""","""","""","""","""","2021-10-03 17:36:47",99.240.209.93,"Mozilla/5.0 (Windows NT 10.0; Win64; x64) AppleWebKit/537.36 (KHTML, like Gecko) Chrome/94.0.4606.61 Safari/537.36",WebKit,Chrome,94.0.4606.61,Windows,10.0,fe3c1d035a65c549f7011c5446f73ede
18,1,896.9000000003725,arrowleft,psychophysics,265,601109,0.0-3.0-0.129,"""",key,arrowleft,6.063659863944837,546.5,307,130,5,-1,27,15,25,35,true,"2021-10-03 17:36:47",99.240.209.93,"Mozilla/5.0 (Windows NT 10.0; Win64; x64) AppleWebKit/537.36 (KHTML, like Gecko) Chrome/94.0.4606.61 Safari/537.36",WebKit,Chrome,94.0.4606.61,Windows,10.0,fe3c1d035a65c549f7011c5446f73ede
18,1,null,null,psychophysics,266,602110,0.0-3.0-1.129,"""",key,null,6.06354878048722,546.5,307,"""","""","""","""","""","""","""","""","2021-10-03 17:36:47",99.240.209.93,"Mozilla/5.0 (Windows NT 10.0; Win64; x64) AppleWebKit/537.36 (KHTML, like Gecko) Chrome/94.0.4606.61 Safari/537.36",WebKit,Chrome,94.0.4606.61,Windows,10.0,fe3c1d035a65c549f7011c5446f73ede
18,1,1126.1000000005588,arrowleft,psychophysics,267,603238,0.0-3.0-0.130,"""",key,arrowleft,6.0635945945946705,546.5,307,131,5,-1,30,15,25,35,true,"2021-10-03 17:36:47",99.240.209.93,"Mozilla/5.0 (Windows NT 10.0; Win64; x64) AppleWebKit/537.36 (KHTML, like Gecko) Chrome/94.0.4606.61 Safari/537.36",WebKit,Chrome,94.0.4606.61,Windows,10.0,fe3c1d035a65c549f7011c5446f73ede
18,1,null,null,psychophysics,268,604241,0.0-3.0-1.130,"""",key,null,6.1003475609759334,546.5,307,"""","""","""","""","""","""","""","""","2021-10-03 17:36:47",99.240.209.93,"Mozilla/5.0 (Windows NT 10.0; Win64; x64) AppleWebKit/537.36 (KHTML, like Gecko) Chrome/94.0.4606.61 Safari/537.36",WebKit,Chrome,94.0.4606.61,Windows,10.0,fe3c1d035a65c549f7011c5446f73ede
