run_id,condition,rt,response,trial_type,trial_index,time_elapsed,internal_node_id,stimulus,response_type,key_press,avg_frame_time,center_x,center_y,trial,block,test_pos,test_inner_radius,test_outer_radius,ref_inner_radius,ref_outer_radius,test_bigger,recorded_at,ip,user_agent,device,browser,browser_version,platform,platform_version,source_code_version
31,1,41288.5,"{""p_id"":""4388"",""age"":""21"",""handedness"":""right"",""sex"":""female"",""other_sex"":""}",survey-html-form,0,41295,0.0-0.0,"""","""","""","""","""","""","""","""","""","""","""","""","""","""","2021-10-05 05:05:35",142.114.88.160,"Mozilla/5.0 (Windows NT 10.0; Win64; x64) AppleWebKit/537.36 (KHTML, like Gecko) Chrome/93.0.4577.63 Safari/537.36",WebKit,Chrome,93.0.4577.63,Windows,10.0,fe3c1d035a65c549f7011c5446f73ede
31,1,9130.699999809265," ",html-keyboard-response,1,50438,0.0-1.0,"<p style=""color: white"">Welcome to the Size Judgment Experiment. <br>There will be 10 blocks in this experiment. <br>There will be 28 trials in each block. <br>You will be given a chance to take a break between blocks. <br>Press any key to start the experiment.</p>","""","""","""","""","""","""","""","""","""","""","""","""","""","2021-10-05 05:05:35",142.114.88.160,"Mozilla/5.0 (Windows NT 10.0; Win64; x64) AppleWebKit/537.36 (KHTML, like Gecko) Chrome/93.0.4577.63 Safari/537.36",WebKit,Chrome,93.0.4577.63,Windows,10.0,fe3c1d035a65c549f7011c5446f73ede
31,1,19465.300000190735,arrowleft,psychophysics,2,69970,0.0-2.0,"""",key,arrowleft,16.733961439588686,640,304.5,"""","""","""","""","""","""","""","""","2021-10-05 05:05:35",142.114.88.160,"Mozilla/5.0 (Windows NT 10.0; Win64; x64) AppleWebKit/537.36 (KHTML, like Gecko) Chrome/93.0.4577.63 Safari/537.36",WebKit,Chrome,93.0.4577.63,Windows,10.0,fe3c1d035a65c549f7011c5446f73ede
31,1,23181.900000572205,arrowright,psychophysics,3,93179,0.0-3.0-0.0,"""",key,arrowright,16.66278591954023,640,304.5,1,1,-1,27,35,25,35,false,"2021-10-05 05:05:35",142.114.88.160,"Mozilla/5.0 (Windows NT 10.0; Win64; x64) AppleWebKit/537.36 (KHTML, like Gecko) Chrome/93.0.4577.63 Safari/537.36",WebKit,Chrome,93.0.4577.63,Windows,10.0,fe3c1d035a65c549f7011c5446f73ede
31,1,null,null,psychophysics,4,94190,0.0-3.0-1.0,"""",key,null,16.662271186440563,640,304.5,"""","""","""","""","""","""","""","""","2021-10-05 05:05:35",142.114.88.160,"Mozilla/5.0 (Windows NT 10.0; Win64; x64) AppleWebKit/537.36 (KHTML, like Gecko) Chrome/93.0.4577.63 Safari/537.36",WebKit,Chrome,93.0.4577.63,Windows,10.0,fe3c1d035a65c549f7011c5446f73ede
31,1,3744,arrowright,psychophysics,5,97948,0.0-3.0-0.1,"""",key,arrowright,16.662439999999997,640,304.5,2,1,1,27,15,25,35,true,"2021-10-05 05:05:35",142.114.88.160,"Mozilla/5.0 (Windows NT 10.0; Win64; x64) AppleWebKit/537.36 (KHTML, like Gecko) Chrome/93.0.4577.63 Safari/537.36",WebKit,Chrome,93.0.4577.63,Windows,10.0,fe3c1d035a65c549f7011c5446f73ede
31,1,null,null,psychophysics,6,98955,0.0-3.0-1.1,"""",key,null,16.666322033898215,640,304.5,"""","""","""","""","""","""","""","""","2021-10-05 05:05:35",142.114.88.160,"Mozilla/5.0 (Windows NT 10.0; Win64; x64) AppleWebKit/537.36 (KHTML, like Gecko) Chrome/93.0.4577.63 Safari/537.36",WebKit,Chrome,93.0.4577.63,Windows,10.0,fe3c1d035a65c549f7011c5446f73ede
31,1,2545.5,arrowleft,psychophysics,7,101517,0.0-3.0-0.2,"""",key,arrowleft,16.661797385620947,640,304.5,3,1,1,20,15,25,35,false,"2021-10-05 05:05:35",142.114.88.160,"Mozilla/5.0 (Windows NT 10.0; Win64; x64) AppleWebKit/537.36 (KHTML, like Gecko) Chrome/93.0.4577.63 Safari/537.36",WebKit,Chrome,93.0.4577.63,Windows,10.0,fe3c1d035a65c549f7011c5446f73ede
31,1,null,null,psychophysics,8,102532,0.0-3.0-1.2,"""",key,null,16.667566666666485,640,304.5,"""","""","""","""","""","""","""","""","2021-10-05 05:05:35",142.114.88.160,"Mozilla/5.0 (Windows NT 10.0; Win64; x64) AppleWebKit/537.36 (KHTML, like Gecko) Chrome/93.0.4577.63 Safari/537.36",WebKit,Chrome,93.0.4577.63,Windows,10.0,fe3c1d035a65c549f7011c5446f73ede
31,1,14310.800000190735,arrowleft,psychophysics,9,116854,0.0-3.0-0.3,"""",key,arrowleft,16.66261816065192,640,304.5,4,1,-1,23,15,25,35,true,"2021-10-05 05:05:35",142.114.88.160,"Mozilla/5.0 (Windows NT 10.0; Win64; x64) AppleWebKit/537.36 (KHTML, like Gecko) Chrome/93.0.4577.63 Safari/537.36",WebKit,Chrome,93.0.4577.63,Windows,10.0,fe3c1d035a65c549f7011c5446f73ede
31,1,null,null,psychophysics,10,117867,0.0-3.0-1.3,"""",key,null,16.665999999999904,640,304.5,"""","""","""","""","""","""","""","""","2021-10-05 05:05:35",142.114.88.160,"Mozilla/5.0 (Windows NT 10.0; Win64; x64) AppleWebKit/537.36 (KHTML, like Gecko) Chrome/93.0.4577.63 Safari/537.36",WebKit,Chrome,93.0.4577.63,Windows,10.0,fe3c1d035a65c549f7011c5446f73ede
31,1,1218.2999992370605,arrowright,psychophysics,11,119098,0.0-3.0-0.4,"""",key,arrowright,16.659452054794514,640,304.5,5,1,1,26,35,25,35,true,"2021-10-05 05:05:35",142.114.88.160,"Mozilla/5.0 (Windows NT 10.0; Win64; x64) AppleWebKit/537.36 (KHTML, like Gecko) Chrome/93.0.4577.63 Safari/537.36",WebKit,Chrome,93.0.4577.63,Windows,10.0,fe3c1d035a65c549f7011c5446f73ede
31,1,null,null,psychophysics,12,120101,0.0-3.0-1.4,"""",key,null,16.66151666666677,640,304.5,"""","""","""","""","""","""","""","""","2021-10-05 05:05:35",142.114.88.160,"Mozilla/5.0 (Windows NT 10.0; Win64; x64) AppleWebKit/537.36 (KHTML, like Gecko) Chrome/93.0.4577.63 Safari/537.36",WebKit,Chrome,93.0.4577.63,Windows,10.0,fe3c1d035a65c549f7011c5446f73ede
31,1,883,arrowleft,psychophysics,13,120993,0.0-3.0-0.5,"""",key,arrowleft,16.659846153845976,640,304.5,6,1,-1,24,15,25,35,true,"2021-10-05 05:05:35",142.114.88.160,"Mozilla/5.0 (Windows NT 10.0; Win64; x64) AppleWebKit/537.36 (KHTML, like Gecko) Chrome/93.0.4577.63 Safari/537.36",WebKit,Chrome,93.0.4577.63,Windows,10.0,fe3c1d035a65c549f7011c5446f73ede
31,1,null,null,psychophysics,14,121999,0.0-3.0-1.5,"""",key,null,16.66469491525406,640,304.5,"""","""","""","""","""","""","""","""","2021-10-05 05:05:35",142.114.88.160,"Mozilla/5.0 (Windows NT 10.0; Win64; x64) AppleWebKit/537.36 (KHTML, like Gecko) Chrome/93.0.4577.63 Safari/537.36",WebKit,Chrome,93.0.4577.63,Windows,10.0,fe3c1d035a65c549f7011c5446f73ede
31,1,2969.4000005722046,arrowleft,psychophysics,15,124980,0.0-3.0-0.6,"""",key,arrowleft,16.661235955056164,640,304.5,7,1,1,24,35,25,35,false,"2021-10-05 05:05:35",142.114.88.160,"Mozilla/5.0 (Windows NT 10.0; Win64; x64) AppleWebKit/537.36 (KHTML, like Gecko) Chrome/93.0.4577.63 Safari/537.36",WebKit,Chrome,93.0.4577.63,Windows,10.0,fe3c1d035a65c549f7011c5446f73ede
31,1,null,null,psychophysics,16,125992,0.0-3.0-1.6,"""",key,null,16.66158333333321,640,304.5,"""","""","""","""","""","""","""","""","2021-10-05 05:05:35",142.114.88.160,"Mozilla/5.0 (Windows NT 10.0; Win64; x64) AppleWebKit/537.36 (KHTML, like Gecko) Chrome/93.0.4577.63 Safari/537.36",WebKit,Chrome,93.0.4577.63,Windows,10.0,fe3c1d035a65c549f7011c5446f73ede
31,1,3863.699999809265,arrowright,psychophysics,17,129871,0.0-3.0-0.7,"""",key,arrowright,16.66294396551724,640,304.5,8,1,-1,26,35,25,35,false,"2021-10-05 05:05:35",142.114.88.160,"Mozilla/5.0 (Windows NT 10.0; Win64; x64) AppleWebKit/537.36 (KHTML, like Gecko) Chrome/93.0.4577.63 Safari/537.36",WebKit,Chrome,93.0.4577.63,Windows,10.0,fe3c1d035a65c549f7011c5446f73ede
31,1,null,null,psychophysics,18,130880,0.0-3.0-1.7,"""",key,null,16.66232203389814,640,304.5,"""","""","""","""","""","""","""","""","2021-10-05 05:05:35",142.114.88.160,"Mozilla/5.0 (Windows NT 10.0; Win64; x64) AppleWebKit/537.36 (KHTML, like Gecko) Chrome/93.0.4577.63 Safari/537.36",WebKit,Chrome,93.0.4577.63,Windows,10.0,fe3c1d035a65c549f7011c5446f73ede
31,1,1142.8999996185303,arrowright,psychophysics,19,132068,0.0-3.0-0.8,"""",key,arrowright,16.902371428571392,640,304.5,9,1,1,25,35,25,35,true,"2021-10-05 05:05:35",142.114.88.160,"Mozilla/5.0 (Windows NT 10.0; Win64; x64) AppleWebKit/537.36 (KHTML, like Gecko) Chrome/93.0.4577.63 Safari/537.36",WebKit,Chrome,93.0.4577.63,Windows,10.0,fe3c1d035a65c549f7011c5446f73ede
31,1,null,null,psychophysics,20,133073,0.0-3.0-1.8,"""",key,null,16.660796610169385,640,304.5,"""","""","""","""","""","""","""","""","2021-10-05 05:05:35",142.114.88.160,"Mozilla/5.0 (Windows NT 10.0; Win64; x64) AppleWebKit/537.36 (KHTML, like Gecko) Chrome/93.0.4577.63 Safari/537.36",WebKit,Chrome,93.0.4577.63,Windows,10.0,fe3c1d035a65c549f7011c5446f73ede
31,1,1021.4000005722046,arrowright,psychophysics,21,134100,0.0-3.0-0.9,"""",key,arrowright,16.665639344262164,640,304.5,10,1,1,26,15,25,35,true,"2021-10-05 05:05:35",142.114.88.160,"Mozilla/5.0 (Windows NT 10.0; Win64; x64) AppleWebKit/537.36 (KHTML, like Gecko) Chrome/93.0.4577.63 Safari/537.36",WebKit,Chrome,93.0.4577.63,Windows,10.0,fe3c1d035a65c549f7011c5446f73ede
31,1,null,null,psychophysics,22,135107,0.0-3.0-1.9,"""",key,null,16.661966101694617,640,304.5,"""","""","""","""","""","""","""","""","2021-10-05 05:05:35",142.114.88.160,"Mozilla/5.0 (Windows NT 10.0; Win64; x64) AppleWebKit/537.36 (KHTML, like Gecko) Chrome/93.0.4577.63 Safari/537.36",WebKit,Chrome,93.0.4577.63,Windows,10.0,fe3c1d035a65c549f7011c5446f73ede
31,1,1635.4000005722046,arrowright,psychophysics,23,136749,0.0-3.0-0.10,"""",key,arrowright,16.662163265306045,640,304.5,11,1,-1,26,35,25,35,false,"2021-10-05 05:05:35",142.114.88.160,"Mozilla/5.0 (Windows NT 10.0; Win64; x64) AppleWebKit/537.36 (KHTML, like Gecko) Chrome/93.0.4577.63 Safari/537.36",WebKit,Chrome,93.0.4577.63,Windows,10.0,fe3c1d035a65c549f7011c5446f73ede
31,1,null,null,psychophysics,24,137763,0.0-3.0-1.10,"""",key,null,16.663949152542045,640,304.5,"""","""","""","""","""","""","""","""","2021-10-05 05:05:35",142.114.88.160,"Mozilla/5.0 (Windows NT 10.0; Win64; x64) AppleWebKit/537.36 (KHTML, like Gecko) Chrome/93.0.4577.63 Safari/537.36",WebKit,Chrome,93.0.4577.63,Windows,10.0,fe3c1d035a65c549f7011c5446f73ede
31,1,1136.2999992370605,arrowright,psychophysics,25,138916,0.0-3.0-0.11,"""",key,arrowright,16.66068115942028,640,304.5,12,1,-1,25,35,25,35,false,"2021-10-05 05:05:35",142.114.88.160,"Mozilla/5.0 (Windows NT 10.0; Win64; x64) AppleWebKit/537.36 (KHTML, like Gecko) Chrome/93.0.4577.63 Safari/537.36",WebKit,Chrome,93.0.4577.63,Windows,10.0,fe3c1d035a65c549f7011c5446f73ede
31,1,null,null,psychophysics,26,139924,0.0-3.0-1.11,"""",key,null,16.667237288135567,640,304.5,"""","""","""","""","""","""","""","""","2021-10-05 05:05:35",142.114.88.160,"Mozilla/5.0 (Windows NT 10.0; Win64; x64) AppleWebKit/537.36 (KHTML, like Gecko) Chrome/93.0.4577.63 Safari/537.36",WebKit,Chrome,93.0.4577.63,Windows,10.0,fe3c1d035a65c549f7011c5446f73ede
31,1,890.1999998092651,arrowright,psychophysics,27,140824,0.0-3.0-0.12,"""",key,arrowright,16.659735849056887,640,304.5,13,1,1,26,15,25,35,true,"2021-10-05 05:05:35",142.114.88.160,"Mozilla/5.0 (Windows NT 10.0; Win64; x64) AppleWebKit/537.36 (KHTML, like Gecko) Chrome/93.0.4577.63 Safari/537.36",WebKit,Chrome,93.0.4577.63,Windows,10.0,fe3c1d035a65c549f7011c5446f73ede
31,1,null,null,psychophysics,28,141828,0.0-3.0-1.12,"""",key,null,16.66603389830512,640,304.5,"""","""","""","""","""","""","""","""","2021-10-05 05:05:35",142.114.88.160,"Mozilla/5.0 (Windows NT 10.0; Win64; x64) AppleWebKit/537.36 (KHTML, like Gecko) Chrome/93.0.4577.63 Safari/537.36",WebKit,Chrome,93.0.4577.63,Windows,10.0,fe3c1d035a65c549f7011c5446f73ede
31,1,3238.8999996185303,arrowleft,psychophysics,29,145077,0.0-3.0-0.13,"""",key,arrowleft,16.662675257732,640,304.5,14,1,-1,24,35,25,35,true,"2021-10-05 05:05:35",142.114.88.160,"Mozilla/5.0 (Windows NT 10.0; Win64; x64) AppleWebKit/537.36 (KHTML, like Gecko) Chrome/93.0.4577.63 Safari/537.36",WebKit,Chrome,93.0.4577.63,Windows,10.0,fe3c1d035a65c549f7011c5446f73ede
31,1,null,null,psychophysics,30,146093,0.0-3.0-1.13,"""",key,null,16.66396666666648,640,304.5,"""","""","""","""","""","""","""","""","2021-10-05 05:05:35",142.114.88.160,"Mozilla/5.0 (Windows NT 10.0; Win64; x64) AppleWebKit/537.36 (KHTML, like Gecko) Chrome/93.0.4577.63 Safari/537.36",WebKit,Chrome,93.0.4577.63,Windows,10.0,fe3c1d035a65c549f7011c5446f73ede
31,1,800.5,arrowleft,psychophysics,31,146903,0.0-3.0-0.14,"""",key,arrowleft,16.65714583333344,640,304.5,15,1,-1,25,15,25,35,true,"2021-10-05 05:05:35",142.114.88.160,"Mozilla/5.0 (Windows NT 10.0; Win64; x64) AppleWebKit/537.36 (KHTML, like Gecko) Chrome/93.0.4577.63 Safari/537.36",WebKit,Chrome,93.0.4577.63,Windows,10.0,fe3c1d035a65c549f7011c5446f73ede
31,1,null,null,psychophysics,32,147909,0.0-3.0-1.14,"""",key,null,16.663050847457548,640,304.5,"""","""","""","""","""","""","""","""","2021-10-05 05:05:35",142.114.88.160,"Mozilla/5.0 (Windows NT 10.0; Win64; x64) AppleWebKit/537.36 (KHTML, like Gecko) Chrome/93.0.4577.63 Safari/537.36",WebKit,Chrome,93.0.4577.63,Windows,10.0,fe3c1d035a65c549f7011c5446f73ede
31,1,1143.5,arrowleft,psychophysics,33,149061,0.0-3.0-0.15,"""",key,arrowleft,16.66062318840599,640,304.5,16,1,-1,25,35,25,35,true,"2021-10-05 05:05:35",142.114.88.160,"Mozilla/5.0 (Windows NT 10.0; Win64; x64) AppleWebKit/537.36 (KHTML, like Gecko) Chrome/93.0.4577.63 Safari/537.36",WebKit,Chrome,93.0.4577.63,Windows,10.0,fe3c1d035a65c549f7011c5446f73ede
31,1,null,null,psychophysics,34,150070,0.0-3.0-1.15,"""",key,null,16.66388135593211,640,304.5,"""","""","""","""","""","""","""","""","2021-10-05 05:05:35",142.114.88.160,"Mozilla/5.0 (Windows NT 10.0; Win64; x64) AppleWebKit/537.36 (KHTML, like Gecko) Chrome/93.0.4577.63 Safari/537.36",WebKit,Chrome,93.0.4577.63,Windows,10.0,fe3c1d035a65c549f7011c5446f73ede
31,1,1113.1999998092651,arrowleft,psychophysics,35,151190,0.0-3.0-0.16,"""",key,arrowleft,16.661787878787656,640,304.5,17,1,1,23,35,25,35,false,"2021-10-05 05:05:35",142.114.88.160,"Mozilla/5.0 (Windows NT 10.0; Win64; x64) AppleWebKit/537.36 (KHTML, like Gecko) Chrome/93.0.4577.63 Safari/537.36",WebKit,Chrome,93.0.4577.63,Windows,10.0,fe3c1d035a65c549f7011c5446f73ede
31,1,null,null,psychophysics,36,152203,0.0-3.0-1.16,"""",key,null,16.668250000000018,640,304.5,"""","""","""","""","""","""","""","""","2021-10-05 05:05:35",142.114.88.160,"Mozilla/5.0 (Windows NT 10.0; Win64; x64) AppleWebKit/537.36 (KHTML, like Gecko) Chrome/93.0.4577.63 Safari/537.36",WebKit,Chrome,93.0.4577.63,Windows,10.0,fe3c1d035a65c549f7011c5446f73ede
31,1,793.5,arrowright,psychophysics,37,153003,0.0-3.0-0.17,"""",key,arrowright,16.664361702127785,640,304.5,18,1,-1,23,35,25,35,false,"2021-10-05 05:05:35",142.114.88.160,"Mozilla/5.0 (Windows NT 10.0; Win64; x64) AppleWebKit/537.36 (KHTML, like Gecko) Chrome/93.0.4577.63 Safari/537.36",WebKit,Chrome,93.0.4577.63,Windows,10.0,fe3c1d035a65c549f7011c5446f73ede
31,1,null,null,psychophysics,38,154008,0.0-3.0-1.17,"""",key,null,16.665135593220622,640,304.5,"""","""","""","""","""","""","""","""","2021-10-05 05:05:35",142.114.88.160,"Mozilla/5.0 (Windows NT 10.0; Win64; x64) AppleWebKit/537.36 (KHTML, like Gecko) Chrome/93.0.4577.63 Safari/537.36",WebKit,Chrome,93.0.4577.63,Windows,10.0,fe3c1d035a65c549f7011c5446f73ede
31,1,777.1000003814697,arrowleft,psychophysics,39,154796,0.0-3.0-0.18,"""",key,arrowleft,16.665170212766093,640,304.5,19,1,-1,26,15,25,35,true,"2021-10-05 05:05:35",142.114.88.160,"Mozilla/5.0 (Windows NT 10.0; Win64; x64) AppleWebKit/537.36 (KHTML, like Gecko) Chrome/93.0.4577.63 Safari/537.36",WebKit,Chrome,93.0.4577.63,Windows,10.0,fe3c1d035a65c549f7011c5446f73ede
31,1,null,null,psychophysics,40,155808,0.0-3.0-1.18,"""",key,null,16.666711864406953,640,304.5,"""","""","""","""","""","""","""","""","2021-10-05 05:05:35",142.114.88.160,"Mozilla/5.0 (Windows NT 10.0; Win64; x64) AppleWebKit/537.36 (KHTML, like Gecko) Chrome/93.0.4577.63 Safari/537.36",WebKit,Chrome,93.0.4577.63,Windows,10.0,fe3c1d035a65c549f7011c5446f73ede
31,1,660.1999998092651,arrowleft,psychophysics,41,156478,0.0-3.0-0.19,"""",key,arrowleft,16.66070000000036,640,304.5,20,1,-1,30,15,25,35,true,"2021-10-05 05:05:35",142.114.88.160,"Mozilla/5.0 (Windows NT 10.0; Win64; x64) AppleWebKit/537.36 (KHTML, like Gecko) Chrome/93.0.4577.63 Safari/537.36",WebKit,Chrome,93.0.4577.63,Windows,10.0,fe3c1d035a65c549f7011c5446f73ede
31,1,null,null,psychophysics,42,157483,0.0-3.0-1.19,"""",key,null,16.950034482758852,640,304.5,"""","""","""","""","""","""","""","""","2021-10-05 05:05:35",142.114.88.160,"Mozilla/5.0 (Windows NT 10.0; Win64; x64) AppleWebKit/537.36 (KHTML, like Gecko) Chrome/93.0.4577.63 Safari/537.36",WebKit,Chrome,93.0.4577.63,Windows,10.0,fe3c1d035a65c549f7011c5446f73ede
31,1,1188.2999992370605,arrowright,psychophysics,43,158695,0.0-3.0-0.20,"""",key,arrowright,16.662694444444544,640,304.5,21,1,1,25,15,25,35,true,"2021-10-05 05:05:35",142.114.88.160,"Mozilla/5.0 (Windows NT 10.0; Win64; x64) AppleWebKit/537.36 (KHTML, like Gecko) Chrome/93.0.4577.63 Safari/537.36",WebKit,Chrome,93.0.4577.63,Windows,10.0,fe3c1d035a65c549f7011c5446f73ede
31,1,null,null,psychophysics,44,159701,0.0-3.0-1.20,"""",key,null,16.661542372881154,640,304.5,"""","""","""","""","""","""","""","""","2021-10-05 05:05:35",142.114.88.160,"Mozilla/5.0 (Windows NT 10.0; Win64; x64) AppleWebKit/537.36 (KHTML, like Gecko) Chrome/93.0.4577.63 Safari/537.36",WebKit,Chrome,93.0.4577.63,Windows,10.0,fe3c1d035a65c549f7011c5446f73ede
31,1,770.3999996185303,arrowleft,psychophysics,45,160478,0.0-3.0-0.21,"""",key,arrowleft,16.66380434782553,640,304.5,22,1,-1,24,15,25,35,true,"2021-10-05 05:05:35",142.114.88.160,"Mozilla/5.0 (Windows NT 10.0; Win64; x64) AppleWebKit/537.36 (KHTML, like Gecko) Chrome/93.0.4577.63 Safari/537.36",WebKit,Chrome,93.0.4577.63,Windows,10.0,fe3c1d035a65c549f7011c5446f73ede
31,1,null,null,psychophysics,46,161484,0.0-3.0-1.21,"""",key,null,16.659898305084393,640,304.5,"""","""","""","""","""","""","""","""","2021-10-05 05:05:35",142.114.88.160,"Mozilla/5.0 (Windows NT 10.0; Win64; x64) AppleWebKit/537.36 (KHTML, like Gecko) Chrome/93.0.4577.63 Safari/537.36",WebKit,Chrome,93.0.4577.63,Windows,10.0,fe3c1d035a65c549f7011c5446f73ede
31,1,731.7000007629395,arrowright,psychophysics,47,162222,0.0-3.0-0.22,"""",key,arrowright,16.662953488371702,640,304.5,23,1,1,23,15,25,35,true,"2021-10-05 05:05:35",142.114.88.160,"Mozilla/5.0 (Windows NT 10.0; Win64; x64) AppleWebKit/537.36 (KHTML, like Gecko) Chrome/93.0.4577.63 Safari/537.36",WebKit,Chrome,93.0.4577.63,Windows,10.0,fe3c1d035a65c549f7011c5446f73ede
31,1,null,null,psychophysics,48,163233,0.0-3.0-1.22,"""",key,null,16.66208333333343,640,304.5,"""","""","""","""","""","""","""","""","2021-10-05 05:05:35",142.114.88.160,"Mozilla/5.0 (Windows NT 10.0; Win64; x64) AppleWebKit/537.36 (KHTML, like Gecko) Chrome/93.0.4577.63 Safari/537.36",WebKit,Chrome,93.0.4577.63,Windows,10.0,fe3c1d035a65c549f7011c5446f73ede
31,1,912.1000003814697,arrowleft,psychophysics,49,164164,0.0-3.0-0.23,"""",key,arrowleft,16.662781818181976,640,304.5,24,1,-1,27,35,25,35,true,"2021-10-05 05:05:35",142.114.88.160,"Mozilla/5.0 (Windows NT 10.0; Win64; x64) AppleWebKit/537.36 (KHTML, like Gecko) Chrome/93.0.4577.63 Safari/537.36",WebKit,Chrome,93.0.4577.63,Windows,10.0,fe3c1d035a65c549f7011c5446f73ede
31,1,null,null,psychophysics,50,165172,0.0-3.0-1.23,"""",key,null,16.66686440677968,640,304.5,"""","""","""","""","""","""","""","""","2021-10-05 05:05:35",142.114.88.160,"Mozilla/5.0 (Windows NT 10.0; Win64; x64) AppleWebKit/537.36 (KHTML, like Gecko) Chrome/93.0.4577.63 Safari/537.36",WebKit,Chrome,93.0.4577.63,Windows,10.0,fe3c1d035a65c549f7011c5446f73ede
31,1,822.6999998092651,arrowleft,psychophysics,51,166006,0.0-3.0-0.24,"""",key,arrowleft,16.663408163265558,640,304.5,25,1,-1,30,35,25,35,true,"2021-10-05 05:05:35",142.114.88.160,"Mozilla/5.0 (Windows NT 10.0; Win64; x64) AppleWebKit/537.36 (KHTML, like Gecko) Chrome/93.0.4577.63 Safari/537.36",WebKit,Chrome,93.0.4577.63,Windows,10.0,fe3c1d035a65c549f7011c5446f73ede
31,1,null,null,psychophysics,52,167015,0.0-3.0-1.24,"""",key,null,16.664100000000325,640,304.5,"""","""","""","""","""","""","""","""","2021-10-05 05:05:35",142.114.88.160,"Mozilla/5.0 (Windows NT 10.0; Win64; x64) AppleWebKit/537.36 (KHTML, like Gecko) Chrome/93.0.4577.63 Safari/537.36",WebKit,Chrome,93.0.4577.63,Windows,10.0,fe3c1d035a65c549f7011c5446f73ede
31,1,681.7999992370605,arrowright,psychophysics,53,167715,0.0-3.0-0.25,"""",key,arrowright,16.659585365853783,640,304.5,26,1,1,26,15,25,35,true,"2021-10-05 05:05:35",142.114.88.160,"Mozilla/5.0 (Windows NT 10.0; Win64; x64) AppleWebKit/537.36 (KHTML, like Gecko) Chrome/93.0.4577.63 Safari/537.36",WebKit,Chrome,93.0.4577.63,Windows,10.0,fe3c1d035a65c549f7011c5446f73ede
31,1,null,null,psychophysics,54,168721,0.0-3.0-1.25,"""",key,null,16.663677966101805,640,304.5,"""","""","""","""","""","""","""","""","2021-10-05 05:05:35",142.114.88.160,"Mozilla/5.0 (Windows NT 10.0; Win64; x64) AppleWebKit/537.36 (KHTML, like Gecko) Chrome/93.0.4577.63 Safari/537.36",WebKit,Chrome,93.0.4577.63,Windows,10.0,fe3c1d035a65c549f7011c5446f73ede
31,1,611.6999998092651,arrowright,psychophysics,55,169358,0.0-3.0-0.26,"""",key,arrowright,16.66549999999973,640,304.5,27,1,1,26,15,25,35,true,"2021-10-05 05:05:35",142.114.88.160,"Mozilla/5.0 (Windows NT 10.0; Win64; x64) AppleWebKit/537.36 (KHTML, like Gecko) Chrome/93.0.4577.63 Safari/537.36",WebKit,Chrome,93.0.4577.63,Windows,10.0,fe3c1d035a65c549f7011c5446f73ede
31,1,null,null,psychophysics,56,170365,0.0-3.0-1.26,"""",key,null,16.664847457627037,640,304.5,"""","""","""","""","""","""","""","""","2021-10-05 05:05:35",142.114.88.160,"Mozilla/5.0 (Windows NT 10.0; Win64; x64) AppleWebKit/537.36 (KHTML, like Gecko) Chrome/93.0.4577.63 Safari/537.36",WebKit,Chrome,93.0.4577.63,Windows,10.0,fe3c1d035a65c549f7011c5446f73ede
31,1,565.5,arrowleft,psychophysics,57,170937,0.0-3.0-0.27,"""",key,arrowleft,16.66763636363656,640,304.5,28,2,-1,26,15,25,35,true,"2021-10-05 05:05:35",142.114.88.160,"Mozilla/5.0 (Windows NT 10.0; Win64; x64) AppleWebKit/537.36 (KHTML, like Gecko) Chrome/93.0.4577.63 Safari/537.36",WebKit,Chrome,93.0.4577.63,Windows,10.0,fe3c1d035a65c549f7011c5446f73ede
31,1,null,null,psychophysics,58,171948,0.0-3.0-1.27,"""",key,null,16.66651666666682,640,304.5,"""","""","""","""","""","""","""","""","2021-10-05 05:05:35",142.114.88.160,"Mozilla/5.0 (Windows NT 10.0; Win64; x64) AppleWebKit/537.36 (KHTML, like Gecko) Chrome/93.0.4577.63 Safari/537.36",WebKit,Chrome,93.0.4577.63,Windows,10.0,fe3c1d035a65c549f7011c5446f73ede
31,1,3586.1000003814697," ",html-keyboard-response,59,175537,0.0-3.0-2.27-0.27,"<div style=""color: white; text-align: center; vertical-align: top; display: inline-block; width: 800px; margin: auto""><p>You have completed 10% of the trials. You are on block 2 of 10. <br>Good job! Take a break if you need to.</p><p>Press any key to continue the experiment.</p></div>","""","""","""","""","""","""","""","""","""","""","""","""","""","2021-10-05 05:05:35",142.114.88.160,"Mozilla/5.0 (Windows NT 10.0; Win64; x64) AppleWebKit/537.36 (KHTML, like Gecko) Chrome/93.0.4577.63 Safari/537.36",WebKit,Chrome,93.0.4577.63,Windows,10.0,fe3c1d035a65c549f7011c5446f73ede
31,1,2904.8999996185303,arrowright,psychophysics,60,179459,0.0-3.0-0.28,"""",key,arrowright,16.660320000000066,640,304.5,29,2,1,25,35,25,35,true,"2021-10-05 05:05:35",142.114.88.160,"Mozilla/5.0 (Windows NT 10.0; Win64; x64) AppleWebKit/537.36 (KHTML, like Gecko) Chrome/93.0.4577.63 Safari/537.36",WebKit,Chrome,93.0.4577.63,Windows,10.0,fe3c1d035a65c549f7011c5446f73ede
31,1,null,null,psychophysics,61,180463,0.0-3.0-1.28,"""",key,null,16.664542372881087,640,304.5,"""","""","""","""","""","""","""","""","2021-10-05 05:05:35",142.114.88.160,"Mozilla/5.0 (Windows NT 10.0; Win64; x64) AppleWebKit/537.36 (KHTML, like Gecko) Chrome/93.0.4577.63 Safari/537.36",WebKit,Chrome,93.0.4577.63,Windows,10.0,fe3c1d035a65c549f7011c5446f73ede
31,1,2607.5,arrowright,psychophysics,62,183077,0.0-3.0-0.29,"""",key,arrowright,16.662217948717835,640,304.5,30,2,1,24,35,25,35,true,"2021-10-05 05:05:35",142.114.88.160,"Mozilla/5.0 (Windows NT 10.0; Win64; x64) AppleWebKit/537.36 (KHTML, like Gecko) Chrome/93.0.4577.63 Safari/537.36",WebKit,Chrome,93.0.4577.63,Windows,10.0,fe3c1d035a65c549f7011c5446f73ede
31,1,null,null,psychophysics,63,184084,0.0-3.0-1.29,"""",key,null,16.666576271186585,640,304.5,"""","""","""","""","""","""","""","""","2021-10-05 05:05:35",142.114.88.160,"Mozilla/5.0 (Windows NT 10.0; Win64; x64) AppleWebKit/537.36 (KHTML, like Gecko) Chrome/93.0.4577.63 Safari/537.36",WebKit,Chrome,93.0.4577.63,Windows,10.0,fe3c1d035a65c549f7011c5446f73ede
31,1,687.4000005722046,arrowright,psychophysics,64,184790,0.0-3.0-0.30,"""",key,arrowright,16.66561904761918,640,304.5,31,2,1,30,35,25,35,true,"2021-10-05 05:05:35",142.114.88.160,"Mozilla/5.0 (Windows NT 10.0; Win64; x64) AppleWebKit/537.36 (KHTML, like Gecko) Chrome/93.0.4577.63 Safari/537.36",WebKit,Chrome,93.0.4577.63,Windows,10.0,fe3c1d035a65c549f7011c5446f73ede
31,1,null,null,psychophysics,65,185794,0.0-3.0-1.30,"""",key,null,16.661474576271218,640,304.5,"""","""","""","""","""","""","""","""","2021-10-05 05:05:35",142.114.88.160,"Mozilla/5.0 (Windows NT 10.0; Win64; x64) AppleWebKit/537.36 (KHTML, like Gecko) Chrome/93.0.4577.63 Safari/537.36",WebKit,Chrome,93.0.4577.63,Windows,10.0,fe3c1d035a65c549f7011c5446f73ede
31,1,10447.599999427795,arrowleft,psychophysics,66,196247,0.0-3.0-0.31,"""",key,arrowleft,16.66294728434501,640,304.5,32,2,1,23,35,25,35,false,"2021-10-05 05:05:35",142.114.88.160,"Mozilla/5.0 (Windows NT 10.0; Win64; x64) AppleWebKit/537.36 (KHTML, like Gecko) Chrome/93.0.4577.63 Safari/537.36",WebKit,Chrome,93.0.4577.63,Windows,10.0,fe3c1d035a65c549f7011c5446f73ede
31,1,null,null,psychophysics,67,197258,0.0-3.0-1.31,"""",key,null,16.66463333333328,640,304.5,"""","""","""","""","""","""","""","""","2021-10-05 05:05:35",142.114.88.160,"Mozilla/5.0 (Windows NT 10.0; Win64; x64) AppleWebKit/537.36 (KHTML, like Gecko) Chrome/93.0.4577.63 Safari/537.36",WebKit,Chrome,93.0.4577.63,Windows,10.0,fe3c1d035a65c549f7011c5446f73ede
31,1,977.5,arrowleft,psychophysics,68,198279,0.0-3.0-0.32,"""",key,arrowleft,16.948864406779787,640,304.5,33,2,1,25,35,25,35,false,"2021-10-05 05:05:35",142.114.88.160,"Mozilla/5.0 (Windows NT 10.0; Win64; x64) AppleWebKit/537.36 (KHTML, like Gecko) Chrome/93.0.4577.63 Safari/537.36",WebKit,Chrome,93.0.4577.63,Windows,10.0,fe3c1d035a65c549f7011c5446f73ede
31,1,null,null,psychophysics,69,199289,0.0-3.0-1.32,"""",key,null,16.66643333333341,640,304.5,"""","""","""","""","""","""","""","""","2021-10-05 05:05:35",142.114.88.160,"Mozilla/5.0 (Windows NT 10.0; Win64; x64) AppleWebKit/537.36 (KHTML, like Gecko) Chrome/93.0.4577.63 Safari/537.36",WebKit,Chrome,93.0.4577.63,Windows,10.0,fe3c1d035a65c549f7011c5446f73ede
31,1,663.8999996185303,arrowright,psychophysics,70,199956,0.0-3.0-0.33,"""",key,arrowright,16.66502564102605,640,304.5,34,2,1,27,35,25,35,true,"2021-10-05 05:05:35",142.114.88.160,"Mozilla/5.0 (Windows NT 10.0; Win64; x64) AppleWebKit/537.36 (KHTML, like Gecko) Chrome/93.0.4577.63 Safari/537.36",WebKit,Chrome,93.0.4577.63,Windows,10.0,fe3c1d035a65c549f7011c5446f73ede
31,1,null,null,psychophysics,71,200963,0.0-3.0-1.33,"""",key,null,16.662050847457405,640,304.5,"""","""","""","""","""","""","""","""","2021-10-05 05:05:35",142.114.88.160,"Mozilla/5.0 (Windows NT 10.0; Win64; x64) AppleWebKit/537.36 (KHTML, like Gecko) Chrome/93.0.4577.63 Safari/537.36",WebKit,Chrome,93.0.4577.63,Windows,10.0,fe3c1d035a65c549f7011c5446f73ede
31,1,1233.6000003814697,arrowright,psychophysics,72,202205,0.0-3.0-0.34,"""",key,arrowright,16.66228378378366,640,304.5,35,2,1,20,15,25,35,true,"2021-10-05 05:05:35",142.114.88.160,"Mozilla/5.0 (Windows NT 10.0; Win64; x64) AppleWebKit/537.36 (KHTML, like Gecko) Chrome/93.0.4577.63 Safari/537.36",WebKit,Chrome,93.0.4577.63,Windows,10.0,fe3c1d035a65c549f7011c5446f73ede
31,1,null,null,psychophysics,73,203213,0.0-3.0-1.34,"""",key,null,16.666915254237257,640,304.5,"""","""","""","""","""","""","""","""","2021-10-05 05:05:35",142.114.88.160,"Mozilla/5.0 (Windows NT 10.0; Win64; x64) AppleWebKit/537.36 (KHTML, like Gecko) Chrome/93.0.4577.63 Safari/537.36",WebKit,Chrome,93.0.4577.63,Windows,10.0,fe3c1d035a65c549f7011c5446f73ede
31,1,1170.3000001907349,arrowright,psychophysics,74,204392,0.0-3.0-0.35,"""",key,arrowright,16.662042857142765,640,304.5,36,2,1,24,35,25,35,true,"2021-10-05 05:05:35",142.114.88.160,"Mozilla/5.0 (Windows NT 10.0; Win64; x64) AppleWebKit/537.36 (KHTML, like Gecko) Chrome/93.0.4577.63 Safari/537.36",WebKit,Chrome,93.0.4577.63,Windows,10.0,fe3c1d035a65c549f7011c5446f73ede
31,1,null,null,psychophysics,75,205396,0.0-3.0-1.35,"""",key,null,16.662711864406877,640,304.5,"""","""","""","""","""","""","""","""","2021-10-05 05:05:35",142.114.88.160,"Mozilla/5.0 (Windows NT 10.0; Win64; x64) AppleWebKit/537.36 (KHTML, like Gecko) Chrome/93.0.4577.63 Safari/537.36",WebKit,Chrome,93.0.4577.63,Windows,10.0,fe3c1d035a65c549f7011c5446f73ede
31,1,703.1999998092651,arrowright,psychophysics,76,206111,0.0-3.0-0.36,"""",key,arrowright,16.65676190476127,640,304.5,37,2,-1,24,35,25,35,false,"2021-10-05 05:05:35",142.114.88.160,"Mozilla/5.0 (Windows NT 10.0; Win64; x64) AppleWebKit/537.36 (KHTML, like Gecko) Chrome/93.0.4577.63 Safari/537.36",WebKit,Chrome,93.0.4577.63,Windows,10.0,fe3c1d035a65c549f7011c5446f73ede
31,1,null,null,psychophysics,77,207122,0.0-3.0-1.36,"""",key,null,16.664933333333465,640,304.5,"""","""","""","""","""","""","""","""","2021-10-05 05:05:35",142.114.88.160,"Mozilla/5.0 (Windows NT 10.0; Win64; x64) AppleWebKit/537.36 (KHTML, like Gecko) Chrome/93.0.4577.63 Safari/537.36",WebKit,Chrome,93.0.4577.63,Windows,10.0,fe3c1d035a65c549f7011c5446f73ede
31,1,532.5,arrowright,psychophysics,78,207661,0.0-3.0-0.37,"""",key,arrowright,16.66996774193549,640,304.5,38,2,-1,20,35,25,35,false,"2021-10-05 05:05:35",142.114.88.160,"Mozilla/5.0 (Windows NT 10.0; Win64; x64) AppleWebKit/537.36 (KHTML, like Gecko) Chrome/93.0.4577.63 Safari/537.36",WebKit,Chrome,93.0.4577.63,Windows,10.0,fe3c1d035a65c549f7011c5446f73ede
31,1,null,null,psychophysics,79,208672,0.0-3.0-1.37,"""",key,null,16.664666666666744,640,304.5,"""","""","""","""","""","""","""","""","2021-10-05 05:05:35",142.114.88.160,"Mozilla/5.0 (Windows NT 10.0; Win64; x64) AppleWebKit/537.36 (KHTML, like Gecko) Chrome/93.0.4577.63 Safari/537.36",WebKit,Chrome,93.0.4577.63,Windows,10.0,fe3c1d035a65c549f7011c5446f73ede
31,1,523.5,arrowright,psychophysics,80,209203,0.0-3.0-0.38,"""",key,arrowright,16.655161290322507,640,304.5,39,2,1,24,15,25,35,true,"2021-10-05 05:05:35",142.114.88.160,"Mozilla/5.0 (Windows NT 10.0; Win64; x64) AppleWebKit/537.36 (KHTML, like Gecko) Chrome/93.0.4577.63 Safari/537.36",WebKit,Chrome,93.0.4577.63,Windows,10.0,fe3c1d035a65c549f7011c5446f73ede
31,1,null,null,psychophysics,81,210211,0.0-3.0-1.38,"""",key,null,16.665661016949237,640,304.5,"""","""","""","""","""","""","""","""","2021-10-05 05:05:35",142.114.88.160,"Mozilla/5.0 (Windows NT 10.0; Win64; x64) AppleWebKit/537.36 (KHTML, like Gecko) Chrome/93.0.4577.63 Safari/537.36",WebKit,Chrome,93.0.4577.63,Windows,10.0,fe3c1d035a65c549f7011c5446f73ede
31,1,694.8000001907349,arrowleft,psychophysics,82,210917,0.0-3.0-0.39,"""",key,arrowleft,16.665333333333063,640,304.5,40,2,-1,20,35,25,35,true,"2021-10-05 05:05:35",142.114.88.160,"Mozilla/5.0 (Windows NT 10.0; Win64; x64) AppleWebKit/537.36 (KHTML, like Gecko) Chrome/93.0.4577.63 Safari/537.36",WebKit,Chrome,93.0.4577.63,Windows,10.0,fe3c1d035a65c549f7011c5446f73ede
31,1,null,null,psychophysics,83,211922,0.0-3.0-1.39,"""",key,null,16.65967796610173,640,304.5,"""","""","""","""","""","""","""","""","2021-10-05 05:05:35",142.114.88.160,"Mozilla/5.0 (Windows NT 10.0; Win64; x64) AppleWebKit/537.36 (KHTML, like Gecko) Chrome/93.0.4577.63 Safari/537.36",WebKit,Chrome,93.0.4577.63,Windows,10.0,fe3c1d035a65c549f7011c5446f73ede
31,1,834.1999998092651,arrowright,psychophysics,84,212768,0.0-3.0-0.40,"""",key,arrowright,16.666720000000204,640,304.5,41,2,-1,24,35,25,35,false,"2021-10-05 05:05:35",142.114.88.160,"Mozilla/5.0 (Windows NT 10.0; Win64; x64) AppleWebKit/537.36 (KHTML, like Gecko) Chrome/93.0.4577.63 Safari/537.36",WebKit,Chrome,93.0.4577.63,Windows,10.0,fe3c1d035a65c549f7011c5446f73ede
31,1,null,null,psychophysics,85,213773,0.0-3.0-1.40,"""",key,null,16.662542372881298,640,304.5,"""","""","""","""","""","""","""","""","2021-10-05 05:05:35",142.114.88.160,"Mozilla/5.0 (Windows NT 10.0; Win64; x64) AppleWebKit/537.36 (KHTML, like Gecko) Chrome/93.0.4577.63 Safari/537.36",WebKit,Chrome,93.0.4577.63,Windows,10.0,fe3c1d035a65c549f7011c5446f73ede
31,1,828.5,arrowleft,psychophysics,86,214625,0.0-3.0-0.41,"""",key,arrowleft,16.661120000000228,640,304.5,42,2,-1,26,15,25,35,true,"2021-10-05 05:05:35",142.114.88.160,"Mozilla/5.0 (Windows NT 10.0; Win64; x64) AppleWebKit/537.36 (KHTML, like Gecko) Chrome/93.0.4577.63 Safari/537.36",WebKit,Chrome,93.0.4577.63,Windows,10.0,fe3c1d035a65c549f7011c5446f73ede
31,1,null,null,psychophysics,87,215629,0.0-3.0-1.41,"""",key,null,16.667933333333348,640,304.5,"""","""","""","""","""","""","""","""","2021-10-05 05:05:35",142.114.88.160,"Mozilla/5.0 (Windows NT 10.0; Win64; x64) AppleWebKit/537.36 (KHTML, like Gecko) Chrome/93.0.4577.63 Safari/537.36",WebKit,Chrome,93.0.4577.63,Windows,10.0,fe3c1d035a65c549f7011c5446f73ede
31,1,862.1000003814697,arrowright,psychophysics,88,216497,0.0-3.0-0.42,"""",key,arrowright,16.662372549019945,640,304.5,43,2,-1,23,35,25,35,false,"2021-10-05 05:05:35",142.114.88.160,"Mozilla/5.0 (Windows NT 10.0; Win64; x64) AppleWebKit/537.36 (KHTML, like Gecko) Chrome/93.0.4577.63 Safari/537.36",WebKit,Chrome,93.0.4577.63,Windows,10.0,fe3c1d035a65c549f7011c5446f73ede
31,1,null,null,psychophysics,89,217506,0.0-3.0-1.42,"""",key,null,16.656779661016948,640,304.5,"""","""","""","""","""","""","""","""","2021-10-05 05:05:35",142.114.88.160,"Mozilla/5.0 (Windows NT 10.0; Win64; x64) AppleWebKit/537.36 (KHTML, like Gecko) Chrome/93.0.4577.63 Safari/537.36",WebKit,Chrome,93.0.4577.63,Windows,10.0,fe3c1d035a65c549f7011c5446f73ede
31,1,1386.1999998092651,arrowleft,psychophysics,90,218908,0.0-3.0-0.43,"""",key,arrowleft,16.666891566265225,640,304.5,44,2,1,20,35,25,35,false,"2021-10-05 05:05:35",142.114.88.160,"Mozilla/5.0 (Windows NT 10.0; Win64; x64) AppleWebKit/537.36 (KHTML, like Gecko) Chrome/93.0.4577.63 Safari/537.36",WebKit,Chrome,93.0.4577.63,Windows,10.0,fe3c1d035a65c549f7011c5446f73ede
31,1,null,null,psychophysics,91,219912,0.0-3.0-1.43,"""",key,null,16.66311666666637,640,304.5,"""","""","""","""","""","""","""","""","2021-10-05 05:05:35",142.114.88.160,"Mozilla/5.0 (Windows NT 10.0; Win64; x64) AppleWebKit/537.36 (KHTML, like Gecko) Chrome/93.0.4577.63 Safari/537.36",WebKit,Chrome,93.0.4577.63,Windows,10.0,fe3c1d035a65c549f7011c5446f73ede
31,1,773.5,arrowright,psychophysics,92,220699,0.0-3.0-0.44,"""",key,arrowright,16.668021739130264,640,304.5,45,2,1,27,15,25,35,true,"2021-10-05 05:05:35",142.114.88.160,"Mozilla/5.0 (Windows NT 10.0; Win64; x64) AppleWebKit/537.36 (KHTML, like Gecko) Chrome/93.0.4577.63 Safari/537.36",WebKit,Chrome,93.0.4577.63,Windows,10.0,fe3c1d035a65c549f7011c5446f73ede
31,1,null,null,psychophysics,93,221704,0.0-3.0-1.44,"""",key,null,16.663355932203498,640,304.5,"""","""","""","""","""","""","""","""","2021-10-05 05:05:35",142.114.88.160,"Mozilla/5.0 (Windows NT 10.0; Win64; x64) AppleWebKit/537.36 (KHTML, like Gecko) Chrome/93.0.4577.63 Safari/537.36",WebKit,Chrome,93.0.4577.63,Windows,10.0,fe3c1d035a65c549f7011c5446f73ede
31,1,1155.0999994277954,arrowleft,psychophysics,94,222869,0.0-3.0-0.45,"""",key,arrowleft,16.66273913043467,640,304.5,46,2,1,20,15,25,35,false,"2021-10-05 05:05:35",142.114.88.160,"Mozilla/5.0 (Windows NT 10.0; Win64; x64) AppleWebKit/537.36 (KHTML, like Gecko) Chrome/93.0.4577.63 Safari/537.36",WebKit,Chrome,93.0.4577.63,Windows,10.0,fe3c1d035a65c549f7011c5446f73ede
31,1,null,null,psychophysics,95,223874,0.0-3.0-1.45,"""",key,null,16.66206779661026,640,304.5,"""","""","""","""","""","""","""","""","2021-10-05 05:05:35",142.114.88.160,"Mozilla/5.0 (Windows NT 10.0; Win64; x64) AppleWebKit/537.36 (KHTML, like Gecko) Chrome/93.0.4577.63 Safari/537.36",WebKit,Chrome,93.0.4577.63,Windows,10.0,fe3c1d035a65c549f7011c5446f73ede
31,1,853.3000001907349,arrowright,psychophysics,96,224745,0.0-3.0-0.46,"""",key,arrowright,16.66196153846193,640,304.5,47,2,-1,30,35,25,35,false,"2021-10-05 05:05:35",142.114.88.160,"Mozilla/5.0 (Windows NT 10.0; Win64; x64) AppleWebKit/537.36 (KHTML, like Gecko) Chrome/93.0.4577.63 Safari/537.36",WebKit,Chrome,93.0.4577.63,Windows,10.0,fe3c1d035a65c549f7011c5446f73ede
31,1,null,null,psychophysics,97,225751,0.0-3.0-1.46,"""",key,null,16.66347457627101,640,304.5,"""","""","""","""","""","""","""","""","2021-10-05 05:05:35",142.114.88.160,"Mozilla/5.0 (Windows NT 10.0; Win64; x64) AppleWebKit/537.36 (KHTML, like Gecko) Chrome/93.0.4577.63 Safari/537.36",WebKit,Chrome,93.0.4577.63,Windows,10.0,fe3c1d035a65c549f7011c5446f73ede
31,1,590.6999998092651,arrowright,psychophysics,98,226395,0.0-3.0-0.47,"""",key,arrowright,17.113486486486305,640,304.5,48,2,1,26,35,25,35,true,"2021-10-05 05:05:35",142.114.88.160,"Mozilla/5.0 (Windows NT 10.0; Win64; x64) AppleWebKit/537.36 (KHTML, like Gecko) Chrome/93.0.4577.63 Safari/537.36",WebKit,Chrome,93.0.4577.63,Windows,10.0,fe3c1d035a65c549f7011c5446f73ede
31,1,null,null,psychophysics,99,227403,0.0-3.0-1.47,"""",key,null,16.66025423728792,640,304.5,"""","""","""","""","""","""","""","""","2021-10-05 05:05:35",142.114.88.160,"Mozilla/5.0 (Windows NT 10.0; Win64; x64) AppleWebKit/537.36 (KHTML, like Gecko) Chrome/93.0.4577.63 Safari/537.36",WebKit,Chrome,93.0.4577.63,Windows,10.0,fe3c1d035a65c549f7011c5446f73ede
31,1,778.3999996185303,arrowright,psychophysics,100,228193,0.0-3.0-0.48,"""",key,arrowright,16.663489361702307,640,304.5,49,2,-1,27,35,25,35,false,"2021-10-05 05:05:35",142.114.88.160,"Mozilla/5.0 (Windows NT 10.0; Win64; x64) AppleWebKit/537.36 (KHTML, like Gecko) Chrome/93.0.4577.63 Safari/537.36",WebKit,Chrome,93.0.4577.63,Windows,10.0,fe3c1d035a65c549f7011c5446f73ede
31,1,null,null,psychophysics,101,229203,0.0-3.0-1.48,"""",key,null,16.65777966101709,640,304.5,"""","""","""","""","""","""","""","""","2021-10-05 05:05:35",142.114.88.160,"Mozilla/5.0 (Windows NT 10.0; Win64; x64) AppleWebKit/537.36 (KHTML, like Gecko) Chrome/93.0.4577.63 Safari/537.36",WebKit,Chrome,93.0.4577.63,Windows,10.0,fe3c1d035a65c549f7011c5446f73ede
31,1,605.9000005722046,arrowleft,psychophysics,102,229819,0.0-3.0-0.49,"""",key,arrowleft,16.669805555555083,640,304.5,50,2,-1,27,15,25,35,true,"2021-10-05 05:05:35",142.114.88.160,"Mozilla/5.0 (Windows NT 10.0; Win64; x64) AppleWebKit/537.36 (KHTML, like Gecko) Chrome/93.0.4577.63 Safari/537.36",WebKit,Chrome,93.0.4577.63,Windows,10.0,fe3c1d035a65c549f7011c5446f73ede
31,1,null,null,psychophysics,103,230823,0.0-3.0-1.49,"""",key,null,16.66644067796622,640,304.5,"""","""","""","""","""","""","""","""","2021-10-05 05:05:35",142.114.88.160,"Mozilla/5.0 (Windows NT 10.0; Win64; x64) AppleWebKit/537.36 (KHTML, like Gecko) Chrome/93.0.4577.63 Safari/537.36",WebKit,Chrome,93.0.4577.63,Windows,10.0,fe3c1d035a65c549f7011c5446f73ede
31,1,594.1999998092651,arrowright,psychophysics,104,231429,0.0-3.0-0.50,"""",key,arrowright,16.665916666666615,640,304.5,51,2,1,27,35,25,35,true,"2021-10-05 05:05:35",142.114.88.160,"Mozilla/5.0 (Windows NT 10.0; Win64; x64) AppleWebKit/537.36 (KHTML, like Gecko) Chrome/93.0.4577.63 Safari/537.36",WebKit,Chrome,93.0.4577.63,Windows,10.0,fe3c1d035a65c549f7011c5446f73ede
31,1,null,null,psychophysics,105,232439,0.0-3.0-1.50,"""",key,null,16.66627118644064,640,304.5,"""","""","""","""","""","""","""","""","2021-10-05 05:05:35",142.114.88.160,"Mozilla/5.0 (Windows NT 10.0; Win64; x64) AppleWebKit/537.36 (KHTML, like Gecko) Chrome/93.0.4577.63 Safari/537.36",WebKit,Chrome,93.0.4577.63,Windows,10.0,fe3c1d035a65c549f7011c5446f73ede
31,1,646.6000003814697,arrowleft,psychophysics,106,233096,0.0-3.0-0.51,"""",key,arrowleft,16.666717948717398,640,304.5,52,2,-1,25,35,25,35,true,"2021-10-05 05:05:35",142.114.88.160,"Mozilla/5.0 (Windows NT 10.0; Win64; x64) AppleWebKit/537.36 (KHTML, like Gecko) Chrome/93.0.4577.63 Safari/537.36",WebKit,Chrome,93.0.4577.63,Windows,10.0,fe3c1d035a65c549f7011c5446f73ede
31,1,null,null,psychophysics,107,234099,0.0-3.0-1.51,"""",key,null,16.659203389830694,640,304.5,"""","""","""","""","""","""","""","""","2021-10-05 05:05:35",142.114.88.160,"Mozilla/5.0 (Windows NT 10.0; Win64; x64) AppleWebKit/537.36 (KHTML, like Gecko) Chrome/93.0.4577.63 Safari/537.36",WebKit,Chrome,93.0.4577.63,Windows,10.0,fe3c1d035a65c549f7011c5446f73ede
31,1,862.6999998092651,arrowright,psychophysics,108,234977,0.0-3.0-0.52,"""",key,arrowright,16.666692307692408,640,304.5,53,2,1,23,15,25,35,true,"2021-10-05 05:05:35",142.114.88.160,"Mozilla/5.0 (Windows NT 10.0; Win64; x64) AppleWebKit/537.36 (KHTML, like Gecko) Chrome/93.0.4577.63 Safari/537.36",WebKit,Chrome,93.0.4577.63,Windows,10.0,fe3c1d035a65c549f7011c5446f73ede
31,1,null,null,psychophysics,109,235980,0.0-3.0-1.52,"""",key,null,16.66289830508482,640,304.5,"""","""","""","""","""","""","""","""","2021-10-05 05:05:35",142.114.88.160,"Mozilla/5.0 (Windows NT 10.0; Win64; x64) AppleWebKit/537.36 (KHTML, like Gecko) Chrome/93.0.4577.63 Safari/537.36",WebKit,Chrome,93.0.4577.63,Windows,10.0,fe3c1d035a65c549f7011c5446f73ede
31,1,744,arrowleft,psychophysics,110,236731,0.0-3.0-0.53,"""",key,arrowleft,16.66406818181845,640,304.5,54,2,-1,26,15,25,35,true,"2021-10-05 05:05:35",142.114.88.160,"Mozilla/5.0 (Windows NT 10.0; Win64; x64) AppleWebKit/537.36 (KHTML, like Gecko) Chrome/93.0.4577.63 Safari/537.36",WebKit,Chrome,93.0.4577.63,Windows,10.0,fe3c1d035a65c549f7011c5446f73ede
31,1,null,null,psychophysics,111,237737,0.0-3.0-1.53,"""",key,null,16.663779661016957,640,304.5,"""","""","""","""","""","""","""","""","2021-10-05 05:05:35",142.114.88.160,"Mozilla/5.0 (Windows NT 10.0; Win64; x64) AppleWebKit/537.36 (KHTML, like Gecko) Chrome/93.0.4577.63 Safari/537.36",WebKit,Chrome,93.0.4577.63,Windows,10.0,fe3c1d035a65c549f7011c5446f73ede
31,1,759.8000001907349,arrowright,psychophysics,112,238513,0.0-3.0-0.54,"""",key,arrowright,16.659326086956476,640,304.5,55,2,1,24,35,25,35,true,"2021-10-05 05:05:35",142.114.88.160,"Mozilla/5.0 (Windows NT 10.0; Win64; x64) AppleWebKit/537.36 (KHTML, like Gecko) Chrome/93.0.4577.63 Safari/537.36",WebKit,Chrome,93.0.4577.63,Windows,10.0,fe3c1d035a65c549f7011c5446f73ede
31,1,null,null,psychophysics,113,239520,0.0-3.0-1.54,"""",key,null,16.6666101694918,640,304.5,"""","""","""","""","""","""","""","""","2021-10-05 05:05:35",142.114.88.160,"Mozilla/5.0 (Windows NT 10.0; Win64; x64) AppleWebKit/537.36 (KHTML, like Gecko) Chrome/93.0.4577.63 Safari/537.36",WebKit,Chrome,93.0.4577.63,Windows,10.0,fe3c1d035a65c549f7011c5446f73ede
31,1,742.8000001907349,arrowleft,psychophysics,114,240274,0.0-3.0-0.55,"""",key,arrowleft,16.661511111111356,640,304.5,56,3,1,24,35,25,35,false,"2021-10-05 05:05:35",142.114.88.160,"Mozilla/5.0 (Windows NT 10.0; Win64; x64) AppleWebKit/537.36 (KHTML, like Gecko) Chrome/93.0.4577.63 Safari/537.36",WebKit,Chrome,93.0.4577.63,Windows,10.0,fe3c1d035a65c549f7011c5446f73ede
31,1,null,null,psychophysics,115,241280,0.0-3.0-1.55,"""",key,null,16.661118644067695,640,304.5,"""","""","""","""","""","""","""","""","2021-10-05 05:05:35",142.114.88.160,"Mozilla/5.0 (Windows NT 10.0; Win64; x64) AppleWebKit/537.36 (KHTML, like Gecko) Chrome/93.0.4577.63 Safari/537.36",WebKit,Chrome,93.0.4577.63,Windows,10.0,fe3c1d035a65c549f7011c5446f73ede
31,1,1592.9000005722046,arrowleft,html-keyboard-response,116,242875,0.0-3.0-2.55-0.55,"<div style=""color: white; text-align: center; vertical-align: top; display: inline-block; width: 800px; margin: auto""><p>You have completed 20% of the trials. You are on block 3 of 10. <br>Good job! Take a break if you need to.</p><p>Press any key to continue the experiment.</p></div>","""","""","""","""","""","""","""","""","""","""","""","""","""","2021-10-05 05:05:35",142.114.88.160,"Mozilla/5.0 (Windows NT 10.0; Win64; x64) AppleWebKit/537.36 (KHTML, like Gecko) Chrome/93.0.4577.63 Safari/537.36",WebKit,Chrome,93.0.4577.63,Windows,10.0,fe3c1d035a65c549f7011c5446f73ede
31,1,1027.5,arrowleft,psychophysics,117,244922,0.0-3.0-0.56,"""",key,arrowleft,16.665467741935807,640,304.5,57,3,-1,24,15,25,35,true,"2021-10-05 05:05:35",142.114.88.160,"Mozilla/5.0 (Windows NT 10.0; Win64; x64) AppleWebKit/537.36 (KHTML, like Gecko) Chrome/93.0.4577.63 Safari/537.36",WebKit,Chrome,93.0.4577.63,Windows,10.0,fe3c1d035a65c549f7011c5446f73ede
31,1,null,null,psychophysics,118,245935,0.0-3.0-1.56,"""",key,null,16.66362711864423,640,304.5,"""","""","""","""","""","""","""","""","2021-10-05 05:05:35",142.114.88.160,"Mozilla/5.0 (Windows NT 10.0; Win64; x64) AppleWebKit/537.36 (KHTML, like Gecko) Chrome/93.0.4577.63 Safari/537.36",WebKit,Chrome,93.0.4577.63,Windows,10.0,fe3c1d035a65c549f7011c5446f73ede
31,1,740,arrowleft,psychophysics,119,246685,0.0-3.0-0.57,"""",key,arrowleft,16.656272727273144,640,304.5,58,3,-1,25,35,25,35,true,"2021-10-05 05:05:35",142.114.88.160,"Mozilla/5.0 (Windows NT 10.0; Win64; x64) AppleWebKit/537.36 (KHTML, like Gecko) Chrome/93.0.4577.63 Safari/537.36",WebKit,Chrome,93.0.4577.63,Windows,10.0,fe3c1d035a65c549f7011c5446f73ede
31,1,null,null,psychophysics,120,247688,0.0-3.0-1.57,"""",key,null,16.664250000000173,640,304.5,"""","""","""","""","""","""","""","""","2021-10-05 05:05:35",142.114.88.160,"Mozilla/5.0 (Windows NT 10.0; Win64; x64) AppleWebKit/537.36 (KHTML, like Gecko) Chrome/93.0.4577.63 Safari/537.36",WebKit,Chrome,93.0.4577.63,Windows,10.0,fe3c1d035a65c549f7011c5446f73ede
31,1,767,arrowright,psychophysics,121,248465,0.0-3.0-0.58,"""",key,arrowright,16.66251111111099,640,304.5,59,3,-1,23,35,25,35,false,"2021-10-05 05:05:35",142.114.88.160,"Mozilla/5.0 (Windows NT 10.0; Win64; x64) AppleWebKit/537.36 (KHTML, like Gecko) Chrome/93.0.4577.63 Safari/537.36",WebKit,Chrome,93.0.4577.63,Windows,10.0,fe3c1d035a65c549f7011c5446f73ede
31,1,null,null,psychophysics,122,249470,0.0-3.0-1.58,"""",key,null,16.66299999999998,640,304.5,"""","""","""","""","""","""","""","""","2021-10-05 05:05:35",142.114.88.160,"Mozilla/5.0 (Windows NT 10.0; Win64; x64) AppleWebKit/537.36 (KHTML, like Gecko) Chrome/93.0.4577.63 Safari/537.36",WebKit,Chrome,93.0.4577.63,Windows,10.0,fe3c1d035a65c549f7011c5446f73ede
31,1,550.1999998092651,arrowleft,psychophysics,123,250046,0.0-3.0-0.59,"""",key,arrowleft,16.672727272727627,640,304.5,60,3,1,23,35,25,35,false,"2021-10-05 05:05:35",142.114.88.160,"Mozilla/5.0 (Windows NT 10.0; Win64; x64) AppleWebKit/537.36 (KHTML, like Gecko) Chrome/93.0.4577.63 Safari/537.36",WebKit,Chrome,93.0.4577.63,Windows,10.0,fe3c1d035a65c549f7011c5446f73ede
31,1,null,null,psychophysics,124,251051,0.0-3.0-1.59,"""",key,null,16.66532203389807,640,304.5,"""","""","""","""","""","""","""","""","2021-10-05 05:05:35",142.114.88.160,"Mozilla/5.0 (Windows NT 10.0; Win64; x64) AppleWebKit/537.36 (KHTML, like Gecko) Chrome/93.0.4577.63 Safari/537.36",WebKit,Chrome,93.0.4577.63,Windows,10.0,fe3c1d035a65c549f7011c5446f73ede
31,1,627.8000001907349,arrowleft,psychophysics,125,251698,0.0-3.0-0.60,"""",key,arrowleft,16.664184210526354,640,304.5,61,3,-1,27,15,25,35,true,"2021-10-05 05:05:35",142.114.88.160,"Mozilla/5.0 (Windows NT 10.0; Win64; x64) AppleWebKit/537.36 (KHTML, like Gecko) Chrome/93.0.4577.63 Safari/537.36",WebKit,Chrome,93.0.4577.63,Windows,10.0,fe3c1d035a65c549f7011c5446f73ede
31,1,null,null,psychophysics,126,252702,0.0-3.0-1.60,"""",key,null,16.660233333333355,640,304.5,"""","""","""","""","""","""","""","""","2021-10-05 05:05:35",142.114.88.160,"Mozilla/5.0 (Windows NT 10.0; Win64; x64) AppleWebKit/537.36 (KHTML, like Gecko) Chrome/93.0.4577.63 Safari/537.36",WebKit,Chrome,93.0.4577.63,Windows,10.0,fe3c1d035a65c549f7011c5446f73ede
31,1,990.6999998092651,arrowright,psychophysics,127,253698,0.0-3.0-0.61,"""",key,arrowright,16.665241379310388,640,304.5,62,3,1,26,15,25,35,true,"2021-10-05 05:05:35",142.114.88.160,"Mozilla/5.0 (Windows NT 10.0; Win64; x64) AppleWebKit/537.36 (KHTML, like Gecko) Chrome/93.0.4577.63 Safari/537.36",WebKit,Chrome,93.0.4577.63,Windows,10.0,fe3c1d035a65c549f7011c5446f73ede
31,1,null,null,psychophysics,128,254701,0.0-3.0-1.61,"""",key,null,16.66636666666697,640,304.5,"""","""","""","""","""","""","""","""","2021-10-05 05:05:35",142.114.88.160,"Mozilla/5.0 (Windows NT 10.0; Win64; x64) AppleWebKit/537.36 (KHTML, like Gecko) Chrome/93.0.4577.63 Safari/537.36",WebKit,Chrome,93.0.4577.63,Windows,10.0,fe3c1d035a65c549f7011c5446f73ede
31,1,482.19999980926514,arrowleft,psychophysics,129,255190,0.0-3.0-0.62,"""",key,arrowleft,16.665250000000274,640,304.5,63,3,1,20,35,25,35,false,"2021-10-05 05:05:35",142.114.88.160,"Mozilla/5.0 (Windows NT 10.0; Win64; x64) AppleWebKit/537.36 (KHTML, like Gecko) Chrome/93.0.4577.63 Safari/537.36",WebKit,Chrome,93.0.4577.63,Windows,10.0,fe3c1d035a65c549f7011c5446f73ede
31,1,null,null,psychophysics,130,256199,0.0-3.0-1.62,"""",key,null,16.663186440677915,640,304.5,"""","""","""","""","""","""","""","""","2021-10-05 05:05:35",142.114.88.160,"Mozilla/5.0 (Windows NT 10.0; Win64; x64) AppleWebKit/537.36 (KHTML, like Gecko) Chrome/93.0.4577.63 Safari/537.36",WebKit,Chrome,93.0.4577.63,Windows,10.0,fe3c1d035a65c549f7011c5446f73ede
31,1,4899.10000038147,arrowright,psychophysics,131,261110,0.0-3.0-0.63,"""",key,arrowright,16.662374149659904,640,304.5,64,3,1,23,15,25,35,true,"2021-10-05 05:05:35",142.114.88.160,"Mozilla/5.0 (Windows NT 10.0; Win64; x64) AppleWebKit/537.36 (KHTML, like Gecko) Chrome/93.0.4577.63 Safari/537.36",WebKit,Chrome,93.0.4577.63,Windows,10.0,fe3c1d035a65c549f7011c5446f73ede
31,1,null,null,psychophysics,132,262123,0.0-3.0-1.63,"""",key,null,16.667533333333754,640,304.5,"""","""","""","""","""","""","""","""","2021-10-05 05:05:35",142.114.88.160,"Mozilla/5.0 (Windows NT 10.0; Win64; x64) AppleWebKit/537.36 (KHTML, like Gecko) Chrome/93.0.4577.63 Safari/537.36",WebKit,Chrome,93.0.4577.63,Windows,10.0,fe3c1d035a65c549f7011c5446f73ede
31,1,811.1000003814697,arrowleft,psychophysics,133,262940,0.0-3.0-0.64,"""",key,arrowleft,16.660083333333507,640,304.5,65,3,-1,27,35,25,35,true,"2021-10-05 05:05:35",142.114.88.160,"Mozilla/5.0 (Windows NT 10.0; Win64; x64) AppleWebKit/537.36 (KHTML, like Gecko) Chrome/93.0.4577.63 Safari/537.36",WebKit,Chrome,93.0.4577.63,Windows,10.0,fe3c1d035a65c549f7011c5446f73ede
31,1,null,null,psychophysics,134,263943,0.0-3.0-1.64,"""",key,null,16.663576271186653,640,304.5,"""","""","""","""","""","""","""","""","2021-10-05 05:05:35",142.114.88.160,"Mozilla/5.0 (Windows NT 10.0; Win64; x64) AppleWebKit/537.36 (KHTML, like Gecko) Chrome/93.0.4577.63 Safari/537.36",WebKit,Chrome,93.0.4577.63,Windows,10.0,fe3c1d035a65c549f7011c5446f73ede
31,1,643.6000003814697,arrowright,psychophysics,135,264602,0.0-3.0-0.65,"""",key,arrowright,16.667615384615672,640,304.5,66,3,1,25,15,25,35,true,"2021-10-05 05:05:35",142.114.88.160,"Mozilla/5.0 (Windows NT 10.0; Win64; x64) AppleWebKit/537.36 (KHTML, like Gecko) Chrome/93.0.4577.63 Safari/537.36",WebKit,Chrome,93.0.4577.63,Windows,10.0,fe3c1d035a65c549f7011c5446f73ede
31,1,null,null,psychophysics,136,265608,0.0-3.0-1.65,"""",key,null,16.664542372882075,640,304.5,"""","""","""","""","""","""","""","""","2021-10-05 05:05:35",142.114.88.160,"Mozilla/5.0 (Windows NT 10.0; Win64; x64) AppleWebKit/537.36 (KHTML, like Gecko) Chrome/93.0.4577.63 Safari/537.36",WebKit,Chrome,93.0.4577.63,Windows,10.0,fe3c1d035a65c549f7011c5446f73ede
31,1,529.1999998092651,arrowright,psychophysics,137,266151,0.0-3.0-0.66,"""",key,arrowright,16.662687500000175,640,304.5,67,3,1,30,15,25,35,true,"2021-10-05 05:05:35",142.114.88.160,"Mozilla/5.0 (Windows NT 10.0; Win64; x64) AppleWebKit/537.36 (KHTML, like Gecko) Chrome/93.0.4577.63 Safari/537.36",WebKit,Chrome,93.0.4577.63,Windows,10.0,fe3c1d035a65c549f7011c5446f73ede
31,1,null,null,psychophysics,138,267158,0.0-3.0-1.66,"""",key,null,16.66389830508447,640,304.5,"""","""","""","""","""","""","""","""","2021-10-05 05:05:35",142.114.88.160,"Mozilla/5.0 (Windows NT 10.0; Win64; x64) AppleWebKit/537.36 (KHTML, like Gecko) Chrome/93.0.4577.63 Safari/537.36",WebKit,Chrome,93.0.4577.63,Windows,10.0,fe3c1d035a65c549f7011c5446f73ede
31,1,569.6999998092651,arrowleft,psychophysics,139,267753,0.0-3.0-0.67,"""",key,arrowleft,16.66608571428473,640,304.5,68,3,-1,20,15,25,35,true,"2021-10-05 05:05:35",142.114.88.160,"Mozilla/5.0 (Windows NT 10.0; Win64; x64) AppleWebKit/537.36 (KHTML, like Gecko) Chrome/93.0.4577.63 Safari/537.36",WebKit,Chrome,93.0.4577.63,Windows,10.0,fe3c1d035a65c549f7011c5446f73ede
31,1,null,null,psychophysics,140,268757,0.0-3.0-1.67,"""",key,null,16.66411864406812,640,304.5,"""","""","""","""","""","""","""","""","2021-10-05 05:05:35",142.114.88.160,"Mozilla/5.0 (Windows NT 10.0; Win64; x64) AppleWebKit/537.36 (KHTML, like Gecko) Chrome/93.0.4577.63 Safari/537.36",WebKit,Chrome,93.0.4577.63,Windows,10.0,fe3c1d035a65c549f7011c5446f73ede
31,1,585.6000003814697,arrowright,psychophysics,141,269350,0.0-3.0-0.68,"""",key,arrowright,16.669771428570883,640,304.5,69,3,1,30,35,25,35,true,"2021-10-05 05:05:35",142.114.88.160,"Mozilla/5.0 (Windows NT 10.0; Win64; x64) AppleWebKit/537.36 (KHTML, like Gecko) Chrome/93.0.4577.63 Safari/537.36",WebKit,Chrome,93.0.4577.63,Windows,10.0,fe3c1d035a65c549f7011c5446f73ede
31,1,null,null,psychophysics,142,270359,0.0-3.0-1.68,"""",key,null,16.664559322034435,640,304.5,"""","""","""","""","""","""","""","""","2021-10-05 05:05:35",142.114.88.160,"Mozilla/5.0 (Windows NT 10.0; Win64; x64) AppleWebKit/537.36 (KHTML, like Gecko) Chrome/93.0.4577.63 Safari/537.36",WebKit,Chrome,93.0.4577.63,Windows,10.0,fe3c1d035a65c549f7011c5446f73ede
31,1,809.1000003814697,arrowleft,psychophysics,143,271183,0.0-3.0-0.69,"""",key,arrowleft,16.66053061224449,640,304.5,70,3,-1,24,15,25,35,true,"2021-10-05 05:05:35",142.114.88.160,"Mozilla/5.0 (Windows NT 10.0; Win64; x64) AppleWebKit/537.36 (KHTML, like Gecko) Chrome/93.0.4577.63 Safari/537.36",WebKit,Chrome,93.0.4577.63,Windows,10.0,fe3c1d035a65c549f7011c5446f73ede
31,1,null,null,psychophysics,144,272189,0.0-3.0-1.69,"""",key,null,16.664474576271644,640,304.5,"""","""","""","""","""","""","""","""","2021-10-05 05:05:35",142.114.88.160,"Mozilla/5.0 (Windows NT 10.0; Win64; x64) AppleWebKit/537.36 (KHTML, like Gecko) Chrome/93.0.4577.63 Safari/537.36",WebKit,Chrome,93.0.4577.63,Windows,10.0,fe3c1d035a65c549f7011c5446f73ede
31,1,474,arrowright,psychophysics,145,272676,0.0-3.0-0.70,"""",key,arrowright,16.672607142856577,640,304.5,71,3,1,27,15,25,35,true,"2021-10-05 05:05:35",142.114.88.160,"Mozilla/5.0 (Windows NT 10.0; Win64; x64) AppleWebKit/537.36 (KHTML, like Gecko) Chrome/93.0.4577.63 Safari/537.36",WebKit,Chrome,93.0.4577.63,Windows,10.0,fe3c1d035a65c549f7011c5446f73ede
31,1,null,null,psychophysics,146,273712,0.0-3.0-1.70,"""",key,null,16.943900000000333,640,304.5,"""","""","""","""","""","""","""","""","2021-10-05 05:05:35",142.114.88.160,"Mozilla/5.0 (Windows NT 10.0; Win64; x64) AppleWebKit/537.36 (KHTML, like Gecko) Chrome/93.0.4577.63 Safari/537.36",WebKit,Chrome,93.0.4577.63,Windows,10.0,fe3c1d035a65c549f7011c5446f73ede
31,1,512.8999996185303,arrowleft,psychophysics,147,274232,0.0-3.0-0.71,"""",key,arrowleft,16.654903225805384,640,304.5,72,3,-1,26,15,25,35,true,"2021-10-05 05:05:35",142.114.88.160,"Mozilla/5.0 (Windows NT 10.0; Win64; x64) AppleWebKit/537.36 (KHTML, like Gecko) Chrome/93.0.4577.63 Safari/537.36",WebKit,Chrome,93.0.4577.63,Windows,10.0,fe3c1d035a65c549f7011c5446f73ede
31,1,null,null,psychophysics,148,275239,0.0-3.0-1.71,"""",key,null,16.664016949151982,640,304.5,"""","""","""","""","""","""","""","""","2021-10-05 05:05:35",142.114.88.160,"Mozilla/5.0 (Windows NT 10.0; Win64; x64) AppleWebKit/537.36 (KHTML, like Gecko) Chrome/93.0.4577.63 Safari/537.36",WebKit,Chrome,93.0.4577.63,Windows,10.0,fe3c1d035a65c549f7011c5446f73ede
31,1,617.8999996185303,arrowright,psychophysics,149,275865,0.0-3.0-0.72,"""",key,arrowright,16.66391891891898,640,304.5,73,3,1,30,35,25,35,true,"2021-10-05 05:05:35",142.114.88.160,"Mozilla/5.0 (Windows NT 10.0; Win64; x64) AppleWebKit/537.36 (KHTML, like Gecko) Chrome/93.0.4577.63 Safari/537.36",WebKit,Chrome,93.0.4577.63,Windows,10.0,fe3c1d035a65c549f7011c5446f73ede
31,1,null,null,psychophysics,150,276871,0.0-3.0-1.72,"""",key,null,16.66471186440667,640,304.5,"""","""","""","""","""","""","""","""","2021-10-05 05:05:35",142.114.88.160,"Mozilla/5.0 (Windows NT 10.0; Win64; x64) AppleWebKit/537.36 (KHTML, like Gecko) Chrome/93.0.4577.63 Safari/537.36",WebKit,Chrome,93.0.4577.63,Windows,10.0,fe3c1d035a65c549f7011c5446f73ede
31,1,614.1000003814697,arrowleft,psychophysics,151,277491,0.0-3.0-0.73,"""",key,arrowleft,16.66999999999987,640,304.5,74,3,1,24,35,25,35,false,"2021-10-05 05:05:35",142.114.88.160,"Mozilla/5.0 (Windows NT 10.0; Win64; x64) AppleWebKit/537.36 (KHTML, like Gecko) Chrome/93.0.4577.63 Safari/537.36",WebKit,Chrome,93.0.4577.63,Windows,10.0,fe3c1d035a65c549f7011c5446f73ede
31,1,null,null,psychophysics,152,278496,0.0-3.0-1.73,"""",key,null,16.666616666666233,640,304.5,"""","""","""","""","""","""","""","""","2021-10-05 05:05:35",142.114.88.160,"Mozilla/5.0 (Windows NT 10.0; Win64; x64) AppleWebKit/537.36 (KHTML, like Gecko) Chrome/93.0.4577.63 Safari/537.36",WebKit,Chrome,93.0.4577.63,Windows,10.0,fe3c1d035a65c549f7011c5446f73ede
31,1,1950.6999998092651,arrowright,psychophysics,153,280463,0.0-3.0-0.74,"""",key,arrowright,16.66311111111138,640,304.5,75,3,1,27,15,25,35,true,"2021-10-05 05:05:35",142.114.88.160,"Mozilla/5.0 (Windows NT 10.0; Win64; x64) AppleWebKit/537.36 (KHTML, like Gecko) Chrome/93.0.4577.63 Safari/537.36",WebKit,Chrome,93.0.4577.63,Windows,10.0,fe3c1d035a65c549f7011c5446f73ede
31,1,null,null,psychophysics,154,281470,0.0-3.0-1.74,"""",key,null,16.661389830508426,640,304.5,"""","""","""","""","""","""","""","""","2021-10-05 05:05:35",142.114.88.160,"Mozilla/5.0 (Windows NT 10.0; Win64; x64) AppleWebKit/537.36 (KHTML, like Gecko) Chrome/93.0.4577.63 Safari/537.36",WebKit,Chrome,93.0.4577.63,Windows,10.0,fe3c1d035a65c549f7011c5446f73ede
31,1,1072.3000001907349,arrowright,psychophysics,155,282548,0.0-3.0-0.75,"""",key,arrowright,16.66443749999962,640,304.5,76,3,-1,26,35,25,35,false,"2021-10-05 05:05:35",142.114.88.160,"Mozilla/5.0 (Windows NT 10.0; Win64; x64) AppleWebKit/537.36 (KHTML, like Gecko) Chrome/93.0.4577.63 Safari/537.36",WebKit,Chrome,93.0.4577.63,Windows,10.0,fe3c1d035a65c549f7011c5446f73ede
31,1,null,null,psychophysics,156,283553,0.0-3.0-1.75,"""",key,null,16.660338983050217,640,304.5,"""","""","""","""","""","""","""","""","2021-10-05 05:05:35",142.114.88.160,"Mozilla/5.0 (Windows NT 10.0; Win64; x64) AppleWebKit/537.36 (KHTML, like Gecko) Chrome/93.0.4577.63 Safari/537.36",WebKit,Chrome,93.0.4577.63,Windows,10.0,fe3c1d035a65c549f7011c5446f73ede
31,1,700.6999998092651,arrowleft,psychophysics,157,284263,0.0-3.0-0.76,"""",key,arrowleft,16.66221428571485,640,304.5,77,3,-1,23,15,25,35,true,"2021-10-05 05:05:35",142.114.88.160,"Mozilla/5.0 (Windows NT 10.0; Win64; x64) AppleWebKit/537.36 (KHTML, like Gecko) Chrome/93.0.4577.63 Safari/537.36",WebKit,Chrome,93.0.4577.63,Windows,10.0,fe3c1d035a65c549f7011c5446f73ede
31,1,null,null,psychophysics,158,285275,0.0-3.0-1.76,"""",key,null,16.66501694915311,640,304.5,"""","""","""","""","""","""","""","""","2021-10-05 05:05:35",142.114.88.160,"Mozilla/5.0 (Windows NT 10.0; Win64; x64) AppleWebKit/537.36 (KHTML, like Gecko) Chrome/93.0.4577.63 Safari/537.36",WebKit,Chrome,93.0.4577.63,Windows,10.0,fe3c1d035a65c549f7011c5446f73ede
31,1,929.9000005722046,arrowright,psychophysics,159,286214,0.0-3.0-0.77,"""",key,arrowright,16.662107142856776,640,304.5,78,3,1,20,35,25,35,true,"2021-10-05 05:05:35",142.114.88.160,"Mozilla/5.0 (Windows NT 10.0; Win64; x64) AppleWebKit/537.36 (KHTML, like Gecko) Chrome/93.0.4577.63 Safari/537.36",WebKit,Chrome,93.0.4577.63,Windows,10.0,fe3c1d035a65c549f7011c5446f73ede
31,1,null,null,psychophysics,160,287220,0.0-3.0-1.77,"""",key,null,16.660135593219913,640,304.5,"""","""","""","""","""","""","""","""","2021-10-05 05:05:35",142.114.88.160,"Mozilla/5.0 (Windows NT 10.0; Win64; x64) AppleWebKit/537.36 (KHTML, like Gecko) Chrome/93.0.4577.63 Safari/537.36",WebKit,Chrome,93.0.4577.63,Windows,10.0,fe3c1d035a65c549f7011c5446f73ede
31,1,727.1000003814697,arrowleft,psychophysics,161,287962,0.0-3.0-0.78,"""",key,arrowleft,16.664363636364047,640,304.5,79,3,1,20,35,25,35,false,"2021-10-05 05:05:35",142.114.88.160,"Mozilla/5.0 (Windows NT 10.0; Win64; x64) AppleWebKit/537.36 (KHTML, like Gecko) Chrome/93.0.4577.63 Safari/537.36",WebKit,Chrome,93.0.4577.63,Windows,10.0,fe3c1d035a65c549f7011c5446f73ede
31,1,null,null,psychophysics,162,288970,0.0-3.0-1.78,"""",key,null,16.66394915254254,640,304.5,"""","""","""","""","""","""","""","""","2021-10-05 05:05:35",142.114.88.160,"Mozilla/5.0 (Windows NT 10.0; Win64; x64) AppleWebKit/537.36 (KHTML, like Gecko) Chrome/93.0.4577.63 Safari/537.36",WebKit,Chrome,93.0.4577.63,Windows,10.0,fe3c1d035a65c549f7011c5446f73ede
31,1,513.7999992370605,arrowright,psychophysics,163,289496,0.0-3.0-0.79,"""",key,arrowright,16.658225806452513,640,304.5,80,3,1,30,15,25,35,true,"2021-10-05 05:05:35",142.114.88.160,"Mozilla/5.0 (Windows NT 10.0; Win64; x64) AppleWebKit/537.36 (KHTML, like Gecko) Chrome/93.0.4577.63 Safari/537.36",WebKit,Chrome,93.0.4577.63,Windows,10.0,fe3c1d035a65c549f7011c5446f73ede
31,1,null,null,psychophysics,164,290503,0.0-3.0-1.79,"""",key,null,16.66789830508504,640,304.5,"""","""","""","""","""","""","""","""","2021-10-05 05:05:35",142.114.88.160,"Mozilla/5.0 (Windows NT 10.0; Win64; x64) AppleWebKit/537.36 (KHTML, like Gecko) Chrome/93.0.4577.63 Safari/537.36",WebKit,Chrome,93.0.4577.63,Windows,10.0,fe3c1d035a65c549f7011c5446f73ede
31,1,612.3000001907349,arrowleft,psychophysics,165,291137,0.0-3.0-0.80,"""",key,arrowleft,16.66962162162196,640,304.5,81,3,-1,25,15,25,35,true,"2021-10-05 05:05:35",142.114.88.160,"Mozilla/5.0 (Windows NT 10.0; Win64; x64) AppleWebKit/537.36 (KHTML, like Gecko) Chrome/93.0.4577.63 Safari/537.36",WebKit,Chrome,93.0.4577.63,Windows,10.0,fe3c1d035a65c549f7011c5446f73ede
31,1,null,null,psychophysics,166,292141,0.0-3.0-1.80,"""",key,null,16.66254237288179,640,304.5,"""","""","""","""","""","""","""","""","2021-10-05 05:05:35",142.114.88.160,"Mozilla/5.0 (Windows NT 10.0; Win64; x64) AppleWebKit/537.36 (KHTML, like Gecko) Chrome/93.0.4577.63 Safari/537.36",WebKit,Chrome,93.0.4577.63,Windows,10.0,fe3c1d035a65c549f7011c5446f73ede
31,1,588,arrowright,psychophysics,167,292739,0.0-3.0-0.81,"""",key,arrowright,16.6639428571432,640,304.5,82,3,1,26,35,25,35,true,"2021-10-05 05:05:35",142.114.88.160,"Mozilla/5.0 (Windows NT 10.0; Win64; x64) AppleWebKit/537.36 (KHTML, like Gecko) Chrome/93.0.4577.63 Safari/537.36",WebKit,Chrome,93.0.4577.63,Windows,10.0,fe3c1d035a65c549f7011c5446f73ede
31,1,null,null,psychophysics,168,293744,0.0-3.0-1.81,"""",key,null,16.66754999999927,640,304.5,"""","""","""","""","""","""","""","""","2021-10-05 05:05:35",142.114.88.160,"Mozilla/5.0 (Windows NT 10.0; Win64; x64) AppleWebKit/537.36 (KHTML, like Gecko) Chrome/93.0.4577.63 Safari/537.36",WebKit,Chrome,93.0.4577.63,Windows,10.0,fe3c1d035a65c549f7011c5446f73ede
31,1,834.4000005722046,arrowleft,psychophysics,169,294585,0.0-3.0-0.82,"""",key,arrowleft,16.660877551021034,640,304.5,83,3,1,20,35,25,35,false,"2021-10-05 05:05:35",142.114.88.160,"Mozilla/5.0 (Windows NT 10.0; Win64; x64) AppleWebKit/537.36 (KHTML, like Gecko) Chrome/93.0.4577.63 Safari/537.36",WebKit,Chrome,93.0.4577.63,Windows,10.0,fe3c1d035a65c549f7011c5446f73ede
31,1,null,null,psychophysics,170,295590,0.0-3.0-1.82,"""",key,null,16.667491525423443,640,304.5,"""","""","""","""","""","""","""","""","2021-10-05 05:05:35",142.114.88.160,"Mozilla/5.0 (Windows NT 10.0; Win64; x64) AppleWebKit/537.36 (KHTML, like Gecko) Chrome/93.0.4577.63 Safari/537.36",WebKit,Chrome,93.0.4577.63,Windows,10.0,fe3c1d035a65c549f7011c5446f73ede
31,1,707.5999994277954,arrowright,psychophysics,171,296308,0.0-3.0-0.83,"""",key,arrowright,16.658302325580735,640,304.5,84,4,1,23,15,25,35,true,"2021-10-05 05:05:35",142.114.88.160,"Mozilla/5.0 (Windows NT 10.0; Win64; x64) AppleWebKit/537.36 (KHTML, like Gecko) Chrome/93.0.4577.63 Safari/537.36",WebKit,Chrome,93.0.4577.63,Windows,10.0,fe3c1d035a65c549f7011c5446f73ede
31,1,null,null,psychophysics,172,297322,0.0-3.0-1.83,"""",key,null,16.667474576271083,640,304.5,"""","""","""","""","""","""","""","""","2021-10-05 05:05:35",142.114.88.160,"Mozilla/5.0 (Windows NT 10.0; Win64; x64) AppleWebKit/537.36 (KHTML, like Gecko) Chrome/93.0.4577.63 Safari/537.36",WebKit,Chrome,93.0.4577.63,Windows,10.0,fe3c1d035a65c549f7011c5446f73ede
31,1,9053.39999961853," ",html-keyboard-response,173,306379,0.0-3.0-2.83-0.83,"<div style=""color: white; text-align: center; vertical-align: top; display: inline-block; width: 800px; margin: auto""><p>You have completed 30% of the trials. You are on block 4 of 10. <br>Good job! Take a break if you need to.</p><p>Press any key to continue the experiment.</p></div>","""","""","""","""","""","""","""","""","""","""","""","""","""","2021-10-05 05:05:35",142.114.88.160,"Mozilla/5.0 (Windows NT 10.0; Win64; x64) AppleWebKit/537.36 (KHTML, like Gecko) Chrome/93.0.4577.63 Safari/537.36",WebKit,Chrome,93.0.4577.63,Windows,10.0,fe3c1d035a65c549f7011c5446f73ede
31,1,813.1999998092651,arrowleft,psychophysics,174,308215,0.0-3.0-0.84,"""",key,arrowleft,16.65991836734715,640,304.5,85,4,-1,23,15,25,35,true,"2021-10-05 05:05:35",142.114.88.160,"Mozilla/5.0 (Windows NT 10.0; Win64; x64) AppleWebKit/537.36 (KHTML, like Gecko) Chrome/93.0.4577.63 Safari/537.36",WebKit,Chrome,93.0.4577.63,Windows,10.0,fe3c1d035a65c549f7011c5446f73ede
31,1,null,null,psychophysics,175,309219,0.0-3.0-1.84,"""",key,null,16.666101694915056,640,304.5,"""","""","""","""","""","""","""","""","2021-10-05 05:05:35",142.114.88.160,"Mozilla/5.0 (Windows NT 10.0; Win64; x64) AppleWebKit/537.36 (KHTML, like Gecko) Chrome/93.0.4577.63 Safari/537.36",WebKit,Chrome,93.0.4577.63,Windows,10.0,fe3c1d035a65c549f7011c5446f73ede
31,1,671.5,arrowright,psychophysics,176,309902,0.0-3.0-0.85,"""",key,arrowright,16.66899999999878,640,304.5,86,4,-1,24,35,25,35,false,"2021-10-05 05:05:35",142.114.88.160,"Mozilla/5.0 (Windows NT 10.0; Win64; x64) AppleWebKit/537.36 (KHTML, like Gecko) Chrome/93.0.4577.63 Safari/537.36",WebKit,Chrome,93.0.4577.63,Windows,10.0,fe3c1d035a65c549f7011c5446f73ede
31,1,null,null,psychophysics,177,310913,0.0-3.0-1.85,"""",key,null,16.66739999999991,640,304.5,"""","""","""","""","""","""","""","""","2021-10-05 05:05:35",142.114.88.160,"Mozilla/5.0 (Windows NT 10.0; Win64; x64) AppleWebKit/537.36 (KHTML, like Gecko) Chrome/93.0.4577.63 Safari/537.36",WebKit,Chrome,93.0.4577.63,Windows,10.0,fe3c1d035a65c549f7011c5446f73ede
31,1,548.6000003814697,arrowleft,psychophysics,178,311468,0.0-3.0-0.86,"""",key,arrowleft,16.67084375000013,640,304.5,87,4,-1,24,35,25,35,true,"2021-10-05 05:05:35",142.114.88.160,"Mozilla/5.0 (Windows NT 10.0; Win64; x64) AppleWebKit/537.36 (KHTML, like Gecko) Chrome/93.0.4577.63 Safari/537.36",WebKit,Chrome,93.0.4577.63,Windows,10.0,fe3c1d035a65c549f7011c5446f73ede
31,1,null,null,psychophysics,179,312479,0.0-3.0-1.86,"""",key,null,16.666533333332822,640,304.5,"""","""","""","""","""","""","""","""","2021-10-05 05:05:35",142.114.88.160,"Mozilla/5.0 (Windows NT 10.0; Win64; x64) AppleWebKit/537.36 (KHTML, like Gecko) Chrome/93.0.4577.63 Safari/537.36",WebKit,Chrome,93.0.4577.63,Windows,10.0,fe3c1d035a65c549f7011c5446f73ede
31,1,507.30000019073486,arrowleft,psychophysics,180,313006,0.0-3.0-0.87,"""",key,arrowleft,16.670064516130818,640,304.5,88,4,-1,30,15,25,35,true,"2021-10-05 05:05:35",142.114.88.160,"Mozilla/5.0 (Windows NT 10.0; Win64; x64) AppleWebKit/537.36 (KHTML, like Gecko) Chrome/93.0.4577.63 Safari/537.36",WebKit,Chrome,93.0.4577.63,Windows,10.0,fe3c1d035a65c549f7011c5446f73ede
31,1,null,null,psychophysics,181,314012,0.0-3.0-1.87,"""",key,null,16.661203389830487,640,304.5,"""","""","""","""","""","""","""","""","2021-10-05 05:05:35",142.114.88.160,"Mozilla/5.0 (Windows NT 10.0; Win64; x64) AppleWebKit/537.36 (KHTML, like Gecko) Chrome/93.0.4577.63 Safari/537.36",WebKit,Chrome,93.0.4577.63,Windows,10.0,fe3c1d035a65c549f7011c5446f73ede
31,1,685.9000005722046,arrowleft,psychophysics,182,314710,0.0-3.0-0.88,"""",key,arrowleft,16.66956097561094,640,304.5,89,4,-1,24,15,25,35,true,"2021-10-05 05:05:35",142.114.88.160,"Mozilla/5.0 (Windows NT 10.0; Win64; x64) AppleWebKit/537.36 (KHTML, like Gecko) Chrome/93.0.4577.63 Safari/537.36",WebKit,Chrome,93.0.4577.63,Windows,10.0,fe3c1d035a65c549f7011c5446f73ede
31,1,null,null,psychophysics,183,315718,0.0-3.0-1.88,"""",key,null,16.66074576271181,640,304.5,"""","""","""","""","""","""","""","""","2021-10-05 05:05:35",142.114.88.160,"Mozilla/5.0 (Windows NT 10.0; Win64; x64) AppleWebKit/537.36 (KHTML, like Gecko) Chrome/93.0.4577.63 Safari/537.36",WebKit,Chrome,93.0.4577.63,Windows,10.0,fe3c1d035a65c549f7011c5446f73ede
31,1,760.5,arrowright,psychophysics,184,316489,0.0-3.0-0.89,"""",key,arrowright,16.657282608695347,640,304.5,90,4,1,23,35,25,35,true,"2021-10-05 05:05:35",142.114.88.160,"Mozilla/5.0 (Windows NT 10.0; Win64; x64) AppleWebKit/537.36 (KHTML, like Gecko) Chrome/93.0.4577.63 Safari/537.36",WebKit,Chrome,93.0.4577.63,Windows,10.0,fe3c1d035a65c549f7011c5446f73ede
31,1,null,null,psychophysics,185,317496,0.0-3.0-1.89,"""",key,null,16.66561016949166,640,304.5,"""","""","""","""","""","""","""","""","2021-10-05 05:05:35",142.114.88.160,"Mozilla/5.0 (Windows NT 10.0; Win64; x64) AppleWebKit/537.36 (KHTML, like Gecko) Chrome/93.0.4577.63 Safari/537.36",WebKit,Chrome,93.0.4577.63,Windows,10.0,fe3c1d035a65c549f7011c5446f73ede
31,1,791.3999996185303,arrowleft,psychophysics,186,318298,0.0-3.0-0.90,"""",key,arrowleft,16.667893617021345,640,304.5,91,4,1,24,35,25,35,false,"2021-10-05 05:05:35",142.114.88.160,"Mozilla/5.0 (Windows NT 10.0; Win64; x64) AppleWebKit/537.36 (KHTML, like Gecko) Chrome/93.0.4577.63 Safari/537.36",WebKit,Chrome,93.0.4577.63,Windows,10.0,fe3c1d035a65c549f7011c5446f73ede
31,1,null,null,psychophysics,187,319317,0.0-3.0-1.90,"""",key,null,16.666849999999975,640,304.5,"""","""","""","""","""","""","""","""","2021-10-05 05:05:35",142.114.88.160,"Mozilla/5.0 (Windows NT 10.0; Win64; x64) AppleWebKit/537.36 (KHTML, like Gecko) Chrome/93.0.4577.63 Safari/537.36",WebKit,Chrome,93.0.4577.63,Windows,10.0,fe3c1d035a65c549f7011c5446f73ede
31,1,521.0999994277954,arrowleft,psychophysics,188,319848,0.0-3.0-0.91,"""",key,arrowleft,16.66858064516207,640,304.5,92,4,-1,25,15,25,35,true,"2021-10-05 05:05:35",142.114.88.160,"Mozilla/5.0 (Windows NT 10.0; Win64; x64) AppleWebKit/537.36 (KHTML, like Gecko) Chrome/93.0.4577.63 Safari/537.36",WebKit,Chrome,93.0.4577.63,Windows,10.0,fe3c1d035a65c549f7011c5446f73ede
31,1,null,null,psychophysics,189,320852,0.0-3.0-1.91,"""",key,null,16.66535000000052,640,304.5,"""","""","""","""","""","""","""","""","2021-10-05 05:05:35",142.114.88.160,"Mozilla/5.0 (Windows NT 10.0; Win64; x64) AppleWebKit/537.36 (KHTML, like Gecko) Chrome/93.0.4577.63 Safari/537.36",WebKit,Chrome,93.0.4577.63,Windows,10.0,fe3c1d035a65c549f7011c5446f73ede
31,1,706.5,arrowleft,psychophysics,190,321565,0.0-3.0-0.92,"""",key,arrowleft,16.663536585366252,640,304.5,93,4,-1,30,15,25,35,true,"2021-10-05 05:05:35",142.114.88.160,"Mozilla/5.0 (Windows NT 10.0; Win64; x64) AppleWebKit/537.36 (KHTML, like Gecko) Chrome/93.0.4577.63 Safari/537.36",WebKit,Chrome,93.0.4577.63,Windows,10.0,fe3c1d035a65c549f7011c5446f73ede
31,1,null,null,psychophysics,191,322569,0.0-3.0-1.92,"""",key,null,16.668316666666456,640,304.5,"""","""","""","""","""","""","""","""","2021-10-05 05:05:35",142.114.88.160,"Mozilla/5.0 (Windows NT 10.0; Win64; x64) AppleWebKit/537.36 (KHTML, like Gecko) Chrome/93.0.4577.63 Safari/537.36",WebKit,Chrome,93.0.4577.63,Windows,10.0,fe3c1d035a65c549f7011c5446f73ede
31,1,1961.1999998092651,arrowright,psychophysics,192,324537,0.0-3.0-0.93,"""",key,arrowright,16.661017094016906,640,304.5,94,4,1,26,35,25,35,true,"2021-10-05 05:05:35",142.114.88.160,"Mozilla/5.0 (Windows NT 10.0; Win64; x64) AppleWebKit/537.36 (KHTML, like Gecko) Chrome/93.0.4577.63 Safari/537.36",WebKit,Chrome,93.0.4577.63,Windows,10.0,fe3c1d035a65c549f7011c5446f73ede
31,1,null,null,psychophysics,193,325559,0.0-3.0-1.93,"""",key,null,16.66571666666714,640,304.5,"""","""","""","""","""","""","""","""","2021-10-05 05:05:35",142.114.88.160,"Mozilla/5.0 (Windows NT 10.0; Win64; x64) AppleWebKit/537.36 (KHTML, like Gecko) Chrome/93.0.4577.63 Safari/537.36",WebKit,Chrome,93.0.4577.63,Windows,10.0,fe3c1d035a65c549f7011c5446f73ede
31,1,872.8999996185303,arrowleft,psychophysics,194,326439,0.0-3.0-0.94,"""",key,arrowleft,16.66244230769203,640,304.5,95,4,-1,30,35,25,35,true,"2021-10-05 05:05:35",142.114.88.160,"Mozilla/5.0 (Windows NT 10.0; Win64; x64) AppleWebKit/537.36 (KHTML, like Gecko) Chrome/93.0.4577.63 Safari/537.36",WebKit,Chrome,93.0.4577.63,Windows,10.0,fe3c1d035a65c549f7011c5446f73ede
31,1,null,null,psychophysics,195,327442,0.0-3.0-1.94,"""",key,null,16.666881355931547,640,304.5,"""","""","""","""","""","""","""","""","2021-10-05 05:05:35",142.114.88.160,"Mozilla/5.0 (Windows NT 10.0; Win64; x64) AppleWebKit/537.36 (KHTML, like Gecko) Chrome/93.0.4577.63 Safari/537.36",WebKit,Chrome,93.0.4577.63,Windows,10.0,fe3c1d035a65c549f7011c5446f73ede
31,1,1720.3000001907349,arrowleft,psychophysics,196,329169,0.0-3.0-0.95,"""",key,arrowleft,16.662650485437148,640,304.5,96,4,1,23,35,25,35,false,"2021-10-05 05:05:35",142.114.88.160,"Mozilla/5.0 (Windows NT 10.0; Win64; x64) AppleWebKit/537.36 (KHTML, like Gecko) Chrome/93.0.4577.63 Safari/537.36",WebKit,Chrome,93.0.4577.63,Windows,10.0,fe3c1d035a65c549f7011c5446f73ede
31,1,null,null,psychophysics,197,330173,0.0-3.0-1.95,"""",key,null,16.668152542372425,640,304.5,"""","""","""","""","""","""","""","""","2021-10-05 05:05:35",142.114.88.160,"Mozilla/5.0 (Windows NT 10.0; Win64; x64) AppleWebKit/537.36 (KHTML, like Gecko) Chrome/93.0.4577.63 Safari/537.36",WebKit,Chrome,93.0.4577.63,Windows,10.0,fe3c1d035a65c549f7011c5446f73ede
31,1,1929.5,arrowright,psychophysics,198,332117,0.0-3.0-0.96,"""",key,arrowright,16.665387931034463,640,304.5,97,4,1,23,15,25,35,true,"2021-10-05 05:05:35",142.114.88.160,"Mozilla/5.0 (Windows NT 10.0; Win64; x64) AppleWebKit/537.36 (KHTML, like Gecko) Chrome/93.0.4577.63 Safari/537.36",WebKit,Chrome,93.0.4577.63,Windows,10.0,fe3c1d035a65c549f7011c5446f73ede
31,1,null,null,psychophysics,199,333124,0.0-3.0-1.96,"""",key,null,16.663389830507725,640,304.5,"""","""","""","""","""","""","""","""","2021-10-05 05:05:35",142.114.88.160,"Mozilla/5.0 (Windows NT 10.0; Win64; x64) AppleWebKit/537.36 (KHTML, like Gecko) Chrome/93.0.4577.63 Safari/537.36",WebKit,Chrome,93.0.4577.63,Windows,10.0,fe3c1d035a65c549f7011c5446f73ede
31,1,1777,arrowright,psychophysics,200,334908,0.0-3.0-0.97,"""",key,arrowright,16.661688679245515,640,304.5,98,4,-1,23,35,25,35,false,"2021-10-05 05:05:35",142.114.88.160,"Mozilla/5.0 (Windows NT 10.0; Win64; x64) AppleWebKit/537.36 (KHTML, like Gecko) Chrome/93.0.4577.63 Safari/537.36",WebKit,Chrome,93.0.4577.63,Windows,10.0,fe3c1d035a65c549f7011c5446f73ede
31,1,null,null,psychophysics,201,335913,0.0-3.0-1.97,"""",key,null,16.66632203389871,640,304.5,"""","""","""","""","""","""","""","""","2021-10-05 05:05:35",142.114.88.160,"Mozilla/5.0 (Windows NT 10.0; Win64; x64) AppleWebKit/537.36 (KHTML, like Gecko) Chrome/93.0.4577.63 Safari/537.36",WebKit,Chrome,93.0.4577.63,Windows,10.0,fe3c1d035a65c549f7011c5446f73ede
31,1,4289.10000038147,arrowright,psychophysics,202,340218,0.0-3.0-0.98,"""",key,arrowright,16.662077519379814,640,304.5,99,4,-1,20,35,25,35,false,"2021-10-05 05:05:35",142.114.88.160,"Mozilla/5.0 (Windows NT 10.0; Win64; x64) AppleWebKit/537.36 (KHTML, like Gecko) Chrome/93.0.4577.63 Safari/537.36",WebKit,Chrome,93.0.4577.63,Windows,10.0,fe3c1d035a65c549f7011c5446f73ede
31,1,null,null,psychophysics,203,341229,0.0-3.0-1.98,"""",key,null,16.661830508473756,640,304.5,"""","""","""","""","""","""","""","""","2021-10-05 05:05:35",142.114.88.160,"Mozilla/5.0 (Windows NT 10.0; Win64; x64) AppleWebKit/537.36 (KHTML, like Gecko) Chrome/93.0.4577.63 Safari/537.36",WebKit,Chrome,93.0.4577.63,Windows,10.0,fe3c1d035a65c549f7011c5446f73ede
31,1,6682.60000038147,arrowleft,psychophysics,204,347949,0.0-3.0-0.99,"""",key,arrowleft,16.704059701492554,640,304.5,100,4,1,25,35,25,35,false,"2021-10-05 05:05:35",142.114.88.160,"Mozilla/5.0 (Windows NT 10.0; Win64; x64) AppleWebKit/537.36 (KHTML, like Gecko) Chrome/93.0.4577.63 Safari/537.36",WebKit,Chrome,93.0.4577.63,Windows,10.0,fe3c1d035a65c549f7011c5446f73ede
31,1,null,null,psychophysics,205,348970,0.0-3.0-1.99,"""",key,null,16.666149999999714,640,304.5,"""","""","""","""","""","""","""","""","2021-10-05 05:05:35",142.114.88.160,"Mozilla/5.0 (Windows NT 10.0; Win64; x64) AppleWebKit/537.36 (KHTML, like Gecko) Chrome/93.0.4577.63 Safari/537.36",WebKit,Chrome,93.0.4577.63,Windows,10.0,fe3c1d035a65c549f7011c5446f73ede
31,1,949.1999998092651,arrowleft,psychophysics,206,349926,0.0-3.0-0.100,"""",key,arrowleft,16.663392857142235,640,304.5,101,4,-1,30,35,25,35,true,"2021-10-05 05:05:35",142.114.88.160,"Mozilla/5.0 (Windows NT 10.0; Win64; x64) AppleWebKit/537.36 (KHTML, like Gecko) Chrome/93.0.4577.63 Safari/537.36",WebKit,Chrome,93.0.4577.63,Windows,10.0,fe3c1d035a65c549f7011c5446f73ede
31,1,null,null,psychophysics,207,350931,0.0-3.0-1.100,"""",key,null,16.661283333333753,640,304.5,"""","""","""","""","""","""","""","""","2021-10-05 05:05:35",142.114.88.160,"Mozilla/5.0 (Windows NT 10.0; Win64; x64) AppleWebKit/537.36 (KHTML, like Gecko) Chrome/93.0.4577.63 Safari/537.36",WebKit,Chrome,93.0.4577.63,Windows,10.0,fe3c1d035a65c549f7011c5446f73ede
31,1,1179.3999996185303,arrowleft,psychophysics,208,352117,0.0-3.0-0.101,"""",key,arrowleft,16.665542857142697,640,304.5,102,4,-1,27,15,25,35,true,"2021-10-05 05:05:35",142.114.88.160,"Mozilla/5.0 (Windows NT 10.0; Win64; x64) AppleWebKit/537.36 (KHTML, like Gecko) Chrome/93.0.4577.63 Safari/537.36",WebKit,Chrome,93.0.4577.63,Windows,10.0,fe3c1d035a65c549f7011c5446f73ede
31,1,null,null,psychophysics,209,353126,0.0-3.0-1.101,"""",key,null,16.662457627119,640,304.5,"""","""","""","""","""","""","""","""","2021-10-05 05:05:35",142.114.88.160,"Mozilla/5.0 (Windows NT 10.0; Win64; x64) AppleWebKit/537.36 (KHTML, like Gecko) Chrome/93.0.4577.63 Safari/537.36",WebKit,Chrome,93.0.4577.63,Windows,10.0,fe3c1d035a65c549f7011c5446f73ede
31,1,1029.6999998092651,arrowleft,psychophysics,210,354165,0.0-3.0-0.102,"""",key,arrowleft,16.659919354838372,640,304.5,103,4,-1,27,15,25,35,true,"2021-10-05 05:05:35",142.114.88.160,"Mozilla/5.0 (Windows NT 10.0; Win64; x64) AppleWebKit/537.36 (KHTML, like Gecko) Chrome/93.0.4577.63 Safari/537.36",WebKit,Chrome,93.0.4577.63,Windows,10.0,fe3c1d035a65c549f7011c5446f73ede
31,1,null,null,psychophysics,211,355186,0.0-3.0-1.102,"""",key,null,16.661916666666123,640,304.5,"""","""","""","""","""","""","""","""","2021-10-05 05:05:35",142.114.88.160,"Mozilla/5.0 (Windows NT 10.0; Win64; x64) AppleWebKit/537.36 (KHTML, like Gecko) Chrome/93.0.4577.63 Safari/537.36",WebKit,Chrome,93.0.4577.63,Windows,10.0,fe3c1d035a65c549f7011c5446f73ede
31,1,5892.199999809265,arrowright,psychophysics,212,361091,0.0-3.0-0.103,"""",key,arrowright,16.662671388101845,640,304.5,104,4,-1,20,15,25,35,false,"2021-10-05 05:05:35",142.114.88.160,"Mozilla/5.0 (Windows NT 10.0; Win64; x64) AppleWebKit/537.36 (KHTML, like Gecko) Chrome/93.0.4577.63 Safari/537.36",WebKit,Chrome,93.0.4577.63,Windows,10.0,fe3c1d035a65c549f7011c5446f73ede
31,1,null,null,psychophysics,213,362106,0.0-3.0-1.103,"""",key,null,16.662250000000736,640,304.5,"""","""","""","""","""","""","""","""","2021-10-05 05:05:35",142.114.88.160,"Mozilla/5.0 (Windows NT 10.0; Win64; x64) AppleWebKit/537.36 (KHTML, like Gecko) Chrome/93.0.4577.63 Safari/537.36",WebKit,Chrome,93.0.4577.63,Windows,10.0,fe3c1d035a65c549f7011c5446f73ede
31,1,1631,arrowleft,psychophysics,214,363749,0.0-3.0-0.104,"""",key,arrowleft,16.662489795918358,640,304.5,105,4,1,25,15,25,35,false,"2021-10-05 05:05:35",142.114.88.160,"Mozilla/5.0 (Windows NT 10.0; Win64; x64) AppleWebKit/537.36 (KHTML, like Gecko) Chrome/93.0.4577.63 Safari/537.36",WebKit,Chrome,93.0.4577.63,Windows,10.0,fe3c1d035a65c549f7011c5446f73ede
31,1,null,null,psychophysics,215,364756,0.0-3.0-1.104,"""",key,null,16.666135593219778,640,304.5,"""","""","""","""","""","""","""","""","2021-10-05 05:05:35",142.114.88.160,"Mozilla/5.0 (Windows NT 10.0; Win64; x64) AppleWebKit/537.36 (KHTML, like Gecko) Chrome/93.0.4577.63 Safari/537.36",WebKit,Chrome,93.0.4577.63,Windows,10.0,fe3c1d035a65c549f7011c5446f73ede
31,1,755.1999998092651,arrowright,psychophysics,216,365524,0.0-3.0-0.105,"""",key,arrowright,16.663622222221196,640,304.5,106,4,1,30,15,25,35,true,"2021-10-05 05:05:35",142.114.88.160,"Mozilla/5.0 (Windows NT 10.0; Win64; x64) AppleWebKit/537.36 (KHTML, like Gecko) Chrome/93.0.4577.63 Safari/537.36",WebKit,Chrome,93.0.4577.63,Windows,10.0,fe3c1d035a65c549f7011c5446f73ede
31,1,null,null,psychophysics,217,366536,0.0-3.0-1.105,"""",key,null,16.659166666666472,640,304.5,"""","""","""","""","""","""","""","""","2021-10-05 05:05:35",142.114.88.160,"Mozilla/5.0 (Windows NT 10.0; Win64; x64) AppleWebKit/537.36 (KHTML, like Gecko) Chrome/93.0.4577.63 Safari/537.36",WebKit,Chrome,93.0.4577.63,Windows,10.0,fe3c1d035a65c549f7011c5446f73ede
31,1,1126.6999998092651,arrowleft,psychophysics,218,367675,0.0-3.0-0.106,"""",key,arrowleft,16.66266176470569,640,304.5,107,4,-1,26,15,25,35,true,"2021-10-05 05:05:35",142.114.88.160,"Mozilla/5.0 (Windows NT 10.0; Win64; x64) AppleWebKit/537.36 (KHTML, like Gecko) Chrome/93.0.4577.63 Safari/537.36",WebKit,Chrome,93.0.4577.63,Windows,10.0,fe3c1d035a65c549f7011c5446f73ede
31,1,null,null,psychophysics,219,368692,0.0-3.0-1.106,"""",key,null,16.66195000000007,640,304.5,"""","""","""","""","""","""","""","""","2021-10-05 05:05:35",142.114.88.160,"Mozilla/5.0 (Windows NT 10.0; Win64; x64) AppleWebKit/537.36 (KHTML, like Gecko) Chrome/93.0.4577.63 Safari/537.36",WebKit,Chrome,93.0.4577.63,Windows,10.0,fe3c1d035a65c549f7011c5446f73ede
31,1,760.8999996185303,arrowright,psychophysics,220,369460,0.0-3.0-0.107,"""",key,arrowright,16.6643999999997,640,304.5,108,4,1,30,35,25,35,true,"2021-10-05 05:05:35",142.114.88.160,"Mozilla/5.0 (Windows NT 10.0; Win64; x64) AppleWebKit/537.36 (KHTML, like Gecko) Chrome/93.0.4577.63 Safari/537.36",WebKit,Chrome,93.0.4577.63,Windows,10.0,fe3c1d035a65c549f7011c5446f73ede
31,1,null,null,psychophysics,221,370468,0.0-3.0-1.107,"""",key,null,16.66166101694916,640,304.5,"""","""","""","""","""","""","""","""","2021-10-05 05:05:35",142.114.88.160,"Mozilla/5.0 (Windows NT 10.0; Win64; x64) AppleWebKit/537.36 (KHTML, like Gecko) Chrome/93.0.4577.63 Safari/537.36",WebKit,Chrome,93.0.4577.63,Windows,10.0,fe3c1d035a65c549f7011c5446f73ede
31,1,562.1999998092651,arrowleft,psychophysics,222,371041,0.0-3.0-0.108,"""",key,arrowleft,16.663176470588525,640,304.5,109,4,1,23,15,25,35,false,"2021-10-05 05:05:35",142.114.88.160,"Mozilla/5.0 (Windows NT 10.0; Win64; x64) AppleWebKit/537.36 (KHTML, like Gecko) Chrome/93.0.4577.63 Safari/537.36",WebKit,Chrome,93.0.4577.63,Windows,10.0,fe3c1d035a65c549f7011c5446f73ede
31,1,null,null,psychophysics,223,372049,0.0-3.0-1.108,"""",key,null,16.659966101695318,640,304.5,"""","""","""","""","""","""","""","""","2021-10-05 05:05:35",142.114.88.160,"Mozilla/5.0 (Windows NT 10.0; Win64; x64) AppleWebKit/537.36 (KHTML, like Gecko) Chrome/93.0.4577.63 Safari/537.36",WebKit,Chrome,93.0.4577.63,Windows,10.0,fe3c1d035a65c549f7011c5446f73ede
31,1,584.1000003814697,arrowright,psychophysics,224,372641,0.0-3.0-0.109,"""",key,arrowright,16.660800000000744,640,304.5,110,4,-1,20,15,25,35,false,"2021-10-05 05:05:35",142.114.88.160,"Mozilla/5.0 (Windows NT 10.0; Win64; x64) AppleWebKit/537.36 (KHTML, like Gecko) Chrome/93.0.4577.63 Safari/537.36",WebKit,Chrome,93.0.4577.63,Windows,10.0,fe3c1d035a65c549f7011c5446f73ede
31,1,null,null,psychophysics,225,373647,0.0-3.0-1.109,"""",key,null,16.666661016948883,640,304.5,"""","""","""","""","""","""","""","""","2021-10-05 05:05:35",142.114.88.160,"Mozilla/5.0 (Windows NT 10.0; Win64; x64) AppleWebKit/537.36 (KHTML, like Gecko) Chrome/93.0.4577.63 Safari/537.36",WebKit,Chrome,93.0.4577.63,Windows,10.0,fe3c1d035a65c549f7011c5446f73ede
31,1,534.5,arrowleft,psychophysics,226,374203,0.0-3.0-0.110,"""",key,arrowleft,16.67090624999946,640,304.5,111,4,-1,30,15,25,35,true,"2021-10-05 05:05:35",142.114.88.160,"Mozilla/5.0 (Windows NT 10.0; Win64; x64) AppleWebKit/537.36 (KHTML, like Gecko) Chrome/93.0.4577.63 Safari/537.36",WebKit,Chrome,93.0.4577.63,Windows,10.0,fe3c1d035a65c549f7011c5446f73ede
31,1,null,null,psychophysics,227,375214,0.0-3.0-1.110,"""",key,null,16.663566666666885,640,304.5,"""","""","""","""","""","""","""","""","2021-10-05 05:05:35",142.114.88.160,"Mozilla/5.0 (Windows NT 10.0; Win64; x64) AppleWebKit/537.36 (KHTML, like Gecko) Chrome/93.0.4577.63 Safari/537.36",WebKit,Chrome,93.0.4577.63,Windows,10.0,fe3c1d035a65c549f7011c5446f73ede
31,1,612.3999996185303,arrowright,psychophysics,228,375832,0.0-3.0-0.111,"""",key,arrowright,16.656777777776977,640,304.5,112,5,-1,23,35,25,35,false,"2021-10-05 05:05:35",142.114.88.160,"Mozilla/5.0 (Windows NT 10.0; Win64; x64) AppleWebKit/537.36 (KHTML, like Gecko) Chrome/93.0.4577.63 Safari/537.36",WebKit,Chrome,93.0.4577.63,Windows,10.0,fe3c1d035a65c549f7011c5446f73ede
31,1,null,null,psychophysics,229,376837,0.0-3.0-1.111,"""",key,null,16.66662711864416,640,304.5,"""","""","""","""","""","""","""","""","2021-10-05 05:05:35",142.114.88.160,"Mozilla/5.0 (Windows NT 10.0; Win64; x64) AppleWebKit/537.36 (KHTML, like Gecko) Chrome/93.0.4577.63 Safari/537.36",WebKit,Chrome,93.0.4577.63,Windows,10.0,fe3c1d035a65c549f7011c5446f73ede
31,1,915.1000003814697,arrowleft,html-keyboard-response,230,377755,0.0-3.0-2.111-0.111,"<div style=""color: white; text-align: center; vertical-align: top; display: inline-block; width: 800px; margin: auto""><p>You have completed 40% of the trials. You are on block 5 of 10. <br>Good job! Take a break if you need to.</p><p>Press any key to continue the experiment.</p></div>","""","""","""","""","""","""","""","""","""","""","""","""","""","2021-10-05 05:05:35",142.114.88.160,"Mozilla/5.0 (Windows NT 10.0; Win64; x64) AppleWebKit/537.36 (KHTML, like Gecko) Chrome/93.0.4577.63 Safari/537.36",WebKit,Chrome,93.0.4577.63,Windows,10.0,fe3c1d035a65c549f7011c5446f73ede
31,1,1333.4000005722046,arrowleft,psychophysics,231,380105,0.0-3.0-0.112,"""",key,arrowleft,16.65917283950595,640,304.5,113,5,1,25,35,25,35,false,"2021-10-05 05:05:35",142.114.88.160,"Mozilla/5.0 (Windows NT 10.0; Win64; x64) AppleWebKit/537.36 (KHTML, like Gecko) Chrome/93.0.4577.63 Safari/537.36",WebKit,Chrome,93.0.4577.63,Windows,10.0,fe3c1d035a65c549f7011c5446f73ede
31,1,null,null,psychophysics,232,381119,0.0-3.0-1.112,"""",key,null,16.667271186440782,640,304.5,"""","""","""","""","""","""","""","""","2021-10-05 05:05:35",142.114.88.160,"Mozilla/5.0 (Windows NT 10.0; Win64; x64) AppleWebKit/537.36 (KHTML, like Gecko) Chrome/93.0.4577.63 Safari/537.36",WebKit,Chrome,93.0.4577.63,Windows,10.0,fe3c1d035a65c549f7011c5446f73ede
31,1,519.3000001907349,arrowleft,psychophysics,233,381648,0.0-3.0-0.113,"""",key,arrowleft,16.661354838708988,640,304.5,114,5,-1,30,15,25,35,true,"2021-10-05 05:05:35",142.114.88.160,"Mozilla/5.0 (Windows NT 10.0; Win64; x64) AppleWebKit/537.36 (KHTML, like Gecko) Chrome/93.0.4577.63 Safari/537.36",WebKit,Chrome,93.0.4577.63,Windows,10.0,fe3c1d035a65c549f7011c5446f73ede
31,1,null,null,psychophysics,234,382652,0.0-3.0-1.113,"""",key,null,16.666949152541978,640,304.5,"""","""","""","""","""","""","""","""","2021-10-05 05:05:35",142.114.88.160,"Mozilla/5.0 (Windows NT 10.0; Win64; x64) AppleWebKit/537.36 (KHTML, like Gecko) Chrome/93.0.4577.63 Safari/537.36",WebKit,Chrome,93.0.4577.63,Windows,10.0,fe3c1d035a65c549f7011c5446f73ede
31,1,1346.5999994277954,arrowleft,psychophysics,235,384009,0.0-3.0-0.114,"""",key,arrowleft,16.661271604938566,640,304.5,115,5,1,20,15,25,35,false,"2021-10-05 05:05:35",142.114.88.160,"Mozilla/5.0 (Windows NT 10.0; Win64; x64) AppleWebKit/537.36 (KHTML, like Gecko) Chrome/93.0.4577.63 Safari/537.36",WebKit,Chrome,93.0.4577.63,Windows,10.0,fe3c1d035a65c549f7011c5446f73ede
31,1,null,null,psychophysics,236,385018,0.0-3.0-1.114,"""",key,null,16.66008474576283,640,304.5,"""","""","""","""","""","""","""","""","2021-10-05 05:05:35",142.114.88.160,"Mozilla/5.0 (Windows NT 10.0; Win64; x64) AppleWebKit/537.36 (KHTML, like Gecko) Chrome/93.0.4577.63 Safari/537.36",WebKit,Chrome,93.0.4577.63,Windows,10.0,fe3c1d035a65c549f7011c5446f73ede
31,1,795.3000001907349,arrowleft,psychophysics,237,385825,0.0-3.0-0.115,"""",key,arrowleft,16.662604166666522,640,304.5,116,5,-1,23,15,25,35,true,"2021-10-05 05:05:35",142.114.88.160,"Mozilla/5.0 (Windows NT 10.0; Win64; x64) AppleWebKit/537.36 (KHTML, like Gecko) Chrome/93.0.4577.63 Safari/537.36",WebKit,Chrome,93.0.4577.63,Windows,10.0,fe3c1d035a65c549f7011c5446f73ede
31,1,null,null,psychophysics,238,386846,0.0-3.0-1.115,"""",key,null,16.663166666667287,640,304.5,"""","""","""","""","""","""","""","""","2021-10-05 05:05:35",142.114.88.160,"Mozilla/5.0 (Windows NT 10.0; Win64; x64) AppleWebKit/537.36 (KHTML, like Gecko) Chrome/93.0.4577.63 Safari/537.36",WebKit,Chrome,93.0.4577.63,Windows,10.0,fe3c1d035a65c549f7011c5446f73ede
31,1,721.6999998092651,arrowright,psychophysics,239,387580,0.0-3.0-0.116,"""",key,arrowright,16.664232558138984,640,304.5,117,5,1,24,15,25,35,true,"2021-10-05 05:05:35",142.114.88.160,"Mozilla/5.0 (Windows NT 10.0; Win64; x64) AppleWebKit/537.36 (KHTML, like Gecko) Chrome/93.0.4577.63 Safari/537.36",WebKit,Chrome,93.0.4577.63,Windows,10.0,fe3c1d035a65c549f7011c5446f73ede
31,1,null,null,psychophysics,240,388584,0.0-3.0-1.116,"""",key,null,16.665406779661357,640,304.5,"""","""","""","""","""","""","""","""","2021-10-05 05:05:35",142.114.88.160,"Mozilla/5.0 (Windows NT 10.0; Win64; x64) AppleWebKit/537.36 (KHTML, like Gecko) Chrome/93.0.4577.63 Safari/537.36",WebKit,Chrome,93.0.4577.63,Windows,10.0,fe3c1d035a65c549f7011c5446f73ede
31,1,590.1000003814697,arrowright,psychophysics,241,389184,0.0-3.0-0.117,"""",key,arrowright,16.66020000000052,640,304.5,118,5,-1,20,15,25,35,false,"2021-10-05 05:05:35",142.114.88.160,"Mozilla/5.0 (Windows NT 10.0; Win64; x64) AppleWebKit/537.36 (KHTML, like Gecko) Chrome/93.0.4577.63 Safari/537.36",WebKit,Chrome,93.0.4577.63,Windows,10.0,fe3c1d035a65c549f7011c5446f73ede
31,1,null,null,psychophysics,242,390195,0.0-3.0-1.117,"""",key,null,16.66085000000021,640,304.5,"""","""","""","""","""","""","""","""","2021-10-05 05:05:35",142.114.88.160,"Mozilla/5.0 (Windows NT 10.0; Win64; x64) AppleWebKit/537.36 (KHTML, like Gecko) Chrome/93.0.4577.63 Safari/537.36",WebKit,Chrome,93.0.4577.63,Windows,10.0,fe3c1d035a65c549f7011c5446f73ede
31,1,595.7999992370605,arrowleft,psychophysics,243,390803,0.0-3.0-0.118,"""",key,arrowleft,16.66280555555487,640,304.5,119,5,1,23,35,25,35,false,"2021-10-05 05:05:35",142.114.88.160,"Mozilla/5.0 (Windows NT 10.0; Win64; x64) AppleWebKit/537.36 (KHTML, like Gecko) Chrome/93.0.4577.63 Safari/537.36",WebKit,Chrome,93.0.4577.63,Windows,10.0,fe3c1d035a65c549f7011c5446f73ede
31,1,null,null,psychophysics,244,391812,0.0-3.0-1.118,"""",key,null,16.66650847457665,640,304.5,"""","""","""","""","""","""","""","""","2021-10-05 05:05:35",142.114.88.160,"Mozilla/5.0 (Windows NT 10.0; Win64; x64) AppleWebKit/537.36 (KHTML, like Gecko) Chrome/93.0.4577.63 Safari/537.36",WebKit,Chrome,93.0.4577.63,Windows,10.0,fe3c1d035a65c549f7011c5446f73ede
31,1,667.7000007629395,arrowright,psychophysics,245,392507,0.0-3.0-0.119,"""",key,arrowright,16.66795121951216,640,304.5,120,5,1,26,15,25,35,true,"2021-10-05 05:05:35",142.114.88.160,"Mozilla/5.0 (Windows NT 10.0; Win64; x64) AppleWebKit/537.36 (KHTML, like Gecko) Chrome/93.0.4577.63 Safari/537.36",WebKit,Chrome,93.0.4577.63,Windows,10.0,fe3c1d035a65c549f7011c5446f73ede
31,1,null,null,psychophysics,246,393516,0.0-3.0-1.119,"""",key,null,16.660576271187214,640,304.5,"""","""","""","""","""","""","""","""","2021-10-05 05:05:35",142.114.88.160,"Mozilla/5.0 (Windows NT 10.0; Win64; x64) AppleWebKit/537.36 (KHTML, like Gecko) Chrome/93.0.4577.63 Safari/537.36",WebKit,Chrome,93.0.4577.63,Windows,10.0,fe3c1d035a65c549f7011c5446f73ede
31,1,700.9000005722046,arrowright,psychophysics,247,394253,0.0-3.0-0.120,"""",key,arrowright,17.04383720930254,640,304.5,121,5,1,27,15,25,35,true,"2021-10-05 05:05:35",142.114.88.160,"Mozilla/5.0 (Windows NT 10.0; Win64; x64) AppleWebKit/537.36 (KHTML, like Gecko) Chrome/93.0.4577.63 Safari/537.36",WebKit,Chrome,93.0.4577.63,Windows,10.0,fe3c1d035a65c549f7011c5446f73ede
31,1,null,null,psychophysics,248,395259,0.0-3.0-1.120,"""",key,null,16.66494915254268,640,304.5,"""","""","""","""","""","""","""","""","2021-10-05 05:05:35",142.114.88.160,"Mozilla/5.0 (Windows NT 10.0; Win64; x64) AppleWebKit/537.36 (KHTML, like Gecko) Chrome/93.0.4577.63 Safari/537.36",WebKit,Chrome,93.0.4577.63,Windows,10.0,fe3c1d035a65c549f7011c5446f73ede
31,1,670.6000003814697,arrowleft,psychophysics,249,395936,0.0-3.0-0.121,"""",key,arrowleft,16.660349999999745,640,304.5,122,5,-1,27,35,25,35,true,"2021-10-05 05:05:35",142.114.88.160,"Mozilla/5.0 (Windows NT 10.0; Win64; x64) AppleWebKit/537.36 (KHTML, like Gecko) Chrome/93.0.4577.63 Safari/537.36",WebKit,Chrome,93.0.4577.63,Windows,10.0,fe3c1d035a65c549f7011c5446f73ede
31,1,null,null,psychophysics,250,396942,0.0-3.0-1.121,"""",key,null,16.663372881355365,640,304.5,"""","""","""","""","""","""","""","""","2021-10-05 05:05:35",142.114.88.160,"Mozilla/5.0 (Windows NT 10.0; Win64; x64) AppleWebKit/537.36 (KHTML, like Gecko) Chrome/93.0.4577.63 Safari/537.36",WebKit,Chrome,93.0.4577.63,Windows,10.0,fe3c1d035a65c549f7011c5446f73ede
31,1,683.2999992370605,arrowright,psychophysics,251,397632,0.0-3.0-0.122,"""",key,arrowright,16.6695000000007,640,304.5,123,5,-1,20,35,25,35,false,"2021-10-05 05:05:35",142.114.88.160,"Mozilla/5.0 (Windows NT 10.0; Win64; x64) AppleWebKit/537.36 (KHTML, like Gecko) Chrome/93.0.4577.63 Safari/537.36",WebKit,Chrome,93.0.4577.63,Windows,10.0,fe3c1d035a65c549f7011c5446f73ede
31,1,null,null,psychophysics,252,398648,0.0-3.0-1.122,"""",key,null,16.664750000000154,640,304.5,"""","""","""","""","""","""","""","""","2021-10-05 05:05:35",142.114.88.160,"Mozilla/5.0 (Windows NT 10.0; Win64; x64) AppleWebKit/537.36 (KHTML, like Gecko) Chrome/93.0.4577.63 Safari/537.36",WebKit,Chrome,93.0.4577.63,Windows,10.0,fe3c1d035a65c549f7011c5446f73ede
31,1,649,arrowright,psychophysics,253,399308,0.0-3.0-0.123,"""",key,arrowright,16.666717948717398,640,304.5,124,5,1,30,15,25,35,true,"2021-10-05 05:05:35",142.114.88.160,"Mozilla/5.0 (Windows NT 10.0; Win64; x64) AppleWebKit/537.36 (KHTML, like Gecko) Chrome/93.0.4577.63 Safari/537.36",WebKit,Chrome,93.0.4577.63,Windows,10.0,fe3c1d035a65c549f7011c5446f73ede
31,1,null,null,psychophysics,254,400315,0.0-3.0-1.123,"""",key,null,16.66472881355903,640,304.5,"""","""","""","""","""","""","""","""","2021-10-05 05:05:35",142.114.88.160,"Mozilla/5.0 (Windows NT 10.0; Win64; x64) AppleWebKit/537.36 (KHTML, like Gecko) Chrome/93.0.4577.63 Safari/537.36",WebKit,Chrome,93.0.4577.63,Windows,10.0,fe3c1d035a65c549f7011c5446f73ede
31,1,892.6999998092651,arrowleft,psychophysics,255,401218,0.0-3.0-0.124,"""",key,arrowleft,16.661925925926038,640,304.5,125,5,1,20,15,25,35,false,"2021-10-05 05:05:35",142.114.88.160,"Mozilla/5.0 (Windows NT 10.0; Win64; x64) AppleWebKit/537.36 (KHTML, like Gecko) Chrome/93.0.4577.63 Safari/537.36",WebKit,Chrome,93.0.4577.63,Windows,10.0,fe3c1d035a65c549f7011c5446f73ede
31,1,null,null,psychophysics,256,402225,0.0-3.0-1.124,"""",key,null,16.66388135593211,640,304.5,"""","""","""","""","""","""","""","""","2021-10-05 05:05:35",142.114.88.160,"Mozilla/5.0 (Windows NT 10.0; Win64; x64) AppleWebKit/537.36 (KHTML, like Gecko) Chrome/93.0.4577.63 Safari/537.36",WebKit,Chrome,93.0.4577.63,Windows,10.0,fe3c1d035a65c549f7011c5446f73ede
31,1,841.1999998092651,arrowleft,psychophysics,257,403072,0.0-3.0-0.125,"""",key,arrowleft,16.6675,640,304.5,126,5,-1,30,35,25,35,true,"2021-10-05 05:05:35",142.114.88.160,"Mozilla/5.0 (Windows NT 10.0; Win64; x64) AppleWebKit/537.36 (KHTML, like Gecko) Chrome/93.0.4577.63 Safari/537.36",WebKit,Chrome,93.0.4577.63,Windows,10.0,fe3c1d035a65c549f7011c5446f73ede
31,1,null,null,psychophysics,258,404080,0.0-3.0-1.125,"""",key,null,16.660779661017518,640,304.5,"""","""","""","""","""","""","""","""","2021-10-05 05:05:35",142.114.88.160,"Mozilla/5.0 (Windows NT 10.0; Win64; x64) AppleWebKit/537.36 (KHTML, like Gecko) Chrome/93.0.4577.63 Safari/537.36",WebKit,Chrome,93.0.4577.63,Windows,10.0,fe3c1d035a65c549f7011c5446f73ede
31,1,1571.6999998092651,arrowright,psychophysics,259,405677,0.0-3.0-0.126,"""",key,arrowright,16.6637263157889,640,304.5,127,5,-1,24,35,25,35,false,"2021-10-05 05:05:35",142.114.88.160,"Mozilla/5.0 (Windows NT 10.0; Win64; x64) AppleWebKit/537.36 (KHTML, like Gecko) Chrome/93.0.4577.63 Safari/537.36",WebKit,Chrome,93.0.4577.63,Windows,10.0,fe3c1d035a65c549f7011c5446f73ede
31,1,null,null,psychophysics,260,406681,0.0-3.0-1.126,"""",key,null,16.662483333333512,640,304.5,"""","""","""","""","""","""","""","""","2021-10-05 05:05:35",142.114.88.160,"Mozilla/5.0 (Windows NT 10.0; Win64; x64) AppleWebKit/537.36 (KHTML, like Gecko) Chrome/93.0.4577.63 Safari/537.36",WebKit,Chrome,93.0.4577.63,Windows,10.0,fe3c1d035a65c549f7011c5446f73ede
31,1,799.6999998092651,arrowleft,psychophysics,261,407487,0.0-3.0-0.127,"""",key,arrowleft,16.66127659574503,640,304.5,128,5,-1,24,15,25,35,true,"2021-10-05 05:05:35",142.114.88.160,"Mozilla/5.0 (Windows NT 10.0; Win64; x64) AppleWebKit/537.36 (KHTML, like Gecko) Chrome/93.0.4577.63 Safari/537.36",WebKit,Chrome,93.0.4577.63,Windows,10.0,fe3c1d035a65c549f7011c5446f73ede
31,1,null,null,psychophysics,262,408492,0.0-3.0-1.127,"""",key,null,16.66464406779624,640,304.5,"""","""","""","""","""","""","""","""","2021-10-05 05:05:35",142.114.88.160,"Mozilla/5.0 (Windows NT 10.0; Win64; x64) AppleWebKit/537.36 (KHTML, like Gecko) Chrome/93.0.4577.63 Safari/537.36",WebKit,Chrome,93.0.4577.63,Windows,10.0,fe3c1d035a65c549f7011c5446f73ede
31,1,783.1000003814697,arrowright,psychophysics,263,409287,0.0-3.0-0.128,"""",key,arrowright,16.659468085106283,640,304.5,129,5,1,27,35,25,35,true,"2021-10-05 05:05:35",142.114.88.160,"Mozilla/5.0 (Windows NT 10.0; Win64; x64) AppleWebKit/537.36 (KHTML, like Gecko) Chrome/93.0.4577.63 Safari/537.36",WebKit,Chrome,93.0.4577.63,Windows,10.0,fe3c1d035a65c549f7011c5446f73ede
31,1,null,null,psychophysics,264,410295,0.0-3.0-1.128,"""",key,null,16.665847457626686,640,304.5,"""","""","""","""","""","""","""","""","2021-10-05 05:05:35",142.114.88.160,"Mozilla/5.0 (Windows NT 10.0; Win64; x64) AppleWebKit/537.36 (KHTML, like Gecko) Chrome/93.0.4577.63 Safari/537.36",WebKit,Chrome,93.0.4577.63,Windows,10.0,fe3c1d035a65c549f7011c5446f73ede
31,1,879.3999996185303,arrowright,psychophysics,265,411200,0.0-3.0-0.129,"""",key,arrowright,16.660518518518614,640,304.5,130,5,1,30,35,25,35,true,"2021-10-05 05:05:35",142.114.88.160,"Mozilla/5.0 (Windows NT 10.0; Win64; x64) AppleWebKit/537.36 (KHTML, like Gecko) Chrome/93.0.4577.63 Safari/537.36",WebKit,Chrome,93.0.4577.63,Windows,10.0,fe3c1d035a65c549f7011c5446f73ede
31,1,null,null,psychophysics,266,412205,0.0-3.0-1.129,"""",key,null,16.665440677966078,640,304.5,"""","""","""","""","""","""","""","""","2021-10-05 05:05:35",142.114.88.160,"Mozilla/5.0 (Windows NT 10.0; Win64; x64) AppleWebKit/537.36 (KHTML, like Gecko) Chrome/93.0.4577.63 Safari/537.36",WebKit,Chrome,93.0.4577.63,Windows,10.0,fe3c1d035a65c549f7011c5446f73ede
31,1,1735.5999994277954,arrowright,psychophysics,267,413954,0.0-3.0-0.130,"""",key,arrowright,16.66354807692327,640,304.5,131,5,1,26,35,25,35,true,"2021-10-05 05:05:35",142.114.88.160,"Mozilla/5.0 (Windows NT 10.0; Win64; x64) AppleWebKit/537.36 (KHTML, like Gecko) Chrome/93.0.4577.63 Safari/537.36",WebKit,Chrome,93.0.4577.63,Windows,10.0,fe3c1d035a65c549f7011c5446f73ede
