run_id,condition,rt,response,trial_type,trial_index,time_elapsed,internal_node_id,stimulus,response_type,key_press,avg_frame_time,center_x,center_y,trial,block,test_pos,test_inner_radius,test_outer_radius,ref_inner_radius,ref_outer_radius,test_bigger,recorded_at,ip,user_agent,device,browser,browser_version,platform,platform_version,source_code_version
30,1,10548.5,"{""p_id"":""0319"",""age"":""22"",""handedness"":""right"",""sex"":""female"",""other_sex"":""}",survey-html-form,0,10549,0.0-0.0,"""","""","""","""","""","""","""","""","""","""","""","""","""","""","2021-10-05 04:45:03",142.114.90.103,"Mozilla/5.0 (Macintosh; Intel Mac OS X 10_15_7) AppleWebKit/537.36 (KHTML, like Gecko) Chrome/93.0.4577.63 Safari/537.36",Macintosh,Chrome,93.0.4577.63,"OS X",10_15_7,fe3c1d035a65c549f7011c5446f73ede
30,1,22088.5," ",html-keyboard-response,1,32639,0.0-1.0,"<p style=""color: white"">Welcome to the Size Judgment Experiment. <br>There will be 10 blocks in this experiment. <br>There will be 28 trials in each block. <br>You will be given a chance to take a break between blocks. <br>Press any key to start the experiment.</p>","""","""","""","""","""","""","""","""","""","""","""","""","""","2021-10-05 04:45:03",142.114.90.103,"Mozilla/5.0 (Macintosh; Intel Mac OS X 10_15_7) AppleWebKit/537.36 (KHTML, like Gecko) Chrome/93.0.4577.63 Safari/537.36",Macintosh,Chrome,93.0.4577.63,"OS X",10_15_7,fe3c1d035a65c549f7011c5446f73ede
30,1,23590.399999976158,arrowright,psychophysics,2,56239,0.0-2.0,"""",key,arrowright,16.666834039548025,720,311,"""","""","""","""","""","""","""","""","2021-10-05 04:45:03",142.114.90.103,"Mozilla/5.0 (Macintosh; Intel Mac OS X 10_15_7) AppleWebKit/537.36 (KHTML, like Gecko) Chrome/93.0.4577.63 Safari/537.36",Macintosh,Chrome,93.0.4577.63,"OS X",10_15_7,fe3c1d035a65c549f7011c5446f73ede
30,1,2977.199999988079,arrowright,psychophysics,3,59220,0.0-3.0-0.0,"""",key,arrowright,16.667000000000012,720,311,1,1,-1,27,15,25,35,false,"2021-10-05 04:45:03",142.114.90.103,"Mozilla/5.0 (Macintosh; Intel Mac OS X 10_15_7) AppleWebKit/537.36 (KHTML, like Gecko) Chrome/93.0.4577.63 Safari/537.36",Macintosh,Chrome,93.0.4577.63,"OS X",10_15_7,fe3c1d035a65c549f7011c5446f73ede
30,1,null,null,psychophysics,4,60221,0.0-3.0-1.0,"""",key,null,16.667000000000048,720,311,"""","""","""","""","""","""","""","""","2021-10-05 04:45:03",142.114.90.103,"Mozilla/5.0 (Macintosh; Intel Mac OS X 10_15_7) AppleWebKit/537.36 (KHTML, like Gecko) Chrome/93.0.4577.63 Safari/537.36",Macintosh,Chrome,93.0.4577.63,"OS X",10_15_7,fe3c1d035a65c549f7011c5446f73ede
30,1,2224.199999988079,arrowleft,psychophysics,5,62448,0.0-3.0-0.1,"""",key,arrowleft,16.667000000000023,720,311,2,1,1,30,35,25,35,false,"2021-10-05 04:45:03",142.114.90.103,"Mozilla/5.0 (Macintosh; Intel Mac OS X 10_15_7) AppleWebKit/537.36 (KHTML, like Gecko) Chrome/93.0.4577.63 Safari/537.36",Macintosh,Chrome,93.0.4577.63,"OS X",10_15_7,fe3c1d035a65c549f7011c5446f73ede
30,1,null,null,psychophysics,6,63449,0.0-3.0-1.1,"""",key,null,16.666423728813488,720,311,"""","""","""","""","""","""","""","""","2021-10-05 04:45:03",142.114.90.103,"Mozilla/5.0 (Macintosh; Intel Mac OS X 10_15_7) AppleWebKit/537.36 (KHTML, like Gecko) Chrome/93.0.4577.63 Safari/537.36",Macintosh,Chrome,93.0.4577.63,"OS X",10_15_7,fe3c1d035a65c549f7011c5446f73ede
30,1,1721.199999988079,arrowleft,psychophysics,7,65172,0.0-3.0-0.2,"""",key,arrowleft,16.66700000000007,720,311,3,1,1,27,35,25,35,false,"2021-10-05 04:45:03",142.114.90.103,"Mozilla/5.0 (Macintosh; Intel Mac OS X 10_15_7) AppleWebKit/537.36 (KHTML, like Gecko) Chrome/93.0.4577.63 Safari/537.36",Macintosh,Chrome,93.0.4577.63,"OS X",10_15_7,fe3c1d035a65c549f7011c5446f73ede
30,1,null,null,psychophysics,8,66175,0.0-3.0-1.2,"""",key,null,16.6669999999998,720,311,"""","""","""","""","""","""","""","""","2021-10-05 04:45:03",142.114.90.103,"Mozilla/5.0 (Macintosh; Intel Mac OS X 10_15_7) AppleWebKit/537.36 (KHTML, like Gecko) Chrome/93.0.4577.63 Safari/537.36",Macintosh,Chrome,93.0.4577.63,"OS X",10_15_7,fe3c1d035a65c549f7011c5446f73ede
30,1,767.6999999880791,arrowright,psychophysics,9,66948,0.0-3.0-0.3,"""",key,arrowright,16.667000000000016,720,311,4,1,-1,26,15,25,35,false,"2021-10-05 04:45:03",142.114.90.103,"Mozilla/5.0 (Macintosh; Intel Mac OS X 10_15_7) AppleWebKit/537.36 (KHTML, like Gecko) Chrome/93.0.4577.63 Safari/537.36",Macintosh,Chrome,93.0.4577.63,"OS X",10_15_7,fe3c1d035a65c549f7011c5446f73ede
30,1,null,null,psychophysics,10,67949,0.0-3.0-1.3,"""",key,null,16.667000000000048,720,311,"""","""","""","""","""","""","""","""","2021-10-05 04:45:03",142.114.90.103,"Mozilla/5.0 (Macintosh; Intel Mac OS X 10_15_7) AppleWebKit/537.36 (KHTML, like Gecko) Chrome/93.0.4577.63 Safari/537.36",Macintosh,Chrome,93.0.4577.63,"OS X",10_15_7,fe3c1d035a65c549f7011c5446f73ede
30,1,4243.300000011921,arrowleft,psychophysics,11,72195,0.0-3.0-0.4,"""",key,arrowleft,16.666999999999963,720,311,5,1,1,23,35,25,35,false,"2021-10-05 04:45:03",142.114.90.103,"Mozilla/5.0 (Macintosh; Intel Mac OS X 10_15_7) AppleWebKit/537.36 (KHTML, like Gecko) Chrome/93.0.4577.63 Safari/537.36",Macintosh,Chrome,93.0.4577.63,"OS X",10_15_7,fe3c1d035a65c549f7011c5446f73ede
30,1,null,null,psychophysics,12,73196,0.0-3.0-1.4,"""",key,null,16.666423728813612,720,311,"""","""","""","""","""","""","""","""","2021-10-05 04:45:03",142.114.90.103,"Mozilla/5.0 (Macintosh; Intel Mac OS X 10_15_7) AppleWebKit/537.36 (KHTML, like Gecko) Chrome/93.0.4577.63 Safari/537.36",Macintosh,Chrome,93.0.4577.63,"OS X",10_15_7,fe3c1d035a65c549f7011c5446f73ede
30,1,863.6999999880791,arrowright,psychophysics,13,74062,0.0-3.0-0.5,"""",key,arrowright,16.66700000000014,720,311,6,1,-1,30,15,25,35,false,"2021-10-05 04:45:03",142.114.90.103,"Mozilla/5.0 (Macintosh; Intel Mac OS X 10_15_7) AppleWebKit/537.36 (KHTML, like Gecko) Chrome/93.0.4577.63 Safari/537.36",Macintosh,Chrome,93.0.4577.63,"OS X",10_15_7,fe3c1d035a65c549f7011c5446f73ede
30,1,null,null,psychophysics,14,75063,0.0-3.0-1.5,"""",key,null,16.667000000000048,720,311,"""","""","""","""","""","""","""","""","2021-10-05 04:45:03",142.114.90.103,"Mozilla/5.0 (Macintosh; Intel Mac OS X 10_15_7) AppleWebKit/537.36 (KHTML, like Gecko) Chrome/93.0.4577.63 Safari/537.36",Macintosh,Chrome,93.0.4577.63,"OS X",10_15_7,fe3c1d035a65c549f7011c5446f73ede
30,1,6272.899999976158,arrowleft,psychophysics,15,81338,0.0-3.0-0.6,"""",key,arrowleft,16.667,720,311,7,1,-1,20,15,25,35,true,"2021-10-05 04:45:03",142.114.90.103,"Mozilla/5.0 (Macintosh; Intel Mac OS X 10_15_7) AppleWebKit/537.36 (KHTML, like Gecko) Chrome/93.0.4577.63 Safari/537.36",Macintosh,Chrome,93.0.4577.63,"OS X",10_15_7,fe3c1d035a65c549f7011c5446f73ede
30,1,null,null,psychophysics,16,82339,0.0-3.0-1.6,"""",key,null,16.667000000000048,720,311,"""","""","""","""","""","""","""","""","2021-10-05 04:45:03",142.114.90.103,"Mozilla/5.0 (Macintosh; Intel Mac OS X 10_15_7) AppleWebKit/537.36 (KHTML, like Gecko) Chrome/93.0.4577.63 Safari/537.36",Macintosh,Chrome,93.0.4577.63,"OS X",10_15_7,fe3c1d035a65c549f7011c5446f73ede
30,1,1841.9000000357628,arrowright,psychophysics,17,84183,0.0-3.0-0.7,"""",key,arrowright,16.665554545454505,720,311,8,1,1,30,35,25,35,true,"2021-10-05 04:45:03",142.114.90.103,"Mozilla/5.0 (Macintosh; Intel Mac OS X 10_15_7) AppleWebKit/537.36 (KHTML, like Gecko) Chrome/93.0.4577.63 Safari/537.36",Macintosh,Chrome,93.0.4577.63,"OS X",10_15_7,fe3c1d035a65c549f7011c5446f73ede
30,1,null,null,psychophysics,18,85185,0.0-3.0-1.7,"""",key,null,16.667000000000048,720,311,"""","""","""","""","""","""","""","""","2021-10-05 04:45:03",142.114.90.103,"Mozilla/5.0 (Macintosh; Intel Mac OS X 10_15_7) AppleWebKit/537.36 (KHTML, like Gecko) Chrome/93.0.4577.63 Safari/537.36",Macintosh,Chrome,93.0.4577.63,"OS X",10_15_7,fe3c1d035a65c549f7011c5446f73ede
30,1,2179.800000011921,arrowleft,psychophysics,19,87366,0.0-3.0-0.8,"""",key,arrowleft,16.666999999999938,720,311,9,1,-1,30,15,25,35,true,"2021-10-05 04:45:03",142.114.90.103,"Mozilla/5.0 (Macintosh; Intel Mac OS X 10_15_7) AppleWebKit/537.36 (KHTML, like Gecko) Chrome/93.0.4577.63 Safari/537.36",Macintosh,Chrome,93.0.4577.63,"OS X",10_15_7,fe3c1d035a65c549f7011c5446f73ede
30,1,null,null,psychophysics,20,88368,0.0-3.0-1.8,"""",key,null,16.667000000000048,720,311,"""","""","""","""","""","""","""","""","2021-10-05 04:45:03",142.114.90.103,"Mozilla/5.0 (Macintosh; Intel Mac OS X 10_15_7) AppleWebKit/537.36 (KHTML, like Gecko) Chrome/93.0.4577.63 Safari/537.36",Macintosh,Chrome,93.0.4577.63,"OS X",10_15_7,fe3c1d035a65c549f7011c5446f73ede
30,1,2160.199999988079,arrowleft,psychophysics,21,90530,0.0-3.0-0.9,"""",key,arrowleft,16.66700000000004,720,311,10,1,1,24,35,25,35,false,"2021-10-05 04:45:03",142.114.90.103,"Mozilla/5.0 (Macintosh; Intel Mac OS X 10_15_7) AppleWebKit/537.36 (KHTML, like Gecko) Chrome/93.0.4577.63 Safari/537.36",Macintosh,Chrome,93.0.4577.63,"OS X",10_15_7,fe3c1d035a65c549f7011c5446f73ede
30,1,null,null,psychophysics,22,91531,0.0-3.0-1.9,"""",key,null,16.6669999999998,720,311,"""","""","""","""","""","""","""","""","2021-10-05 04:45:03",142.114.90.103,"Mozilla/5.0 (Macintosh; Intel Mac OS X 10_15_7) AppleWebKit/537.36 (KHTML, like Gecko) Chrome/93.0.4577.63 Safari/537.36",Macintosh,Chrome,93.0.4577.63,"OS X",10_15_7,fe3c1d035a65c549f7011c5446f73ede
30,1,1167.2999999523163,arrowright,psychophysics,23,92700,0.0-3.0-0.10,"""",key,arrowright,16.667000000000016,720,311,11,1,1,25,15,25,35,true,"2021-10-05 04:45:03",142.114.90.103,"Mozilla/5.0 (Macintosh; Intel Mac OS X 10_15_7) AppleWebKit/537.36 (KHTML, like Gecko) Chrome/93.0.4577.63 Safari/537.36",Macintosh,Chrome,93.0.4577.63,"OS X",10_15_7,fe3c1d035a65c549f7011c5446f73ede
30,1,null,null,psychophysics,24,93701,0.0-3.0-1.10,"""",key,null,16.666423728813612,720,311,"""","""","""","""","""","""","""","""","2021-10-05 04:45:03",142.114.90.103,"Mozilla/5.0 (Macintosh; Intel Mac OS X 10_15_7) AppleWebKit/537.36 (KHTML, like Gecko) Chrome/93.0.4577.63 Safari/537.36",Macintosh,Chrome,93.0.4577.63,"OS X",10_15_7,fe3c1d035a65c549f7011c5446f73ede
30,1,2304.699999988079,arrowleft,psychophysics,25,96008,0.0-3.0-0.11,"""",key,arrowleft,16.667000000000005,720,311,12,1,1,23,15,25,35,false,"2021-10-05 04:45:03",142.114.90.103,"Mozilla/5.0 (Macintosh; Intel Mac OS X 10_15_7) AppleWebKit/537.36 (KHTML, like Gecko) Chrome/93.0.4577.63 Safari/537.36",Macintosh,Chrome,93.0.4577.63,"OS X",10_15_7,fe3c1d035a65c549f7011c5446f73ede
30,1,null,null,psychophysics,26,97009,0.0-3.0-1.11,"""",key,null,16.666999999999824,720,311,"""","""","""","""","""","""","""","""","2021-10-05 04:45:03",142.114.90.103,"Mozilla/5.0 (Macintosh; Intel Mac OS X 10_15_7) AppleWebKit/537.36 (KHTML, like Gecko) Chrome/93.0.4577.63 Safari/537.36",Macintosh,Chrome,93.0.4577.63,"OS X",10_15_7,fe3c1d035a65c549f7011c5446f73ede
30,1,1179.0999999642372,arrowleft,psychophysics,27,98190,0.0-3.0-0.12,"""",key,arrowleft,16.667000000000016,720,311,13,1,-1,27,15,25,35,true,"2021-10-05 04:45:03",142.114.90.103,"Mozilla/5.0 (Macintosh; Intel Mac OS X 10_15_7) AppleWebKit/537.36 (KHTML, like Gecko) Chrome/93.0.4577.63 Safari/537.36",Macintosh,Chrome,93.0.4577.63,"OS X",10_15_7,fe3c1d035a65c549f7011c5446f73ede
30,1,null,null,psychophysics,28,99193,0.0-3.0-1.12,"""",key,null,16.66700000000007,720,311,"""","""","""","""","""","""","""","""","2021-10-05 04:45:03",142.114.90.103,"Mozilla/5.0 (Macintosh; Intel Mac OS X 10_15_7) AppleWebKit/537.36 (KHTML, like Gecko) Chrome/93.0.4577.63 Safari/537.36",Macintosh,Chrome,93.0.4577.63,"OS X",10_15_7,fe3c1d035a65c549f7011c5446f73ede
30,1,1943.1000000238419,arrowleft,psychophysics,29,101138,0.0-3.0-0.13,"""",key,arrowleft,16.667000000000016,720,311,14,1,1,20,35,25,35,false,"2021-10-05 04:45:03",142.114.90.103,"Mozilla/5.0 (Macintosh; Intel Mac OS X 10_15_7) AppleWebKit/537.36 (KHTML, like Gecko) Chrome/93.0.4577.63 Safari/537.36",Macintosh,Chrome,93.0.4577.63,"OS X",10_15_7,fe3c1d035a65c549f7011c5446f73ede
30,1,null,null,psychophysics,30,102140,0.0-3.0-1.13,"""",key,null,16.6669999999998,720,311,"""","""","""","""","""","""","""","""","2021-10-05 04:45:03",142.114.90.103,"Mozilla/5.0 (Macintosh; Intel Mac OS X 10_15_7) AppleWebKit/537.36 (KHTML, like Gecko) Chrome/93.0.4577.63 Safari/537.36",Macintosh,Chrome,93.0.4577.63,"OS X",10_15_7,fe3c1d035a65c549f7011c5446f73ede
30,1,1649.6000000238419,arrowleft,psychophysics,31,103792,0.0-3.0-0.14,"""",key,arrowleft,16.666653061224586,720,311,15,1,-1,27,35,25,35,true,"2021-10-05 04:45:03",142.114.90.103,"Mozilla/5.0 (Macintosh; Intel Mac OS X 10_15_7) AppleWebKit/537.36 (KHTML, like Gecko) Chrome/93.0.4577.63 Safari/537.36",Macintosh,Chrome,93.0.4577.63,"OS X",10_15_7,fe3c1d035a65c549f7011c5446f73ede
30,1,null,null,psychophysics,32,104793,0.0-3.0-1.14,"""",key,null,16.666999999999824,720,311,"""","""","""","""","""","""","""","""","2021-10-05 04:45:03",142.114.90.103,"Mozilla/5.0 (Macintosh; Intel Mac OS X 10_15_7) AppleWebKit/537.36 (KHTML, like Gecko) Chrome/93.0.4577.63 Safari/537.36",Macintosh,Chrome,93.0.4577.63,"OS X",10_15_7,fe3c1d035a65c549f7011c5446f73ede
30,1,1563.3999999761581,arrowleft,psychophysics,33,106358,0.0-3.0-0.15,"""",key,arrowleft,16.667000000000016,720,311,16,1,-1,23,15,25,35,true,"2021-10-05 04:45:03",142.114.90.103,"Mozilla/5.0 (Macintosh; Intel Mac OS X 10_15_7) AppleWebKit/537.36 (KHTML, like Gecko) Chrome/93.0.4577.63 Safari/537.36",Macintosh,Chrome,93.0.4577.63,"OS X",10_15_7,fe3c1d035a65c549f7011c5446f73ede
30,1,null,null,psychophysics,34,107363,0.0-3.0-1.15,"""",key,null,16.667000000000048,720,311,"""","""","""","""","""","""","""","""","2021-10-05 04:45:03",142.114.90.103,"Mozilla/5.0 (Macintosh; Intel Mac OS X 10_15_7) AppleWebKit/537.36 (KHTML, like Gecko) Chrome/93.0.4577.63 Safari/537.36",Macintosh,Chrome,93.0.4577.63,"OS X",10_15_7,fe3c1d035a65c549f7011c5446f73ede
30,1,927.8000000119209,arrowright,psychophysics,35,108292,0.0-3.0-0.16,"""",key,arrowright,16.66699999999996,720,311,17,1,-1,23,35,25,35,false,"2021-10-05 04:45:03",142.114.90.103,"Mozilla/5.0 (Macintosh; Intel Mac OS X 10_15_7) AppleWebKit/537.36 (KHTML, like Gecko) Chrome/93.0.4577.63 Safari/537.36",Macintosh,Chrome,93.0.4577.63,"OS X",10_15_7,fe3c1d035a65c549f7011c5446f73ede
30,1,null,null,psychophysics,36,109293,0.0-3.0-1.16,"""",key,null,16.666999999999824,720,311,"""","""","""","""","""","""","""","""","2021-10-05 04:45:03",142.114.90.103,"Mozilla/5.0 (Macintosh; Intel Mac OS X 10_15_7) AppleWebKit/537.36 (KHTML, like Gecko) Chrome/93.0.4577.63 Safari/537.36",Macintosh,Chrome,93.0.4577.63,"OS X",10_15_7,fe3c1d035a65c549f7011c5446f73ede
30,1,1181.6000000238419,arrowleft,psychophysics,37,110478,0.0-3.0-0.17,"""",key,arrowleft,16.667000000000034,720,311,18,1,-1,27,35,25,35,true,"2021-10-05 04:45:03",142.114.90.103,"Mozilla/5.0 (Macintosh; Intel Mac OS X 10_15_7) AppleWebKit/537.36 (KHTML, like Gecko) Chrome/93.0.4577.63 Safari/537.36",Macintosh,Chrome,93.0.4577.63,"OS X",10_15_7,fe3c1d035a65c549f7011c5446f73ede
30,1,null,null,psychophysics,38,111478,0.0-3.0-1.17,"""",key,null,16.667000000000048,720,311,"""","""","""","""","""","""","""","""","2021-10-05 04:45:03",142.114.90.103,"Mozilla/5.0 (Macintosh; Intel Mac OS X 10_15_7) AppleWebKit/537.36 (KHTML, like Gecko) Chrome/93.0.4577.63 Safari/537.36",Macintosh,Chrome,93.0.4577.63,"OS X",10_15_7,fe3c1d035a65c549f7011c5446f73ede
30,1,1987.300000011921,arrowleft,psychophysics,39,113467,0.0-3.0-0.18,"""",key,arrowleft,16.665652542372808,720,311,19,1,-1,23,35,25,35,true,"2021-10-05 04:45:03",142.114.90.103,"Mozilla/5.0 (Macintosh; Intel Mac OS X 10_15_7) AppleWebKit/537.36 (KHTML, like Gecko) Chrome/93.0.4577.63 Safari/537.36",Macintosh,Chrome,93.0.4577.63,"OS X",10_15_7,fe3c1d035a65c549f7011c5446f73ede
30,1,null,null,psychophysics,40,114469,0.0-3.0-1.18,"""",key,null,16.667000000000048,720,311,"""","""","""","""","""","""","""","""","2021-10-05 04:45:03",142.114.90.103,"Mozilla/5.0 (Macintosh; Intel Mac OS X 10_15_7) AppleWebKit/537.36 (KHTML, like Gecko) Chrome/93.0.4577.63 Safari/537.36",Macintosh,Chrome,93.0.4577.63,"OS X",10_15_7,fe3c1d035a65c549f7011c5446f73ede
30,1,5941.599999964237,arrowright,psychophysics,41,120412,0.0-3.0-0.19,"""",key,arrowright,16.667000000000012,720,311,20,1,-1,20,15,25,35,false,"2021-10-05 04:45:03",142.114.90.103,"Mozilla/5.0 (Macintosh; Intel Mac OS X 10_15_7) AppleWebKit/537.36 (KHTML, like Gecko) Chrome/93.0.4577.63 Safari/537.36",Macintosh,Chrome,93.0.4577.63,"OS X",10_15_7,fe3c1d035a65c549f7011c5446f73ede
30,1,null,null,psychophysics,42,121413,0.0-3.0-1.19,"""",key,null,16.6669999999998,720,311,"""","""","""","""","""","""","""","""","2021-10-05 04:45:03",142.114.90.103,"Mozilla/5.0 (Macintosh; Intel Mac OS X 10_15_7) AppleWebKit/537.36 (KHTML, like Gecko) Chrome/93.0.4577.63 Safari/537.36",Macintosh,Chrome,93.0.4577.63,"OS X",10_15_7,fe3c1d035a65c549f7011c5446f73ede
30,1,1400.5,arrowright,psychophysics,43,122815,0.0-3.0-0.20,"""",key,arrowright,16.667000000000055,720,311,21,1,1,23,15,25,35,true,"2021-10-05 04:45:03",142.114.90.103,"Mozilla/5.0 (Macintosh; Intel Mac OS X 10_15_7) AppleWebKit/537.36 (KHTML, like Gecko) Chrome/93.0.4577.63 Safari/537.36",Macintosh,Chrome,93.0.4577.63,"OS X",10_15_7,fe3c1d035a65c549f7011c5446f73ede
30,1,null,null,psychophysics,44,123816,0.0-3.0-1.20,"""",key,null,16.664305084745816,720,311,"""","""","""","""","""","""","""","""","2021-10-05 04:45:03",142.114.90.103,"Mozilla/5.0 (Macintosh; Intel Mac OS X 10_15_7) AppleWebKit/537.36 (KHTML, like Gecko) Chrome/93.0.4577.63 Safari/537.36",Macintosh,Chrome,93.0.4577.63,"OS X",10_15_7,fe3c1d035a65c549f7011c5446f73ede
30,1,1361.699999988079,arrowleft,psychophysics,45,125180,0.0-3.0-0.21,"""",key,arrowleft,16.667000000000023,720,311,22,1,1,24,35,25,35,false,"2021-10-05 04:45:03",142.114.90.103,"Mozilla/5.0 (Macintosh; Intel Mac OS X 10_15_7) AppleWebKit/537.36 (KHTML, like Gecko) Chrome/93.0.4577.63 Safari/537.36",Macintosh,Chrome,93.0.4577.63,"OS X",10_15_7,fe3c1d035a65c549f7011c5446f73ede
30,1,null,null,psychophysics,46,126181,0.0-3.0-1.21,"""",key,null,16.667000000000048,720,311,"""","""","""","""","""","""","""","""","2021-10-05 04:45:03",142.114.90.103,"Mozilla/5.0 (Macintosh; Intel Mac OS X 10_15_7) AppleWebKit/537.36 (KHTML, like Gecko) Chrome/93.0.4577.63 Safari/537.36",Macintosh,Chrome,93.0.4577.63,"OS X",10_15_7,fe3c1d035a65c549f7011c5446f73ede
30,1,750.3000000119209,arrowright,psychophysics,47,126933,0.0-3.0-0.22,"""",key,arrowright,16.66699999999996,720,311,23,1,1,30,15,25,35,true,"2021-10-05 04:45:03",142.114.90.103,"Mozilla/5.0 (Macintosh; Intel Mac OS X 10_15_7) AppleWebKit/537.36 (KHTML, like Gecko) Chrome/93.0.4577.63 Safari/537.36",Macintosh,Chrome,93.0.4577.63,"OS X",10_15_7,fe3c1d035a65c549f7011c5446f73ede
30,1,null,null,psychophysics,48,127936,0.0-3.0-1.22,"""",key,null,16.667000000000048,720,311,"""","""","""","""","""","""","""","""","2021-10-05 04:45:03",142.114.90.103,"Mozilla/5.0 (Macintosh; Intel Mac OS X 10_15_7) AppleWebKit/537.36 (KHTML, like Gecko) Chrome/93.0.4577.63 Safari/537.36",Macintosh,Chrome,93.0.4577.63,"OS X",10_15_7,fe3c1d035a65c549f7011c5446f73ede
30,1,941.6000000238419,arrowleft,psychophysics,49,128879,0.0-3.0-0.23,"""",key,arrowleft,16.66699999999998,720,311,24,1,1,20,35,25,35,false,"2021-10-05 04:45:03",142.114.90.103,"Mozilla/5.0 (Macintosh; Intel Mac OS X 10_15_7) AppleWebKit/537.36 (KHTML, like Gecko) Chrome/93.0.4577.63 Safari/537.36",Macintosh,Chrome,93.0.4577.63,"OS X",10_15_7,fe3c1d035a65c549f7011c5446f73ede
30,1,null,null,psychophysics,50,129880,0.0-3.0-1.23,"""",key,null,16.667000000000048,720,311,"""","""","""","""","""","""","""","""","2021-10-05 04:45:03",142.114.90.103,"Mozilla/5.0 (Macintosh; Intel Mac OS X 10_15_7) AppleWebKit/537.36 (KHTML, like Gecko) Chrome/93.0.4577.63 Safari/537.36",Macintosh,Chrome,93.0.4577.63,"OS X",10_15_7,fe3c1d035a65c549f7011c5446f73ede
30,1,965,arrowright,psychophysics,51,130848,0.0-3.0-0.24,"""",key,arrowright,16.66699999999975,720,311,25,1,-1,23,35,25,35,false,"2021-10-05 04:45:03",142.114.90.103,"Mozilla/5.0 (Macintosh; Intel Mac OS X 10_15_7) AppleWebKit/537.36 (KHTML, like Gecko) Chrome/93.0.4577.63 Safari/537.36",Macintosh,Chrome,93.0.4577.63,"OS X",10_15_7,fe3c1d035a65c549f7011c5446f73ede
30,1,null,null,psychophysics,52,131849,0.0-3.0-1.24,"""",key,null,16.667000000000048,720,311,"""","""","""","""","""","""","""","""","2021-10-05 04:45:03",142.114.90.103,"Mozilla/5.0 (Macintosh; Intel Mac OS X 10_15_7) AppleWebKit/537.36 (KHTML, like Gecko) Chrome/93.0.4577.63 Safari/537.36",Macintosh,Chrome,93.0.4577.63,"OS X",10_15_7,fe3c1d035a65c549f7011c5446f73ede
30,1,1034.0999999642372,arrowleft,psychophysics,53,132885,0.0-3.0-0.25,"""",key,arrowleft,16.667000000000087,720,311,26,1,1,24,35,25,35,false,"2021-10-05 04:45:03",142.114.90.103,"Mozilla/5.0 (Macintosh; Intel Mac OS X 10_15_7) AppleWebKit/537.36 (KHTML, like Gecko) Chrome/93.0.4577.63 Safari/537.36",Macintosh,Chrome,93.0.4577.63,"OS X",10_15_7,fe3c1d035a65c549f7011c5446f73ede
30,1,null,null,psychophysics,54,133888,0.0-3.0-1.25,"""",key,null,16.66642372881386,720,311,"""","""","""","""","""","""","""","""","2021-10-05 04:45:03",142.114.90.103,"Mozilla/5.0 (Macintosh; Intel Mac OS X 10_15_7) AppleWebKit/537.36 (KHTML, like Gecko) Chrome/93.0.4577.63 Safari/537.36",Macintosh,Chrome,93.0.4577.63,"OS X",10_15_7,fe3c1d035a65c549f7011c5446f73ede
30,1,896.8000000119209,arrowright,psychophysics,55,134787,0.0-3.0-0.26,"""",key,arrowright,16.66699999999991,720,311,27,1,1,27,15,25,35,true,"2021-10-05 04:45:03",142.114.90.103,"Mozilla/5.0 (Macintosh; Intel Mac OS X 10_15_7) AppleWebKit/537.36 (KHTML, like Gecko) Chrome/93.0.4577.63 Safari/537.36",Macintosh,Chrome,93.0.4577.63,"OS X",10_15_7,fe3c1d035a65c549f7011c5446f73ede
30,1,null,null,psychophysics,56,135788,0.0-3.0-1.26,"""",key,null,16.667000000000048,720,311,"""","""","""","""","""","""","""","""","2021-10-05 04:45:03",142.114.90.103,"Mozilla/5.0 (Macintosh; Intel Mac OS X 10_15_7) AppleWebKit/537.36 (KHTML, like Gecko) Chrome/93.0.4577.63 Safari/537.36",Macintosh,Chrome,93.0.4577.63,"OS X",10_15_7,fe3c1d035a65c549f7011c5446f73ede
30,1,1663.8999999761581,arrowleft,psychophysics,57,137454,0.0-3.0-0.27,"""",key,arrowleft,16.66699999999996,720,311,28,2,1,25,35,25,35,false,"2021-10-05 04:45:03",142.114.90.103,"Mozilla/5.0 (Macintosh; Intel Mac OS X 10_15_7) AppleWebKit/537.36 (KHTML, like Gecko) Chrome/93.0.4577.63 Safari/537.36",Macintosh,Chrome,93.0.4577.63,"OS X",10_15_7,fe3c1d035a65c549f7011c5446f73ede
30,1,null,null,psychophysics,58,138457,0.0-3.0-1.27,"""",key,null,16.667000000000048,720,311,"""","""","""","""","""","""","""","""","2021-10-05 04:45:03",142.114.90.103,"Mozilla/5.0 (Macintosh; Intel Mac OS X 10_15_7) AppleWebKit/537.36 (KHTML, like Gecko) Chrome/93.0.4577.63 Safari/537.36",Macintosh,Chrome,93.0.4577.63,"OS X",10_15_7,fe3c1d035a65c549f7011c5446f73ede
30,1,7176," ",html-keyboard-response,59,145633,0.0-3.0-2.27-0.27,"<div style=""color: white; text-align: center; vertical-align: top; display: inline-block; width: 800px; margin: auto""><p>You have completed 10% of the trials. You are on block 2 of 10. <br>Good job! Take a break if you need to.</p><p>Press any key to continue the experiment.</p></div>","""","""","""","""","""","""","""","""","""","""","""","""","""","2021-10-05 04:45:03",142.114.90.103,"Mozilla/5.0 (Macintosh; Intel Mac OS X 10_15_7) AppleWebKit/537.36 (KHTML, like Gecko) Chrome/93.0.4577.63 Safari/537.36",Macintosh,Chrome,93.0.4577.63,"OS X",10_15_7,fe3c1d035a65c549f7011c5446f73ede
30,1,21244.5,arrowright,psychophysics,60,167883,0.0-3.0-0.28,"""",key,arrowright,16.666683137254886,720,311,29,2,-1,20,35,25,35,false,"2021-10-05 04:45:03",142.114.90.103,"Mozilla/5.0 (Macintosh; Intel Mac OS X 10_15_7) AppleWebKit/537.36 (KHTML, like Gecko) Chrome/93.0.4577.63 Safari/537.36",Macintosh,Chrome,93.0.4577.63,"OS X",10_15_7,fe3c1d035a65c549f7011c5446f73ede
30,1,null,null,psychophysics,61,168884,0.0-3.0-1.28,"""",key,null,16.667000000000048,720,311,"""","""","""","""","""","""","""","""","2021-10-05 04:45:03",142.114.90.103,"Mozilla/5.0 (Macintosh; Intel Mac OS X 10_15_7) AppleWebKit/537.36 (KHTML, like Gecko) Chrome/93.0.4577.63 Safari/537.36",Macintosh,Chrome,93.0.4577.63,"OS X",10_15_7,fe3c1d035a65c549f7011c5446f73ede
30,1,1168.300000011921,arrowright,psychophysics,62,170055,0.0-3.0-0.29,"""",key,arrowright,16.667000000000225,720,311,30,2,-1,20,15,25,35,false,"2021-10-05 04:45:03",142.114.90.103,"Mozilla/5.0 (Macintosh; Intel Mac OS X 10_15_7) AppleWebKit/537.36 (KHTML, like Gecko) Chrome/93.0.4577.63 Safari/537.36",Macintosh,Chrome,93.0.4577.63,"OS X",10_15_7,fe3c1d035a65c549f7011c5446f73ede
30,1,null,null,psychophysics,63,171058,0.0-3.0-1.29,"""",key,null,16.667000000000048,720,311,"""","""","""","""","""","""","""","""","2021-10-05 04:45:03",142.114.90.103,"Mozilla/5.0 (Macintosh; Intel Mac OS X 10_15_7) AppleWebKit/537.36 (KHTML, like Gecko) Chrome/93.0.4577.63 Safari/537.36",Macintosh,Chrome,93.0.4577.63,"OS X",10_15_7,fe3c1d035a65c549f7011c5446f73ede
30,1,829.6999999880791,arrowright,psychophysics,64,171890,0.0-3.0-0.30,"""",key,arrowright,16.66700000000039,720,311,31,2,-1,20,35,25,35,false,"2021-10-05 04:45:03",142.114.90.103,"Mozilla/5.0 (Macintosh; Intel Mac OS X 10_15_7) AppleWebKit/537.36 (KHTML, like Gecko) Chrome/93.0.4577.63 Safari/537.36",Macintosh,Chrome,93.0.4577.63,"OS X",10_15_7,fe3c1d035a65c549f7011c5446f73ede
30,1,null,null,psychophysics,65,172892,0.0-3.0-1.30,"""",key,null,16.667000000000048,720,311,"""","""","""","""","""","""","""","""","2021-10-05 04:45:03",142.114.90.103,"Mozilla/5.0 (Macintosh; Intel Mac OS X 10_15_7) AppleWebKit/537.36 (KHTML, like Gecko) Chrome/93.0.4577.63 Safari/537.36",Macintosh,Chrome,93.0.4577.63,"OS X",10_15_7,fe3c1d035a65c549f7011c5446f73ede
30,1,1235.300000011921,arrowleft,psychophysics,66,174128,0.0-3.0-0.31,"""",key,arrowleft,16.666999999999707,720,311,32,2,1,25,35,25,35,false,"2021-10-05 04:45:03",142.114.90.103,"Mozilla/5.0 (Macintosh; Intel Mac OS X 10_15_7) AppleWebKit/537.36 (KHTML, like Gecko) Chrome/93.0.4577.63 Safari/537.36",Macintosh,Chrome,93.0.4577.63,"OS X",10_15_7,fe3c1d035a65c549f7011c5446f73ede
30,1,null,null,psychophysics,67,175129,0.0-3.0-1.31,"""",key,null,16.667000000000048,720,311,"""","""","""","""","""","""","""","""","2021-10-05 04:45:03",142.114.90.103,"Mozilla/5.0 (Macintosh; Intel Mac OS X 10_15_7) AppleWebKit/537.36 (KHTML, like Gecko) Chrome/93.0.4577.63 Safari/537.36",Macintosh,Chrome,93.0.4577.63,"OS X",10_15_7,fe3c1d035a65c549f7011c5446f73ede
30,1,885.5999999642372,arrowleft,psychophysics,68,176018,0.0-3.0-0.32,"""",key,arrowleft,16.663942307692196,720,311,33,2,-1,24,15,25,35,true,"2021-10-05 04:45:03",142.114.90.103,"Mozilla/5.0 (Macintosh; Intel Mac OS X 10_15_7) AppleWebKit/537.36 (KHTML, like Gecko) Chrome/93.0.4577.63 Safari/537.36",Macintosh,Chrome,93.0.4577.63,"OS X",10_15_7,fe3c1d035a65c549f7011c5446f73ede
30,1,null,null,psychophysics,69,177019,0.0-3.0-1.32,"""",key,null,16.667000000000048,720,311,"""","""","""","""","""","""","""","""","2021-10-05 04:45:03",142.114.90.103,"Mozilla/5.0 (Macintosh; Intel Mac OS X 10_15_7) AppleWebKit/537.36 (KHTML, like Gecko) Chrome/93.0.4577.63 Safari/537.36",Macintosh,Chrome,93.0.4577.63,"OS X",10_15_7,fe3c1d035a65c549f7011c5446f73ede
30,1,808.9000000357628,arrowleft,psychophysics,70,177830,0.0-3.0-0.33,"""",key,arrowleft,16.66700000000007,720,311,34,2,-1,27,15,25,35,true,"2021-10-05 04:45:03",142.114.90.103,"Mozilla/5.0 (Macintosh; Intel Mac OS X 10_15_7) AppleWebKit/537.36 (KHTML, like Gecko) Chrome/93.0.4577.63 Safari/537.36",Macintosh,Chrome,93.0.4577.63,"OS X",10_15_7,fe3c1d035a65c549f7011c5446f73ede
30,1,null,null,psychophysics,71,178831,0.0-3.0-1.33,"""",key,null,16.666999999999554,720,311,"""","""","""","""","""","""","""","""","2021-10-05 04:45:03",142.114.90.103,"Mozilla/5.0 (Macintosh; Intel Mac OS X 10_15_7) AppleWebKit/537.36 (KHTML, like Gecko) Chrome/93.0.4577.63 Safari/537.36",Macintosh,Chrome,93.0.4577.63,"OS X",10_15_7,fe3c1d035a65c549f7011c5446f73ede
30,1,963.3000000119209,arrowright,psychophysics,72,179796,0.0-3.0-0.34,"""",key,arrowright,16.667000000000005,720,311,35,2,-1,20,35,25,35,false,"2021-10-05 04:45:03",142.114.90.103,"Mozilla/5.0 (Macintosh; Intel Mac OS X 10_15_7) AppleWebKit/537.36 (KHTML, like Gecko) Chrome/93.0.4577.63 Safari/537.36",Macintosh,Chrome,93.0.4577.63,"OS X",10_15_7,fe3c1d035a65c549f7011c5446f73ede
30,1,null,null,psychophysics,73,180798,0.0-3.0-1.34,"""",key,null,16.667000000000048,720,311,"""","""","""","""","""","""","""","""","2021-10-05 04:45:03",142.114.90.103,"Mozilla/5.0 (Macintosh; Intel Mac OS X 10_15_7) AppleWebKit/537.36 (KHTML, like Gecko) Chrome/93.0.4577.63 Safari/537.36",Macintosh,Chrome,93.0.4577.63,"OS X",10_15_7,fe3c1d035a65c549f7011c5446f73ede
30,1,1213.699999988079,arrowleft,psychophysics,74,182014,0.0-3.0-0.35,"""",key,arrowleft,16.66700000000007,720,311,36,2,1,24,15,25,35,false,"2021-10-05 04:45:03",142.114.90.103,"Mozilla/5.0 (Macintosh; Intel Mac OS X 10_15_7) AppleWebKit/537.36 (KHTML, like Gecko) Chrome/93.0.4577.63 Safari/537.36",Macintosh,Chrome,93.0.4577.63,"OS X",10_15_7,fe3c1d035a65c549f7011c5446f73ede
30,1,null,null,psychophysics,75,183015,0.0-3.0-1.35,"""",key,null,16.667000000000048,720,311,"""","""","""","""","""","""","""","""","2021-10-05 04:45:03",142.114.90.103,"Mozilla/5.0 (Macintosh; Intel Mac OS X 10_15_7) AppleWebKit/537.36 (KHTML, like Gecko) Chrome/93.0.4577.63 Safari/537.36",Macintosh,Chrome,93.0.4577.63,"OS X",10_15_7,fe3c1d035a65c549f7011c5446f73ede
30,1,852.2999999523163,arrowleft,psychophysics,76,183869,0.0-3.0-0.36,"""",key,arrowleft,16.667000000000115,720,311,37,2,-1,24,15,25,35,true,"2021-10-05 04:45:03",142.114.90.103,"Mozilla/5.0 (Macintosh; Intel Mac OS X 10_15_7) AppleWebKit/537.36 (KHTML, like Gecko) Chrome/93.0.4577.63 Safari/537.36",Macintosh,Chrome,93.0.4577.63,"OS X",10_15_7,fe3c1d035a65c549f7011c5446f73ede
30,1,null,null,psychophysics,77,184871,0.0-3.0-1.36,"""",key,null,16.667000000000048,720,311,"""","""","""","""","""","""","""","""","2021-10-05 04:45:03",142.114.90.103,"Mozilla/5.0 (Macintosh; Intel Mac OS X 10_15_7) AppleWebKit/537.36 (KHTML, like Gecko) Chrome/93.0.4577.63 Safari/537.36",Macintosh,Chrome,93.0.4577.63,"OS X",10_15_7,fe3c1d035a65c549f7011c5446f73ede
30,1,855.2999999523163,arrowleft,psychophysics,78,185729,0.0-3.0-0.37,"""",key,arrowleft,16.666999999999852,720,311,38,2,1,23,35,25,35,false,"2021-10-05 04:45:03",142.114.90.103,"Mozilla/5.0 (Macintosh; Intel Mac OS X 10_15_7) AppleWebKit/537.36 (KHTML, like Gecko) Chrome/93.0.4577.63 Safari/537.36",Macintosh,Chrome,93.0.4577.63,"OS X",10_15_7,fe3c1d035a65c549f7011c5446f73ede
30,1,null,null,psychophysics,79,186730,0.0-3.0-1.37,"""",key,null,16.664305084745568,720,311,"""","""","""","""","""","""","""","""","2021-10-05 04:45:03",142.114.90.103,"Mozilla/5.0 (Macintosh; Intel Mac OS X 10_15_7) AppleWebKit/537.36 (KHTML, like Gecko) Chrome/93.0.4577.63 Safari/537.36",Macintosh,Chrome,93.0.4577.63,"OS X",10_15_7,fe3c1d035a65c549f7011c5446f73ede
30,1,747.4000000357628,arrowleft,psychophysics,80,187480,0.0-3.0-0.38,"""",key,arrowleft,16.66699999999996,720,311,39,2,-1,27,15,25,35,true,"2021-10-05 04:45:03",142.114.90.103,"Mozilla/5.0 (Macintosh; Intel Mac OS X 10_15_7) AppleWebKit/537.36 (KHTML, like Gecko) Chrome/93.0.4577.63 Safari/537.36",Macintosh,Chrome,93.0.4577.63,"OS X",10_15_7,fe3c1d035a65c549f7011c5446f73ede
30,1,null,null,psychophysics,81,188481,0.0-3.0-1.38,"""",key,null,16.667000000000048,720,311,"""","""","""","""","""","""","""","""","2021-10-05 04:45:03",142.114.90.103,"Mozilla/5.0 (Macintosh; Intel Mac OS X 10_15_7) AppleWebKit/537.36 (KHTML, like Gecko) Chrome/93.0.4577.63 Safari/537.36",Macintosh,Chrome,93.0.4577.63,"OS X",10_15_7,fe3c1d035a65c549f7011c5446f73ede
30,1,763.5,arrowleft,psychophysics,82,189246,0.0-3.0-0.39,"""",key,arrowleft,16.66700000000031,720,311,40,2,-1,25,15,25,35,true,"2021-10-05 04:45:03",142.114.90.103,"Mozilla/5.0 (Macintosh; Intel Mac OS X 10_15_7) AppleWebKit/537.36 (KHTML, like Gecko) Chrome/93.0.4577.63 Safari/537.36",Macintosh,Chrome,93.0.4577.63,"OS X",10_15_7,fe3c1d035a65c549f7011c5446f73ede
30,1,null,null,psychophysics,83,190248,0.0-3.0-1.39,"""",key,null,16.667000000000048,720,311,"""","""","""","""","""","""","""","""","2021-10-05 04:45:03",142.114.90.103,"Mozilla/5.0 (Macintosh; Intel Mac OS X 10_15_7) AppleWebKit/537.36 (KHTML, like Gecko) Chrome/93.0.4577.63 Safari/537.36",Macintosh,Chrome,93.0.4577.63,"OS X",10_15_7,fe3c1d035a65c549f7011c5446f73ede
30,1,820.6999999880791,arrowright,psychophysics,84,191070,0.0-3.0-0.40,"""",key,arrowright,16.66700000000007,720,311,41,2,1,30,15,25,35,true,"2021-10-05 04:45:03",142.114.90.103,"Mozilla/5.0 (Macintosh; Intel Mac OS X 10_15_7) AppleWebKit/537.36 (KHTML, like Gecko) Chrome/93.0.4577.63 Safari/537.36",Macintosh,Chrome,93.0.4577.63,"OS X",10_15_7,fe3c1d035a65c549f7011c5446f73ede
30,1,null,null,psychophysics,85,192072,0.0-3.0-1.40,"""",key,null,16.667000000000048,720,311,"""","""","""","""","""","""","""","""","2021-10-05 04:45:03",142.114.90.103,"Mozilla/5.0 (Macintosh; Intel Mac OS X 10_15_7) AppleWebKit/537.36 (KHTML, like Gecko) Chrome/93.0.4577.63 Safari/537.36",Macintosh,Chrome,93.0.4577.63,"OS X",10_15_7,fe3c1d035a65c549f7011c5446f73ede
30,1,854.1000000238419,arrowleft,psychophysics,86,192928,0.0-3.0-0.41,"""",key,arrowleft,16.667000000000424,720,311,42,2,1,24,35,25,35,false,"2021-10-05 04:45:03",142.114.90.103,"Mozilla/5.0 (Macintosh; Intel Mac OS X 10_15_7) AppleWebKit/537.36 (KHTML, like Gecko) Chrome/93.0.4577.63 Safari/537.36",Macintosh,Chrome,93.0.4577.63,"OS X",10_15_7,fe3c1d035a65c549f7011c5446f73ede
30,1,null,null,psychophysics,87,193929,0.0-3.0-1.41,"""",key,null,16.667000000000048,720,311,"""","""","""","""","""","""","""","""","2021-10-05 04:45:03",142.114.90.103,"Mozilla/5.0 (Macintosh; Intel Mac OS X 10_15_7) AppleWebKit/537.36 (KHTML, like Gecko) Chrome/93.0.4577.63 Safari/537.36",Macintosh,Chrome,93.0.4577.63,"OS X",10_15_7,fe3c1d035a65c549f7011c5446f73ede
30,1,697.3000000119209,arrowright,psychophysics,88,194628,0.0-3.0-0.42,"""",key,arrowright,16.666999999999504,720,311,43,2,1,27,15,25,35,true,"2021-10-05 04:45:03",142.114.90.103,"Mozilla/5.0 (Macintosh; Intel Mac OS X 10_15_7) AppleWebKit/537.36 (KHTML, like Gecko) Chrome/93.0.4577.63 Safari/537.36",Macintosh,Chrome,93.0.4577.63,"OS X",10_15_7,fe3c1d035a65c549f7011c5446f73ede
30,1,null,null,psychophysics,89,195630,0.0-3.0-1.42,"""",key,null,16.667000000000048,720,311,"""","""","""","""","""","""","""","""","2021-10-05 04:45:03",142.114.90.103,"Mozilla/5.0 (Macintosh; Intel Mac OS X 10_15_7) AppleWebKit/537.36 (KHTML, like Gecko) Chrome/93.0.4577.63 Safari/537.36",Macintosh,Chrome,93.0.4577.63,"OS X",10_15_7,fe3c1d035a65c549f7011c5446f73ede
30,1,681,arrowleft,psychophysics,90,196313,0.0-3.0-0.43,"""",key,arrowleft,16.666150000000197,720,311,44,2,1,20,35,25,35,false,"2021-10-05 04:45:03",142.114.90.103,"Mozilla/5.0 (Macintosh; Intel Mac OS X 10_15_7) AppleWebKit/537.36 (KHTML, like Gecko) Chrome/93.0.4577.63 Safari/537.36",Macintosh,Chrome,93.0.4577.63,"OS X",10_15_7,fe3c1d035a65c549f7011c5446f73ede
30,1,null,null,psychophysics,91,197314,0.0-3.0-1.43,"""",key,null,16.667000000000048,720,311,"""","""","""","""","""","""","""","""","2021-10-05 04:45:03",142.114.90.103,"Mozilla/5.0 (Macintosh; Intel Mac OS X 10_15_7) AppleWebKit/537.36 (KHTML, like Gecko) Chrome/93.0.4577.63 Safari/537.36",Macintosh,Chrome,93.0.4577.63,"OS X",10_15_7,fe3c1d035a65c549f7011c5446f73ede
30,1,1166.300000011921,arrowleft,psychophysics,92,198482,0.0-3.0-0.44,"""",key,arrowleft,16.666999999999803,720,311,45,2,1,25,15,25,35,false,"2021-10-05 04:45:03",142.114.90.103,"Mozilla/5.0 (Macintosh; Intel Mac OS X 10_15_7) AppleWebKit/537.36 (KHTML, like Gecko) Chrome/93.0.4577.63 Safari/537.36",Macintosh,Chrome,93.0.4577.63,"OS X",10_15_7,fe3c1d035a65c549f7011c5446f73ede
30,1,null,null,psychophysics,93,199484,0.0-3.0-1.44,"""",key,null,16.666999999999554,720,311,"""","""","""","""","""","""","""","""","2021-10-05 04:45:03",142.114.90.103,"Mozilla/5.0 (Macintosh; Intel Mac OS X 10_15_7) AppleWebKit/537.36 (KHTML, like Gecko) Chrome/93.0.4577.63 Safari/537.36",Macintosh,Chrome,93.0.4577.63,"OS X",10_15_7,fe3c1d035a65c549f7011c5446f73ede
30,1,1111.800000011921,arrowleft,psychophysics,94,200597,0.0-3.0-0.45,"""",key,arrowleft,16.66699999999996,720,311,46,2,1,25,15,25,35,false,"2021-10-05 04:45:03",142.114.90.103,"Mozilla/5.0 (Macintosh; Intel Mac OS X 10_15_7) AppleWebKit/537.36 (KHTML, like Gecko) Chrome/93.0.4577.63 Safari/537.36",Macintosh,Chrome,93.0.4577.63,"OS X",10_15_7,fe3c1d035a65c549f7011c5446f73ede
30,1,null,null,psychophysics,95,201599,0.0-3.0-1.45,"""",key,null,16.667000000000048,720,311,"""","""","""","""","""","""","""","""","2021-10-05 04:45:03",142.114.90.103,"Mozilla/5.0 (Macintosh; Intel Mac OS X 10_15_7) AppleWebKit/537.36 (KHTML, like Gecko) Chrome/93.0.4577.63 Safari/537.36",Macintosh,Chrome,93.0.4577.63,"OS X",10_15_7,fe3c1d035a65c549f7011c5446f73ede
30,1,1204.5,arrowright,psychophysics,96,202805,0.0-3.0-0.46,"""",key,arrowright,16.666999999999845,720,311,47,2,1,27,35,25,35,true,"2021-10-05 04:45:03",142.114.90.103,"Mozilla/5.0 (Macintosh; Intel Mac OS X 10_15_7) AppleWebKit/537.36 (KHTML, like Gecko) Chrome/93.0.4577.63 Safari/537.36",Macintosh,Chrome,93.0.4577.63,"OS X",10_15_7,fe3c1d035a65c549f7011c5446f73ede
30,1,null,null,psychophysics,97,203807,0.0-3.0-1.46,"""",key,null,16.667000000000048,720,311,"""","""","""","""","""","""","""","""","2021-10-05 04:45:03",142.114.90.103,"Mozilla/5.0 (Macintosh; Intel Mac OS X 10_15_7) AppleWebKit/537.36 (KHTML, like Gecko) Chrome/93.0.4577.63 Safari/537.36",Macintosh,Chrome,93.0.4577.63,"OS X",10_15_7,fe3c1d035a65c549f7011c5446f73ede
30,1,1020.6999999880791,arrowright,psychophysics,98,204830,0.0-3.0-0.47,"""",key,arrowright,16.667000000000087,720,311,48,2,1,27,15,25,35,true,"2021-10-05 04:45:03",142.114.90.103,"Mozilla/5.0 (Macintosh; Intel Mac OS X 10_15_7) AppleWebKit/537.36 (KHTML, like Gecko) Chrome/93.0.4577.63 Safari/537.36",Macintosh,Chrome,93.0.4577.63,"OS X",10_15_7,fe3c1d035a65c549f7011c5446f73ede
30,1,null,null,psychophysics,99,205830,0.0-3.0-1.47,"""",key,null,16.667000000000048,720,311,"""","""","""","""","""","""","""","""","2021-10-05 04:45:03",142.114.90.103,"Mozilla/5.0 (Macintosh; Intel Mac OS X 10_15_7) AppleWebKit/537.36 (KHTML, like Gecko) Chrome/93.0.4577.63 Safari/537.36",Macintosh,Chrome,93.0.4577.63,"OS X",10_15_7,fe3c1d035a65c549f7011c5446f73ede
30,1,1463,arrowleft,psychophysics,100,207295,0.0-3.0-0.48,"""",key,arrowleft,16.66517241379305,720,311,49,2,-1,25,35,25,35,true,"2021-10-05 04:45:03",142.114.90.103,"Mozilla/5.0 (Macintosh; Intel Mac OS X 10_15_7) AppleWebKit/537.36 (KHTML, like Gecko) Chrome/93.0.4577.63 Safari/537.36",Macintosh,Chrome,93.0.4577.63,"OS X",10_15_7,fe3c1d035a65c549f7011c5446f73ede
30,1,null,null,psychophysics,101,208295,0.0-3.0-1.48,"""",key,null,16.667000000000048,720,311,"""","""","""","""","""","""","""","""","2021-10-05 04:45:03",142.114.90.103,"Mozilla/5.0 (Macintosh; Intel Mac OS X 10_15_7) AppleWebKit/537.36 (KHTML, like Gecko) Chrome/93.0.4577.63 Safari/537.36",Macintosh,Chrome,93.0.4577.63,"OS X",10_15_7,fe3c1d035a65c549f7011c5446f73ede
30,1,737.6000000238419,arrowleft,psychophysics,102,209035,0.0-3.0-0.49,"""",key,arrowleft,16.66699999999959,720,311,50,2,-1,24,15,25,35,true,"2021-10-05 04:45:03",142.114.90.103,"Mozilla/5.0 (Macintosh; Intel Mac OS X 10_15_7) AppleWebKit/537.36 (KHTML, like Gecko) Chrome/93.0.4577.63 Safari/537.36",Macintosh,Chrome,93.0.4577.63,"OS X",10_15_7,fe3c1d035a65c549f7011c5446f73ede
30,1,null,null,psychophysics,103,210037,0.0-3.0-1.49,"""",key,null,16.667000000000048,720,311,"""","""","""","""","""","""","""","""","2021-10-05 04:45:03",142.114.90.103,"Mozilla/5.0 (Macintosh; Intel Mac OS X 10_15_7) AppleWebKit/537.36 (KHTML, like Gecko) Chrome/93.0.4577.63 Safari/537.36",Macintosh,Chrome,93.0.4577.63,"OS X",10_15_7,fe3c1d035a65c549f7011c5446f73ede
30,1,1008.1000000238419,arrowleft,psychophysics,104,211048,0.0-3.0-0.50,"""",key,arrowleft,16.666999999999824,720,311,51,2,1,24,15,25,35,false,"2021-10-05 04:45:03",142.114.90.103,"Mozilla/5.0 (Macintosh; Intel Mac OS X 10_15_7) AppleWebKit/537.36 (KHTML, like Gecko) Chrome/93.0.4577.63 Safari/537.36",Macintosh,Chrome,93.0.4577.63,"OS X",10_15_7,fe3c1d035a65c549f7011c5446f73ede
30,1,null,null,psychophysics,105,212049,0.0-3.0-1.50,"""",key,null,16.667000000000048,720,311,"""","""","""","""","""","""","""","""","2021-10-05 04:45:03",142.114.90.103,"Mozilla/5.0 (Macintosh; Intel Mac OS X 10_15_7) AppleWebKit/537.36 (KHTML, like Gecko) Chrome/93.0.4577.63 Safari/537.36",Macintosh,Chrome,93.0.4577.63,"OS X",10_15_7,fe3c1d035a65c549f7011c5446f73ede
30,1,1372.699999988079,arrowleft,psychophysics,106,213424,0.0-3.0-0.51,"""",key,arrowleft,16.667000000000023,720,311,52,2,-1,23,35,25,35,true,"2021-10-05 04:45:03",142.114.90.103,"Mozilla/5.0 (Macintosh; Intel Mac OS X 10_15_7) AppleWebKit/537.36 (KHTML, like Gecko) Chrome/93.0.4577.63 Safari/537.36",Macintosh,Chrome,93.0.4577.63,"OS X",10_15_7,fe3c1d035a65c549f7011c5446f73ede
30,1,null,null,psychophysics,107,214425,0.0-3.0-1.51,"""",key,null,16.666999999999554,720,311,"""","""","""","""","""","""","""","""","2021-10-05 04:45:03",142.114.90.103,"Mozilla/5.0 (Macintosh; Intel Mac OS X 10_15_7) AppleWebKit/537.36 (KHTML, like Gecko) Chrome/93.0.4577.63 Safari/537.36",Macintosh,Chrome,93.0.4577.63,"OS X",10_15_7,fe3c1d035a65c549f7011c5446f73ede
30,1,1213.3999999761581,arrowleft,psychophysics,108,215640,0.0-3.0-0.52,"""",key,arrowleft,16.66700000000007,720,311,53,2,-1,23,15,25,35,true,"2021-10-05 04:45:03",142.114.90.103,"Mozilla/5.0 (Macintosh; Intel Mac OS X 10_15_7) AppleWebKit/537.36 (KHTML, like Gecko) Chrome/93.0.4577.63 Safari/537.36",Macintosh,Chrome,93.0.4577.63,"OS X",10_15_7,fe3c1d035a65c549f7011c5446f73ede
30,1,null,null,psychophysics,109,216642,0.0-3.0-1.52,"""",key,null,16.66430508474606,720,311,"""","""","""","""","""","""","""","""","2021-10-05 04:45:03",142.114.90.103,"Mozilla/5.0 (Macintosh; Intel Mac OS X 10_15_7) AppleWebKit/537.36 (KHTML, like Gecko) Chrome/93.0.4577.63 Safari/537.36",Macintosh,Chrome,93.0.4577.63,"OS X",10_15_7,fe3c1d035a65c549f7011c5446f73ede
30,1,730,arrowleft,psychophysics,110,217373,0.0-3.0-0.53,"""",key,arrowleft,16.667000000000264,720,311,54,2,1,23,35,25,35,false,"2021-10-05 04:45:03",142.114.90.103,"Mozilla/5.0 (Macintosh; Intel Mac OS X 10_15_7) AppleWebKit/537.36 (KHTML, like Gecko) Chrome/93.0.4577.63 Safari/537.36",Macintosh,Chrome,93.0.4577.63,"OS X",10_15_7,fe3c1d035a65c549f7011c5446f73ede
30,1,null,null,psychophysics,111,218375,0.0-3.0-1.53,"""",key,null,16.667000000000048,720,311,"""","""","""","""","""","""","""","""","2021-10-05 04:45:03",142.114.90.103,"Mozilla/5.0 (Macintosh; Intel Mac OS X 10_15_7) AppleWebKit/537.36 (KHTML, like Gecko) Chrome/93.0.4577.63 Safari/537.36",Macintosh,Chrome,93.0.4577.63,"OS X",10_15_7,fe3c1d035a65c549f7011c5446f73ede
30,1,941.3000000119209,arrowleft,psychophysics,112,219318,0.0-3.0-0.54,"""",key,arrowleft,16.66700000000024,720,311,55,2,-1,26,35,25,35,true,"2021-10-05 04:45:03",142.114.90.103,"Mozilla/5.0 (Macintosh; Intel Mac OS X 10_15_7) AppleWebKit/537.36 (KHTML, like Gecko) Chrome/93.0.4577.63 Safari/537.36",Macintosh,Chrome,93.0.4577.63,"OS X",10_15_7,fe3c1d035a65c549f7011c5446f73ede
30,1,null,null,psychophysics,113,220321,0.0-3.0-1.54,"""",key,null,16.667000000000048,720,311,"""","""","""","""","""","""","""","""","2021-10-05 04:45:03",142.114.90.103,"Mozilla/5.0 (Macintosh; Intel Mac OS X 10_15_7) AppleWebKit/537.36 (KHTML, like Gecko) Chrome/93.0.4577.63 Safari/537.36",Macintosh,Chrome,93.0.4577.63,"OS X",10_15_7,fe3c1d035a65c549f7011c5446f73ede
30,1,794.5,arrowleft,psychophysics,114,221117,0.0-3.0-0.55,"""",key,arrowleft,16.66699999999973,720,311,56,3,-1,26,35,25,35,true,"2021-10-05 04:45:03",142.114.90.103,"Mozilla/5.0 (Macintosh; Intel Mac OS X 10_15_7) AppleWebKit/537.36 (KHTML, like Gecko) Chrome/93.0.4577.63 Safari/537.36",Macintosh,Chrome,93.0.4577.63,"OS X",10_15_7,fe3c1d035a65c549f7011c5446f73ede
30,1,null,null,psychophysics,115,222121,0.0-3.0-1.55,"""",key,null,16.667000000000048,720,311,"""","""","""","""","""","""","""","""","2021-10-05 04:45:03",142.114.90.103,"Mozilla/5.0 (Macintosh; Intel Mac OS X 10_15_7) AppleWebKit/537.36 (KHTML, like Gecko) Chrome/93.0.4577.63 Safari/537.36",Macintosh,Chrome,93.0.4577.63,"OS X",10_15_7,fe3c1d035a65c549f7011c5446f73ede
30,1,2822.7000000476837," ",html-keyboard-response,116,224944,0.0-3.0-2.55-0.55,"<div style=""color: white; text-align: center; vertical-align: top; display: inline-block; width: 800px; margin: auto""><p>You have completed 20% of the trials. You are on block 3 of 10. <br>Good job! Take a break if you need to.</p><p>Press any key to continue the experiment.</p></div>","""","""","""","""","""","""","""","""","""","""","""","""","""","2021-10-05 04:45:03",142.114.90.103,"Mozilla/5.0 (Macintosh; Intel Mac OS X 10_15_7) AppleWebKit/537.36 (KHTML, like Gecko) Chrome/93.0.4577.63 Safari/537.36",Macintosh,Chrome,93.0.4577.63,"OS X",10_15_7,fe3c1d035a65c549f7011c5446f73ede
30,1,1849.3999999761581,arrowleft,psychophysics,117,227800,0.0-3.0-0.56,"""",key,arrowleft,16.665558558558367,720,311,57,3,-1,30,35,25,35,true,"2021-10-05 04:45:03",142.114.90.103,"Mozilla/5.0 (Macintosh; Intel Mac OS X 10_15_7) AppleWebKit/537.36 (KHTML, like Gecko) Chrome/93.0.4577.63 Safari/537.36",Macintosh,Chrome,93.0.4577.63,"OS X",10_15_7,fe3c1d035a65c549f7011c5446f73ede
30,1,null,null,psychophysics,118,228801,0.0-3.0-1.56,"""",key,null,16.667000000000048,720,311,"""","""","""","""","""","""","""","""","2021-10-05 04:45:03",142.114.90.103,"Mozilla/5.0 (Macintosh; Intel Mac OS X 10_15_7) AppleWebKit/537.36 (KHTML, like Gecko) Chrome/93.0.4577.63 Safari/537.36",Macintosh,Chrome,93.0.4577.63,"OS X",10_15_7,fe3c1d035a65c549f7011c5446f73ede
30,1,661.8999999761581,arrowright,psychophysics,119,229464,0.0-3.0-0.57,"""",key,arrowright,16.66700000000016,720,311,58,3,1,30,35,25,35,true,"2021-10-05 04:45:03",142.114.90.103,"Mozilla/5.0 (Macintosh; Intel Mac OS X 10_15_7) AppleWebKit/537.36 (KHTML, like Gecko) Chrome/93.0.4577.63 Safari/537.36",Macintosh,Chrome,93.0.4577.63,"OS X",10_15_7,fe3c1d035a65c549f7011c5446f73ede
30,1,null,null,psychophysics,120,230471,0.0-3.0-1.57,"""",key,null,16.667000000000048,720,311,"""","""","""","""","""","""","""","""","2021-10-05 04:45:03",142.114.90.103,"Mozilla/5.0 (Macintosh; Intel Mac OS X 10_15_7) AppleWebKit/537.36 (KHTML, like Gecko) Chrome/93.0.4577.63 Safari/537.36",Macintosh,Chrome,93.0.4577.63,"OS X",10_15_7,fe3c1d035a65c549f7011c5446f73ede
30,1,556.6000000238419,arrowleft,psychophysics,121,231029,0.0-3.0-0.58,"""",key,arrowleft,16.66699999999996,720,311,59,3,-1,27,35,25,35,true,"2021-10-05 04:45:03",142.114.90.103,"Mozilla/5.0 (Macintosh; Intel Mac OS X 10_15_7) AppleWebKit/537.36 (KHTML, like Gecko) Chrome/93.0.4577.63 Safari/537.36",Macintosh,Chrome,93.0.4577.63,"OS X",10_15_7,fe3c1d035a65c549f7011c5446f73ede
30,1,null,null,psychophysics,122,232031,0.0-3.0-1.58,"""",key,null,16.667000000000048,720,311,"""","""","""","""","""","""","""","""","2021-10-05 04:45:03",142.114.90.103,"Mozilla/5.0 (Macintosh; Intel Mac OS X 10_15_7) AppleWebKit/537.36 (KHTML, like Gecko) Chrome/93.0.4577.63 Safari/537.36",Macintosh,Chrome,93.0.4577.63,"OS X",10_15_7,fe3c1d035a65c549f7011c5446f73ede
30,1,708.5,arrowleft,psychophysics,123,232741,0.0-3.0-0.59,"""",key,arrowleft,16.666999999999504,720,311,60,3,-1,25,15,25,35,true,"2021-10-05 04:45:03",142.114.90.103,"Mozilla/5.0 (Macintosh; Intel Mac OS X 10_15_7) AppleWebKit/537.36 (KHTML, like Gecko) Chrome/93.0.4577.63 Safari/537.36",Macintosh,Chrome,93.0.4577.63,"OS X",10_15_7,fe3c1d035a65c549f7011c5446f73ede
30,1,null,null,psychophysics,124,233742,0.0-3.0-1.59,"""",key,null,16.667000000000048,720,311,"""","""","""","""","""","""","""","""","2021-10-05 04:45:03",142.114.90.103,"Mozilla/5.0 (Macintosh; Intel Mac OS X 10_15_7) AppleWebKit/537.36 (KHTML, like Gecko) Chrome/93.0.4577.63 Safari/537.36",Macintosh,Chrome,93.0.4577.63,"OS X",10_15_7,fe3c1d035a65c549f7011c5446f73ede
30,1,794.3000000119209,arrowleft,psychophysics,125,234539,0.0-3.0-0.60,"""",key,arrowleft,16.66699999999973,720,311,61,3,1,23,35,25,35,false,"2021-10-05 04:45:03",142.114.90.103,"Mozilla/5.0 (Macintosh; Intel Mac OS X 10_15_7) AppleWebKit/537.36 (KHTML, like Gecko) Chrome/93.0.4577.63 Safari/537.36",Macintosh,Chrome,93.0.4577.63,"OS X",10_15_7,fe3c1d035a65c549f7011c5446f73ede
30,1,null,null,psychophysics,126,235541,0.0-3.0-1.60,"""",key,null,16.667000000000048,720,311,"""","""","""","""","""","""","""","""","2021-10-05 04:45:03",142.114.90.103,"Mozilla/5.0 (Macintosh; Intel Mac OS X 10_15_7) AppleWebKit/537.36 (KHTML, like Gecko) Chrome/93.0.4577.63 Safari/537.36",Macintosh,Chrome,93.0.4577.63,"OS X",10_15_7,fe3c1d035a65c549f7011c5446f73ede
30,1,662.3000000119209,arrowright,psychophysics,127,236205,0.0-3.0-0.61,"""",key,arrowright,16.66292307692362,720,311,62,3,1,30,15,25,35,true,"2021-10-05 04:45:03",142.114.90.103,"Mozilla/5.0 (Macintosh; Intel Mac OS X 10_15_7) AppleWebKit/537.36 (KHTML, like Gecko) Chrome/93.0.4577.63 Safari/537.36",Macintosh,Chrome,93.0.4577.63,"OS X",10_15_7,fe3c1d035a65c549f7011c5446f73ede
30,1,null,null,psychophysics,128,237208,0.0-3.0-1.61,"""",key,null,16.667000000000048,720,311,"""","""","""","""","""","""","""","""","2021-10-05 04:45:03",142.114.90.103,"Mozilla/5.0 (Macintosh; Intel Mac OS X 10_15_7) AppleWebKit/537.36 (KHTML, like Gecko) Chrome/93.0.4577.63 Safari/537.36",Macintosh,Chrome,93.0.4577.63,"OS X",10_15_7,fe3c1d035a65c549f7011c5446f73ede
30,1,512.6000000238419,arrowleft,psychophysics,129,237722,0.0-3.0-0.62,"""",key,arrowleft,16.66700000000031,720,311,63,3,1,20,15,25,35,false,"2021-10-05 04:45:03",142.114.90.103,"Mozilla/5.0 (Macintosh; Intel Mac OS X 10_15_7) AppleWebKit/537.36 (KHTML, like Gecko) Chrome/93.0.4577.63 Safari/537.36",Macintosh,Chrome,93.0.4577.63,"OS X",10_15_7,fe3c1d035a65c549f7011c5446f73ede
30,1,null,null,psychophysics,130,238725,0.0-3.0-1.62,"""",key,null,16.666999999999554,720,311,"""","""","""","""","""","""","""","""","2021-10-05 04:45:03",142.114.90.103,"Mozilla/5.0 (Macintosh; Intel Mac OS X 10_15_7) AppleWebKit/537.36 (KHTML, like Gecko) Chrome/93.0.4577.63 Safari/537.36",Macintosh,Chrome,93.0.4577.63,"OS X",10_15_7,fe3c1d035a65c549f7011c5446f73ede
30,1,617.3000000119209,arrowleft,psychophysics,131,239345,0.0-3.0-0.63,"""",key,arrowleft,16.6670000000001,720,311,64,3,-1,27,35,25,35,true,"2021-10-05 04:45:03",142.114.90.103,"Mozilla/5.0 (Macintosh; Intel Mac OS X 10_15_7) AppleWebKit/537.36 (KHTML, like Gecko) Chrome/93.0.4577.63 Safari/537.36",Macintosh,Chrome,93.0.4577.63,"OS X",10_15_7,fe3c1d035a65c549f7011c5446f73ede
30,1,null,null,psychophysics,132,240347,0.0-3.0-1.63,"""",key,null,16.667000000000048,720,311,"""","""","""","""","""","""","""","""","2021-10-05 04:45:03",142.114.90.103,"Mozilla/5.0 (Macintosh; Intel Mac OS X 10_15_7) AppleWebKit/537.36 (KHTML, like Gecko) Chrome/93.0.4577.63 Safari/537.36",Macintosh,Chrome,93.0.4577.63,"OS X",10_15_7,fe3c1d035a65c549f7011c5446f73ede
30,1,917.7000000476837,arrowleft,psychophysics,133,241266,0.0-3.0-0.64,"""",key,arrowleft,16.666999999999664,720,311,65,3,-1,25,15,25,35,true,"2021-10-05 04:45:03",142.114.90.103,"Mozilla/5.0 (Macintosh; Intel Mac OS X 10_15_7) AppleWebKit/537.36 (KHTML, like Gecko) Chrome/93.0.4577.63 Safari/537.36",Macintosh,Chrome,93.0.4577.63,"OS X",10_15_7,fe3c1d035a65c549f7011c5446f73ede
30,1,null,null,psychophysics,134,242268,0.0-3.0-1.64,"""",key,null,16.667000000000048,720,311,"""","""","""","""","""","""","""","""","2021-10-05 04:45:03",142.114.90.103,"Mozilla/5.0 (Macintosh; Intel Mac OS X 10_15_7) AppleWebKit/537.36 (KHTML, like Gecko) Chrome/93.0.4577.63 Safari/537.36",Macintosh,Chrome,93.0.4577.63,"OS X",10_15_7,fe3c1d035a65c549f7011c5446f73ede
30,1,1359.5999999642372,arrowright,psychophysics,135,243630,0.0-3.0-0.65,"""",key,arrowright,16.667000000000023,720,311,66,3,1,24,35,25,35,true,"2021-10-05 04:45:03",142.114.90.103,"Mozilla/5.0 (Macintosh; Intel Mac OS X 10_15_7) AppleWebKit/537.36 (KHTML, like Gecko) Chrome/93.0.4577.63 Safari/537.36",Macintosh,Chrome,93.0.4577.63,"OS X",10_15_7,fe3c1d035a65c549f7011c5446f73ede
30,1,null,null,psychophysics,136,244630,0.0-3.0-1.65,"""",key,null,16.667000000000048,720,311,"""","""","""","""","""","""","""","""","2021-10-05 04:45:03",142.114.90.103,"Mozilla/5.0 (Macintosh; Intel Mac OS X 10_15_7) AppleWebKit/537.36 (KHTML, like Gecko) Chrome/93.0.4577.63 Safari/537.36",Macintosh,Chrome,93.0.4577.63,"OS X",10_15_7,fe3c1d035a65c549f7011c5446f73ede
30,1,1056.7999999523163,arrowleft,psychophysics,137,245689,0.0-3.0-0.66,"""",key,arrowleft,16.666999999999874,720,311,67,3,1,20,15,25,35,false,"2021-10-05 04:45:03",142.114.90.103,"Mozilla/5.0 (Macintosh; Intel Mac OS X 10_15_7) AppleWebKit/537.36 (KHTML, like Gecko) Chrome/93.0.4577.63 Safari/537.36",Macintosh,Chrome,93.0.4577.63,"OS X",10_15_7,fe3c1d035a65c549f7011c5446f73ede
30,1,null,null,psychophysics,138,246691,0.0-3.0-1.66,"""",key,null,16.66430508474606,720,311,"""","""","""","""","""","""","""","""","2021-10-05 04:45:03",142.114.90.103,"Mozilla/5.0 (Macintosh; Intel Mac OS X 10_15_7) AppleWebKit/537.36 (KHTML, like Gecko) Chrome/93.0.4577.63 Safari/537.36",Macintosh,Chrome,93.0.4577.63,"OS X",10_15_7,fe3c1d035a65c549f7011c5446f73ede
30,1,1068.8999999761581,arrowleft,psychophysics,139,247762,0.0-3.0-0.67,"""",key,arrowleft,16.66700000000037,720,311,68,3,1,26,15,25,35,false,"2021-10-05 04:45:03",142.114.90.103,"Mozilla/5.0 (Macintosh; Intel Mac OS X 10_15_7) AppleWebKit/537.36 (KHTML, like Gecko) Chrome/93.0.4577.63 Safari/537.36",Macintosh,Chrome,93.0.4577.63,"OS X",10_15_7,fe3c1d035a65c549f7011c5446f73ede
30,1,null,null,psychophysics,140,248763,0.0-3.0-1.67,"""",key,null,16.667000000000048,720,311,"""","""","""","""","""","""","""","""","2021-10-05 04:45:03",142.114.90.103,"Mozilla/5.0 (Macintosh; Intel Mac OS X 10_15_7) AppleWebKit/537.36 (KHTML, like Gecko) Chrome/93.0.4577.63 Safari/537.36",Macintosh,Chrome,93.0.4577.63,"OS X",10_15_7,fe3c1d035a65c549f7011c5446f73ede
30,1,737.8000000119209,arrowleft,psychophysics,141,249502,0.0-3.0-0.68,"""",key,arrowleft,16.667000000000264,720,311,69,3,1,23,15,25,35,false,"2021-10-05 04:45:03",142.114.90.103,"Mozilla/5.0 (Macintosh; Intel Mac OS X 10_15_7) AppleWebKit/537.36 (KHTML, like Gecko) Chrome/93.0.4577.63 Safari/537.36",Macintosh,Chrome,93.0.4577.63,"OS X",10_15_7,fe3c1d035a65c549f7011c5446f73ede
30,1,null,null,psychophysics,142,250505,0.0-3.0-1.68,"""",key,null,16.667000000000048,720,311,"""","""","""","""","""","""","""","""","2021-10-05 04:45:03",142.114.90.103,"Mozilla/5.0 (Macintosh; Intel Mac OS X 10_15_7) AppleWebKit/537.36 (KHTML, like Gecko) Chrome/93.0.4577.63 Safari/537.36",Macintosh,Chrome,93.0.4577.63,"OS X",10_15_7,fe3c1d035a65c549f7011c5446f73ede
30,1,772.6000000238419,arrowleft,psychophysics,143,251280,0.0-3.0-0.69,"""",key,arrowleft,16.667000000000016,720,311,70,3,-1,26,15,25,35,true,"2021-10-05 04:45:03",142.114.90.103,"Mozilla/5.0 (Macintosh; Intel Mac OS X 10_15_7) AppleWebKit/537.36 (KHTML, like Gecko) Chrome/93.0.4577.63 Safari/537.36",Macintosh,Chrome,93.0.4577.63,"OS X",10_15_7,fe3c1d035a65c549f7011c5446f73ede
30,1,null,null,psychophysics,144,252283,0.0-3.0-1.69,"""",key,null,16.667000000000048,720,311,"""","""","""","""","""","""","""","""","2021-10-05 04:45:03",142.114.90.103,"Mozilla/5.0 (Macintosh; Intel Mac OS X 10_15_7) AppleWebKit/537.36 (KHTML, like Gecko) Chrome/93.0.4577.63 Safari/537.36",Macintosh,Chrome,93.0.4577.63,"OS X",10_15_7,fe3c1d035a65c549f7011c5446f73ede
30,1,1132,arrowright,psychophysics,145,253416,0.0-3.0-0.70,"""",key,arrowright,16.66699999999976,720,311,71,3,1,30,35,25,35,true,"2021-10-05 04:45:03",142.114.90.103,"Mozilla/5.0 (Macintosh; Intel Mac OS X 10_15_7) AppleWebKit/537.36 (KHTML, like Gecko) Chrome/93.0.4577.63 Safari/537.36",Macintosh,Chrome,93.0.4577.63,"OS X",10_15_7,fe3c1d035a65c549f7011c5446f73ede
30,1,null,null,psychophysics,146,254418,0.0-3.0-1.70,"""",key,null,16.666999999999554,720,311,"""","""","""","""","""","""","""","""","2021-10-05 04:45:03",142.114.90.103,"Mozilla/5.0 (Macintosh; Intel Mac OS X 10_15_7) AppleWebKit/537.36 (KHTML, like Gecko) Chrome/93.0.4577.63 Safari/537.36",Macintosh,Chrome,93.0.4577.63,"OS X",10_15_7,fe3c1d035a65c549f7011c5446f73ede
30,1,797.5,arrowright,psychophysics,147,255217,0.0-3.0-0.71,"""",key,arrowright,16.66699999999973,720,311,72,3,1,30,15,25,35,true,"2021-10-05 04:45:03",142.114.90.103,"Mozilla/5.0 (Macintosh; Intel Mac OS X 10_15_7) AppleWebKit/537.36 (KHTML, like Gecko) Chrome/93.0.4577.63 Safari/537.36",Macintosh,Chrome,93.0.4577.63,"OS X",10_15_7,fe3c1d035a65c549f7011c5446f73ede
30,1,null,null,psychophysics,148,256220,0.0-3.0-1.71,"""",key,null,16.664305084745568,720,311,"""","""","""","""","""","""","""","""","2021-10-05 04:45:03",142.114.90.103,"Mozilla/5.0 (Macintosh; Intel Mac OS X 10_15_7) AppleWebKit/537.36 (KHTML, like Gecko) Chrome/93.0.4577.63 Safari/537.36",Macintosh,Chrome,93.0.4577.63,"OS X",10_15_7,fe3c1d035a65c549f7011c5446f73ede
30,1,615.3000000119209,arrowleft,psychophysics,149,256837,0.0-3.0-0.72,"""",key,arrowleft,16.666999999999664,720,311,73,3,-1,30,15,25,35,true,"2021-10-05 04:45:03",142.114.90.103,"Mozilla/5.0 (Macintosh; Intel Mac OS X 10_15_7) AppleWebKit/537.36 (KHTML, like Gecko) Chrome/93.0.4577.63 Safari/537.36",Macintosh,Chrome,93.0.4577.63,"OS X",10_15_7,fe3c1d035a65c549f7011c5446f73ede
30,1,null,null,psychophysics,150,257841,0.0-3.0-1.72,"""",key,null,16.666999999999554,720,311,"""","""","""","""","""","""","""","""","2021-10-05 04:45:03",142.114.90.103,"Mozilla/5.0 (Macintosh; Intel Mac OS X 10_15_7) AppleWebKit/537.36 (KHTML, like Gecko) Chrome/93.0.4577.63 Safari/537.36",Macintosh,Chrome,93.0.4577.63,"OS X",10_15_7,fe3c1d035a65c549f7011c5446f73ede
30,1,785.3000000119209,arrowleft,psychophysics,151,258628,0.0-3.0-0.73,"""",key,arrowleft,16.66699999999973,720,311,74,3,-1,24,15,25,35,true,"2021-10-05 04:45:03",142.114.90.103,"Mozilla/5.0 (Macintosh; Intel Mac OS X 10_15_7) AppleWebKit/537.36 (KHTML, like Gecko) Chrome/93.0.4577.63 Safari/537.36",Macintosh,Chrome,93.0.4577.63,"OS X",10_15_7,fe3c1d035a65c549f7011c5446f73ede
30,1,null,null,psychophysics,152,259629,0.0-3.0-1.73,"""",key,null,16.667000000000048,720,311,"""","""","""","""","""","""","""","""","2021-10-05 04:45:03",142.114.90.103,"Mozilla/5.0 (Macintosh; Intel Mac OS X 10_15_7) AppleWebKit/537.36 (KHTML, like Gecko) Chrome/93.0.4577.63 Safari/537.36",Macintosh,Chrome,93.0.4577.63,"OS X",10_15_7,fe3c1d035a65c549f7011c5446f73ede
30,1,714.8000000119209,arrowleft,psychophysics,153,260346,0.0-3.0-0.74,"""",key,arrowleft,16.666999999999895,720,311,75,3,-1,26,15,25,35,true,"2021-10-05 04:45:03",142.114.90.103,"Mozilla/5.0 (Macintosh; Intel Mac OS X 10_15_7) AppleWebKit/537.36 (KHTML, like Gecko) Chrome/93.0.4577.63 Safari/537.36",Macintosh,Chrome,93.0.4577.63,"OS X",10_15_7,fe3c1d035a65c549f7011c5446f73ede
30,1,null,null,psychophysics,154,261347,0.0-3.0-1.74,"""",key,null,16.666999999999554,720,311,"""","""","""","""","""","""","""","""","2021-10-05 04:45:03",142.114.90.103,"Mozilla/5.0 (Macintosh; Intel Mac OS X 10_15_7) AppleWebKit/537.36 (KHTML, like Gecko) Chrome/93.0.4577.63 Safari/537.36",Macintosh,Chrome,93.0.4577.63,"OS X",10_15_7,fe3c1d035a65c549f7011c5446f73ede
30,1,947.6000000238419,arrowleft,psychophysics,155,262296,0.0-3.0-0.75,"""",key,arrowleft,16.66700000000024,720,311,76,3,1,24,35,25,35,false,"2021-10-05 04:45:03",142.114.90.103,"Mozilla/5.0 (Macintosh; Intel Mac OS X 10_15_7) AppleWebKit/537.36 (KHTML, like Gecko) Chrome/93.0.4577.63 Safari/537.36",Macintosh,Chrome,93.0.4577.63,"OS X",10_15_7,fe3c1d035a65c549f7011c5446f73ede
30,1,null,null,psychophysics,156,263299,0.0-3.0-1.75,"""",key,null,16.66699999999906,720,311,"""","""","""","""","""","""","""","""","2021-10-05 04:45:03",142.114.90.103,"Mozilla/5.0 (Macintosh; Intel Mac OS X 10_15_7) AppleWebKit/537.36 (KHTML, like Gecko) Chrome/93.0.4577.63 Safari/537.36",Macintosh,Chrome,93.0.4577.63,"OS X",10_15_7,fe3c1d035a65c549f7011c5446f73ede
30,1,1527.800000011921,arrowleft,psychophysics,157,264828,0.0-3.0-0.76,"""",key,arrowleft,16.66699999999984,720,311,77,3,-1,24,35,25,35,true,"2021-10-05 04:45:03",142.114.90.103,"Mozilla/5.0 (Macintosh; Intel Mac OS X 10_15_7) AppleWebKit/537.36 (KHTML, like Gecko) Chrome/93.0.4577.63 Safari/537.36",Macintosh,Chrome,93.0.4577.63,"OS X",10_15_7,fe3c1d035a65c549f7011c5446f73ede
30,1,null,null,psychophysics,158,265829,0.0-3.0-1.76,"""",key,null,16.667000000000048,720,311,"""","""","""","""","""","""","""","""","2021-10-05 04:45:03",142.114.90.103,"Mozilla/5.0 (Macintosh; Intel Mac OS X 10_15_7) AppleWebKit/537.36 (KHTML, like Gecko) Chrome/93.0.4577.63 Safari/537.36",Macintosh,Chrome,93.0.4577.63,"OS X",10_15_7,fe3c1d035a65c549f7011c5446f73ede
30,1,1098.2999999523163,arrowleft,psychophysics,159,266929,0.0-3.0-0.77,"""",key,arrowleft,16.66455384615379,720,311,78,3,-1,25,35,25,35,true,"2021-10-05 04:45:03",142.114.90.103,"Mozilla/5.0 (Macintosh; Intel Mac OS X 10_15_7) AppleWebKit/537.36 (KHTML, like Gecko) Chrome/93.0.4577.63 Safari/537.36",Macintosh,Chrome,93.0.4577.63,"OS X",10_15_7,fe3c1d035a65c549f7011c5446f73ede
30,1,null,null,psychophysics,160,267930,0.0-3.0-1.77,"""",key,null,16.667000000000048,720,311,"""","""","""","""","""","""","""","""","2021-10-05 04:45:03",142.114.90.103,"Mozilla/5.0 (Macintosh; Intel Mac OS X 10_15_7) AppleWebKit/537.36 (KHTML, like Gecko) Chrome/93.0.4577.63 Safari/537.36",Macintosh,Chrome,93.0.4577.63,"OS X",10_15_7,fe3c1d035a65c549f7011c5446f73ede
30,1,963.8999999761581,arrowright,psychophysics,161,268897,0.0-3.0-0.78,"""",key,arrowright,16.667000000000513,720,311,79,3,1,30,15,25,35,true,"2021-10-05 04:45:03",142.114.90.103,"Mozilla/5.0 (Macintosh; Intel Mac OS X 10_15_7) AppleWebKit/537.36 (KHTML, like Gecko) Chrome/93.0.4577.63 Safari/537.36",Macintosh,Chrome,93.0.4577.63,"OS X",10_15_7,fe3c1d035a65c549f7011c5446f73ede
30,1,null,null,psychophysics,162,269898,0.0-3.0-1.78,"""",key,null,16.667000000000048,720,311,"""","""","""","""","""","""","""","""","2021-10-05 04:45:03",142.114.90.103,"Mozilla/5.0 (Macintosh; Intel Mac OS X 10_15_7) AppleWebKit/537.36 (KHTML, like Gecko) Chrome/93.0.4577.63 Safari/537.36",Macintosh,Chrome,93.0.4577.63,"OS X",10_15_7,fe3c1d035a65c549f7011c5446f73ede
30,1,964.5,arrowleft,psychophysics,163,270864,0.0-3.0-0.79,"""",key,arrowleft,16.667000000000513,720,311,80,3,1,25,15,25,35,false,"2021-10-05 04:45:03",142.114.90.103,"Mozilla/5.0 (Macintosh; Intel Mac OS X 10_15_7) AppleWebKit/537.36 (KHTML, like Gecko) Chrome/93.0.4577.63 Safari/537.36",Macintosh,Chrome,93.0.4577.63,"OS X",10_15_7,fe3c1d035a65c549f7011c5446f73ede
30,1,null,null,psychophysics,164,271866,0.0-3.0-1.79,"""",key,null,16.667000000000048,720,311,"""","""","""","""","""","""","""","""","2021-10-05 04:45:03",142.114.90.103,"Mozilla/5.0 (Macintosh; Intel Mac OS X 10_15_7) AppleWebKit/537.36 (KHTML, like Gecko) Chrome/93.0.4577.63 Safari/537.36",Macintosh,Chrome,93.0.4577.63,"OS X",10_15_7,fe3c1d035a65c549f7011c5446f73ede
30,1,753.5999999642372,arrowleft,psychophysics,165,272621,0.0-3.0-0.80,"""",key,arrowleft,16.66699999999996,720,311,81,3,-1,24,15,25,35,true,"2021-10-05 04:45:03",142.114.90.103,"Mozilla/5.0 (Macintosh; Intel Mac OS X 10_15_7) AppleWebKit/537.36 (KHTML, like Gecko) Chrome/93.0.4577.63 Safari/537.36",Macintosh,Chrome,93.0.4577.63,"OS X",10_15_7,fe3c1d035a65c549f7011c5446f73ede
30,1,null,null,psychophysics,166,273624,0.0-3.0-1.80,"""",key,null,16.667000000000048,720,311,"""","""","""","""","""","""","""","""","2021-10-05 04:45:03",142.114.90.103,"Mozilla/5.0 (Macintosh; Intel Mac OS X 10_15_7) AppleWebKit/537.36 (KHTML, like Gecko) Chrome/93.0.4577.63 Safari/537.36",Macintosh,Chrome,93.0.4577.63,"OS X",10_15_7,fe3c1d035a65c549f7011c5446f73ede
30,1,1176.199999988079,arrowleft,psychophysics,167,274803,0.0-3.0-0.81,"""",key,arrowleft,16.667000000000034,720,311,82,3,-1,23,35,25,35,true,"2021-10-05 04:45:03",142.114.90.103,"Mozilla/5.0 (Macintosh; Intel Mac OS X 10_15_7) AppleWebKit/537.36 (KHTML, like Gecko) Chrome/93.0.4577.63 Safari/537.36",Macintosh,Chrome,93.0.4577.63,"OS X",10_15_7,fe3c1d035a65c549f7011c5446f73ede
30,1,null,null,psychophysics,168,275806,0.0-3.0-1.81,"""",key,null,16.667000000000048,720,311,"""","""","""","""","""","""","""","""","2021-10-05 04:45:03",142.114.90.103,"Mozilla/5.0 (Macintosh; Intel Mac OS X 10_15_7) AppleWebKit/537.36 (KHTML, like Gecko) Chrome/93.0.4577.63 Safari/537.36",Macintosh,Chrome,93.0.4577.63,"OS X",10_15_7,fe3c1d035a65c549f7011c5446f73ede
30,1,988.3999999761581,arrowright,psychophysics,169,276796,0.0-3.0-0.82,"""",key,arrowright,16.66430508474606,720,311,83,3,1,27,35,25,35,true,"2021-10-05 04:45:03",142.114.90.103,"Mozilla/5.0 (Macintosh; Intel Mac OS X 10_15_7) AppleWebKit/537.36 (KHTML, like Gecko) Chrome/93.0.4577.63 Safari/537.36",Macintosh,Chrome,93.0.4577.63,"OS X",10_15_7,fe3c1d035a65c549f7011c5446f73ede
30,1,null,null,psychophysics,170,277798,0.0-3.0-1.82,"""",key,null,16.667000000000048,720,311,"""","""","""","""","""","""","""","""","2021-10-05 04:45:03",142.114.90.103,"Mozilla/5.0 (Macintosh; Intel Mac OS X 10_15_7) AppleWebKit/537.36 (KHTML, like Gecko) Chrome/93.0.4577.63 Safari/537.36",Macintosh,Chrome,93.0.4577.63,"OS X",10_15_7,fe3c1d035a65c549f7011c5446f73ede
30,1,850.1000000238419,arrowleft,psychophysics,171,278649,0.0-3.0-0.83,"""",key,arrowleft,16.666999999999533,720,311,84,4,-1,30,35,25,35,true,"2021-10-05 04:45:03",142.114.90.103,"Mozilla/5.0 (Macintosh; Intel Mac OS X 10_15_7) AppleWebKit/537.36 (KHTML, like Gecko) Chrome/93.0.4577.63 Safari/537.36",Macintosh,Chrome,93.0.4577.63,"OS X",10_15_7,fe3c1d035a65c549f7011c5446f73ede
30,1,null,null,psychophysics,172,279651,0.0-3.0-1.83,"""",key,null,16.667000000000048,720,311,"""","""","""","""","""","""","""","""","2021-10-05 04:45:03",142.114.90.103,"Mozilla/5.0 (Macintosh; Intel Mac OS X 10_15_7) AppleWebKit/537.36 (KHTML, like Gecko) Chrome/93.0.4577.63 Safari/537.36",Macintosh,Chrome,93.0.4577.63,"OS X",10_15_7,fe3c1d035a65c549f7011c5446f73ede
30,1,9528.800000011921," ",html-keyboard-response,173,289181,0.0-3.0-2.83-0.83,"<div style=""color: white; text-align: center; vertical-align: top; display: inline-block; width: 800px; margin: auto""><p>You have completed 30% of the trials. You are on block 4 of 10. <br>Good job! Take a break if you need to.</p><p>Press any key to continue the experiment.</p></div>","""","""","""","""","""","""","""","""","""","""","""","""","""","2021-10-05 04:45:03",142.114.90.103,"Mozilla/5.0 (Macintosh; Intel Mac OS X 10_15_7) AppleWebKit/537.36 (KHTML, like Gecko) Chrome/93.0.4577.63 Safari/537.36",Macintosh,Chrome,93.0.4577.63,"OS X",10_15_7,fe3c1d035a65c549f7011c5446f73ede
30,1,1968.6000000238419,arrowleft,psychophysics,174,292151,0.0-3.0-0.84,"""",key,arrowleft,16.66866949152535,720,311,85,4,-1,25,35,25,35,true,"2021-10-05 04:45:03",142.114.90.103,"Mozilla/5.0 (Macintosh; Intel Mac OS X 10_15_7) AppleWebKit/537.36 (KHTML, like Gecko) Chrome/93.0.4577.63 Safari/537.36",Macintosh,Chrome,93.0.4577.63,"OS X",10_15_7,fe3c1d035a65c549f7011c5446f73ede
30,1,null,null,psychophysics,175,293153,0.0-3.0-1.84,"""",key,null,16.667000000000048,720,311,"""","""","""","""","""","""","""","""","2021-10-05 04:45:03",142.114.90.103,"Mozilla/5.0 (Macintosh; Intel Mac OS X 10_15_7) AppleWebKit/537.36 (KHTML, like Gecko) Chrome/93.0.4577.63 Safari/537.36",Macintosh,Chrome,93.0.4577.63,"OS X",10_15_7,fe3c1d035a65c549f7011c5446f73ede
30,1,1439.199999988079,arrowleft,psychophysics,176,294594,0.0-3.0-0.85,"""",key,arrowleft,16.66699999999959,720,311,86,4,-1,20,15,25,35,true,"2021-10-05 04:45:03",142.114.90.103,"Mozilla/5.0 (Macintosh; Intel Mac OS X 10_15_7) AppleWebKit/537.36 (KHTML, like Gecko) Chrome/93.0.4577.63 Safari/537.36",Macintosh,Chrome,93.0.4577.63,"OS X",10_15_7,fe3c1d035a65c549f7011c5446f73ede
30,1,null,null,psychophysics,177,295595,0.0-3.0-1.85,"""",key,null,16.667000000000048,720,311,"""","""","""","""","""","""","""","""","2021-10-05 04:45:03",142.114.90.103,"Mozilla/5.0 (Macintosh; Intel Mac OS X 10_15_7) AppleWebKit/537.36 (KHTML, like Gecko) Chrome/93.0.4577.63 Safari/537.36",Macintosh,Chrome,93.0.4577.63,"OS X",10_15_7,fe3c1d035a65c549f7011c5446f73ede
30,1,749.8000000119209,arrowright,psychophysics,178,296346,0.0-3.0-0.86,"""",key,arrowright,16.66699999999996,720,311,87,4,-1,20,35,25,35,false,"2021-10-05 04:45:03",142.114.90.103,"Mozilla/5.0 (Macintosh; Intel Mac OS X 10_15_7) AppleWebKit/537.36 (KHTML, like Gecko) Chrome/93.0.4577.63 Safari/537.36",Macintosh,Chrome,93.0.4577.63,"OS X",10_15_7,fe3c1d035a65c549f7011c5446f73ede
30,1,null,null,psychophysics,179,297348,0.0-3.0-1.86,"""",key,null,16.667000000000048,720,311,"""","""","""","""","""","""","""","""","2021-10-05 04:45:03",142.114.90.103,"Mozilla/5.0 (Macintosh; Intel Mac OS X 10_15_7) AppleWebKit/537.36 (KHTML, like Gecko) Chrome/93.0.4577.63 Safari/537.36",Macintosh,Chrome,93.0.4577.63,"OS X",10_15_7,fe3c1d035a65c549f7011c5446f73ede
30,1,809,arrowright,psychophysics,180,298158,0.0-3.0-0.87,"""",key,arrowright,16.66699999999973,720,311,88,4,1,30,15,25,35,true,"2021-10-05 04:45:03",142.114.90.103,"Mozilla/5.0 (Macintosh; Intel Mac OS X 10_15_7) AppleWebKit/537.36 (KHTML, like Gecko) Chrome/93.0.4577.63 Safari/537.36",Macintosh,Chrome,93.0.4577.63,"OS X",10_15_7,fe3c1d035a65c549f7011c5446f73ede
30,1,null,null,psychophysics,181,299160,0.0-3.0-1.87,"""",key,null,16.667000000000048,720,311,"""","""","""","""","""","""","""","""","2021-10-05 04:45:03",142.114.90.103,"Mozilla/5.0 (Macintosh; Intel Mac OS X 10_15_7) AppleWebKit/537.36 (KHTML, like Gecko) Chrome/93.0.4577.63 Safari/537.36",Macintosh,Chrome,93.0.4577.63,"OS X",10_15_7,fe3c1d035a65c549f7011c5446f73ede
30,1,570.5999999642372,arrowleft,psychophysics,182,299732,0.0-3.0-0.88,"""",key,arrowleft,16.65129411764621,720,311,89,4,1,24,15,25,35,false,"2021-10-05 04:45:03",142.114.90.103,"Mozilla/5.0 (Macintosh; Intel Mac OS X 10_15_7) AppleWebKit/537.36 (KHTML, like Gecko) Chrome/93.0.4577.63 Safari/537.36",Macintosh,Chrome,93.0.4577.63,"OS X",10_15_7,fe3c1d035a65c549f7011c5446f73ede
30,1,null,null,psychophysics,183,300733,0.0-3.0-1.88,"""",key,null,16.667000000000048,720,311,"""","""","""","""","""","""","""","""","2021-10-05 04:45:03",142.114.90.103,"Mozilla/5.0 (Macintosh; Intel Mac OS X 10_15_7) AppleWebKit/537.36 (KHTML, like Gecko) Chrome/93.0.4577.63 Safari/537.36",Macintosh,Chrome,93.0.4577.63,"OS X",10_15_7,fe3c1d035a65c549f7011c5446f73ede
30,1,609.8999999761581,arrowright,psychophysics,184,301344,0.0-3.0-0.89,"""",key,arrowright,16.666999999999664,720,311,90,4,1,25,35,25,35,true,"2021-10-05 04:45:03",142.114.90.103,"Mozilla/5.0 (Macintosh; Intel Mac OS X 10_15_7) AppleWebKit/537.36 (KHTML, like Gecko) Chrome/93.0.4577.63 Safari/537.36",Macintosh,Chrome,93.0.4577.63,"OS X",10_15_7,fe3c1d035a65c549f7011c5446f73ede
30,1,null,null,psychophysics,185,302345,0.0-3.0-1.89,"""",key,null,16.667000000000048,720,311,"""","""","""","""","""","""","""","""","2021-10-05 04:45:03",142.114.90.103,"Mozilla/5.0 (Macintosh; Intel Mac OS X 10_15_7) AppleWebKit/537.36 (KHTML, like Gecko) Chrome/93.0.4577.63 Safari/537.36",Macintosh,Chrome,93.0.4577.63,"OS X",10_15_7,fe3c1d035a65c549f7011c5446f73ede
30,1,703.8000000119209,arrowleft,psychophysics,186,303051,0.0-3.0-0.90,"""",key,arrowleft,16.667000000000215,720,311,91,4,-1,26,15,25,35,true,"2021-10-05 04:45:03",142.114.90.103,"Mozilla/5.0 (Macintosh; Intel Mac OS X 10_15_7) AppleWebKit/537.36 (KHTML, like Gecko) Chrome/93.0.4577.63 Safari/537.36",Macintosh,Chrome,93.0.4577.63,"OS X",10_15_7,fe3c1d035a65c549f7011c5446f73ede
30,1,null,null,psychophysics,187,304054,0.0-3.0-1.90,"""",key,null,16.667000000000048,720,311,"""","""","""","""","""","""","""","""","2021-10-05 04:45:03",142.114.90.103,"Mozilla/5.0 (Macintosh; Intel Mac OS X 10_15_7) AppleWebKit/537.36 (KHTML, like Gecko) Chrome/93.0.4577.63 Safari/537.36",Macintosh,Chrome,93.0.4577.63,"OS X",10_15_7,fe3c1d035a65c549f7011c5446f73ede
30,1,672.5999999642372,arrowleft,psychophysics,188,304729,0.0-3.0-0.91,"""",key,arrowleft,16.666999999999824,720,311,92,4,1,26,35,25,35,false,"2021-10-05 04:45:03",142.114.90.103,"Mozilla/5.0 (Macintosh; Intel Mac OS X 10_15_7) AppleWebKit/537.36 (KHTML, like Gecko) Chrome/93.0.4577.63 Safari/537.36",Macintosh,Chrome,93.0.4577.63,"OS X",10_15_7,fe3c1d035a65c549f7011c5446f73ede
30,1,null,null,psychophysics,189,305730,0.0-3.0-1.91,"""",key,null,16.66699999999906,720,311,"""","""","""","""","""","""","""","""","2021-10-05 04:45:03",142.114.90.103,"Mozilla/5.0 (Macintosh; Intel Mac OS X 10_15_7) AppleWebKit/537.36 (KHTML, like Gecko) Chrome/93.0.4577.63 Safari/537.36",Macintosh,Chrome,93.0.4577.63,"OS X",10_15_7,fe3c1d035a65c549f7011c5446f73ede
30,1,887.6999999880791,arrowright,psychophysics,190,306620,0.0-3.0-0.92,"""",key,arrowright,16.66700000000016,720,311,93,4,-1,20,35,25,35,false,"2021-10-05 04:45:03",142.114.90.103,"Mozilla/5.0 (Macintosh; Intel Mac OS X 10_15_7) AppleWebKit/537.36 (KHTML, like Gecko) Chrome/93.0.4577.63 Safari/537.36",Macintosh,Chrome,93.0.4577.63,"OS X",10_15_7,fe3c1d035a65c549f7011c5446f73ede
30,1,null,null,psychophysics,191,307623,0.0-3.0-1.92,"""",key,null,16.667000000000048,720,311,"""","""","""","""","""","""","""","""","2021-10-05 04:45:03",142.114.90.103,"Mozilla/5.0 (Macintosh; Intel Mac OS X 10_15_7) AppleWebKit/537.36 (KHTML, like Gecko) Chrome/93.0.4577.63 Safari/537.36",Macintosh,Chrome,93.0.4577.63,"OS X",10_15_7,fe3c1d035a65c549f7011c5446f73ede
30,1,646,arrowleft,psychophysics,192,308270,0.0-3.0-0.93,"""",key,arrowleft,16.667000000000513,720,311,94,4,1,23,15,25,35,false,"2021-10-05 04:45:03",142.114.90.103,"Mozilla/5.0 (Macintosh; Intel Mac OS X 10_15_7) AppleWebKit/537.36 (KHTML, like Gecko) Chrome/93.0.4577.63 Safari/537.36",Macintosh,Chrome,93.0.4577.63,"OS X",10_15_7,fe3c1d035a65c549f7011c5446f73ede
30,1,null,null,psychophysics,193,309274,0.0-3.0-1.93,"""",key,null,16.667000000000048,720,311,"""","""","""","""","""","""","""","""","2021-10-05 04:45:03",142.114.90.103,"Mozilla/5.0 (Macintosh; Intel Mac OS X 10_15_7) AppleWebKit/537.36 (KHTML, like Gecko) Chrome/93.0.4577.63 Safari/537.36",Macintosh,Chrome,93.0.4577.63,"OS X",10_15_7,fe3c1d035a65c549f7011c5446f73ede
30,1,1003.1000000238419,arrowleft,psychophysics,194,310278,0.0-3.0-0.94,"""",key,arrowleft,16.66434999999959,720,311,95,4,1,25,15,25,35,false,"2021-10-05 04:45:03",142.114.90.103,"Mozilla/5.0 (Macintosh; Intel Mac OS X 10_15_7) AppleWebKit/537.36 (KHTML, like Gecko) Chrome/93.0.4577.63 Safari/537.36",Macintosh,Chrome,93.0.4577.63,"OS X",10_15_7,fe3c1d035a65c549f7011c5446f73ede
30,1,null,null,psychophysics,195,311280,0.0-3.0-1.94,"""",key,null,16.667000000000048,720,311,"""","""","""","""","""","""","""","""","2021-10-05 04:45:03",142.114.90.103,"Mozilla/5.0 (Macintosh; Intel Mac OS X 10_15_7) AppleWebKit/537.36 (KHTML, like Gecko) Chrome/93.0.4577.63 Safari/537.36",Macintosh,Chrome,93.0.4577.63,"OS X",10_15_7,fe3c1d035a65c549f7011c5446f73ede
30,1,895.6999999880791,arrowright,psychophysics,196,312178,0.0-3.0-0.95,"""",key,arrowright,16.667000000000456,720,311,96,4,1,27,35,25,35,true,"2021-10-05 04:45:03",142.114.90.103,"Mozilla/5.0 (Macintosh; Intel Mac OS X 10_15_7) AppleWebKit/537.36 (KHTML, like Gecko) Chrome/93.0.4577.63 Safari/537.36",Macintosh,Chrome,93.0.4577.63,"OS X",10_15_7,fe3c1d035a65c549f7011c5446f73ede
30,1,null,null,psychophysics,197,313179,0.0-3.0-1.95,"""",key,null,16.667000000000048,720,311,"""","""","""","""","""","""","""","""","2021-10-05 04:45:03",142.114.90.103,"Mozilla/5.0 (Macintosh; Intel Mac OS X 10_15_7) AppleWebKit/537.36 (KHTML, like Gecko) Chrome/93.0.4577.63 Safari/537.36",Macintosh,Chrome,93.0.4577.63,"OS X",10_15_7,fe3c1d035a65c549f7011c5446f73ede
30,1,614.6000000238419,arrowleft,psychophysics,198,313796,0.0-3.0-0.96,"""",key,arrowleft,16.66700000000128,720,311,97,4,1,20,35,25,35,false,"2021-10-05 04:45:03",142.114.90.103,"Mozilla/5.0 (Macintosh; Intel Mac OS X 10_15_7) AppleWebKit/537.36 (KHTML, like Gecko) Chrome/93.0.4577.63 Safari/537.36",Macintosh,Chrome,93.0.4577.63,"OS X",10_15_7,fe3c1d035a65c549f7011c5446f73ede
30,1,null,null,psychophysics,199,314798,0.0-3.0-1.96,"""",key,null,16.667000000000048,720,311,"""","""","""","""","""","""","""","""","2021-10-05 04:45:03",142.114.90.103,"Mozilla/5.0 (Macintosh; Intel Mac OS X 10_15_7) AppleWebKit/537.36 (KHTML, like Gecko) Chrome/93.0.4577.63 Safari/537.36",Macintosh,Chrome,93.0.4577.63,"OS X",10_15_7,fe3c1d035a65c549f7011c5446f73ede
30,1,783.3999999761581,arrowright,psychophysics,200,315583,0.0-3.0-0.97,"""",key,arrowright,16.666999999999383,720,311,98,4,1,30,35,25,35,true,"2021-10-05 04:45:03",142.114.90.103,"Mozilla/5.0 (Macintosh; Intel Mac OS X 10_15_7) AppleWebKit/537.36 (KHTML, like Gecko) Chrome/93.0.4577.63 Safari/537.36",Macintosh,Chrome,93.0.4577.63,"OS X",10_15_7,fe3c1d035a65c549f7011c5446f73ede
30,1,null,null,psychophysics,201,316587,0.0-3.0-1.97,"""",key,null,16.667000000000048,720,311,"""","""","""","""","""","""","""","""","2021-10-05 04:45:03",142.114.90.103,"Mozilla/5.0 (Macintosh; Intel Mac OS X 10_15_7) AppleWebKit/537.36 (KHTML, like Gecko) Chrome/93.0.4577.63 Safari/537.36",Macintosh,Chrome,93.0.4577.63,"OS X",10_15_7,fe3c1d035a65c549f7011c5446f73ede
30,1,674.6000000238419,arrowleft,psychophysics,202,317263,0.0-3.0-0.98,"""",key,arrowleft,16.666999999999824,720,311,99,4,-1,23,15,25,35,true,"2021-10-05 04:45:03",142.114.90.103,"Mozilla/5.0 (Macintosh; Intel Mac OS X 10_15_7) AppleWebKit/537.36 (KHTML, like Gecko) Chrome/93.0.4577.63 Safari/537.36",Macintosh,Chrome,93.0.4577.63,"OS X",10_15_7,fe3c1d035a65c549f7011c5446f73ede
30,1,null,null,psychophysics,203,318264,0.0-3.0-1.98,"""",key,null,16.667000000000048,720,311,"""","""","""","""","""","""","""","""","2021-10-05 04:45:03",142.114.90.103,"Mozilla/5.0 (Macintosh; Intel Mac OS X 10_15_7) AppleWebKit/537.36 (KHTML, like Gecko) Chrome/93.0.4577.63 Safari/537.36",Macintosh,Chrome,93.0.4577.63,"OS X",10_15_7,fe3c1d035a65c549f7011c5446f73ede
30,1,748.3000000119209,arrowleft,psychophysics,204,319014,0.0-3.0-0.99,"""",key,arrowleft,16.66699999999996,720,311,100,4,1,26,35,25,35,false,"2021-10-05 04:45:03",142.114.90.103,"Mozilla/5.0 (Macintosh; Intel Mac OS X 10_15_7) AppleWebKit/537.36 (KHTML, like Gecko) Chrome/93.0.4577.63 Safari/537.36",Macintosh,Chrome,93.0.4577.63,"OS X",10_15_7,fe3c1d035a65c549f7011c5446f73ede
30,1,null,null,psychophysics,205,320015,0.0-3.0-1.99,"""",key,null,16.66430508474606,720,311,"""","""","""","""","""","""","""","""","2021-10-05 04:45:03",142.114.90.103,"Mozilla/5.0 (Macintosh; Intel Mac OS X 10_15_7) AppleWebKit/537.36 (KHTML, like Gecko) Chrome/93.0.4577.63 Safari/537.36",Macintosh,Chrome,93.0.4577.63,"OS X",10_15_7,fe3c1d035a65c549f7011c5446f73ede
30,1,745.0999999642372,arrowleft,psychophysics,206,320762,0.0-3.0-0.100,"""",key,arrowleft,16.66699999999996,720,311,101,4,-1,26,35,25,35,true,"2021-10-05 04:45:03",142.114.90.103,"Mozilla/5.0 (Macintosh; Intel Mac OS X 10_15_7) AppleWebKit/537.36 (KHTML, like Gecko) Chrome/93.0.4577.63 Safari/537.36",Macintosh,Chrome,93.0.4577.63,"OS X",10_15_7,fe3c1d035a65c549f7011c5446f73ede
30,1,null,null,psychophysics,207,321763,0.0-3.0-1.100,"""",key,null,16.667000000000048,720,311,"""","""","""","""","""","""","""","""","2021-10-05 04:45:03",142.114.90.103,"Mozilla/5.0 (Macintosh; Intel Mac OS X 10_15_7) AppleWebKit/537.36 (KHTML, like Gecko) Chrome/93.0.4577.63 Safari/537.36",Macintosh,Chrome,93.0.4577.63,"OS X",10_15_7,fe3c1d035a65c549f7011c5446f73ede
30,1,737.6000000238419,arrowleft,psychophysics,208,322503,0.0-3.0-0.101,"""",key,arrowleft,16.66699999999959,720,311,102,4,-1,24,15,25,35,true,"2021-10-05 04:45:03",142.114.90.103,"Mozilla/5.0 (Macintosh; Intel Mac OS X 10_15_7) AppleWebKit/537.36 (KHTML, like Gecko) Chrome/93.0.4577.63 Safari/537.36",Macintosh,Chrome,93.0.4577.63,"OS X",10_15_7,fe3c1d035a65c549f7011c5446f73ede
30,1,null,null,psychophysics,209,323505,0.0-3.0-1.101,"""",key,null,16.667000000000048,720,311,"""","""","""","""","""","""","""","""","2021-10-05 04:45:03",142.114.90.103,"Mozilla/5.0 (Macintosh; Intel Mac OS X 10_15_7) AppleWebKit/537.36 (KHTML, like Gecko) Chrome/93.0.4577.63 Safari/537.36",Macintosh,Chrome,93.0.4577.63,"OS X",10_15_7,fe3c1d035a65c549f7011c5446f73ede
30,1,592.2000000476837,arrowleft,psychophysics,210,324099,0.0-3.0-0.102,"""",key,arrowleft,16.666999999999202,720,311,103,4,-1,26,35,25,35,true,"2021-10-05 04:45:03",142.114.90.103,"Mozilla/5.0 (Macintosh; Intel Mac OS X 10_15_7) AppleWebKit/537.36 (KHTML, like Gecko) Chrome/93.0.4577.63 Safari/537.36",Macintosh,Chrome,93.0.4577.63,"OS X",10_15_7,fe3c1d035a65c549f7011c5446f73ede
30,1,null,null,psychophysics,211,325102,0.0-3.0-1.102,"""",key,null,16.667000000000048,720,311,"""","""","""","""","""","""","""","""","2021-10-05 04:45:03",142.114.90.103,"Mozilla/5.0 (Macintosh; Intel Mac OS X 10_15_7) AppleWebKit/537.36 (KHTML, like Gecko) Chrome/93.0.4577.63 Safari/537.36",Macintosh,Chrome,93.0.4577.63,"OS X",10_15_7,fe3c1d035a65c549f7011c5446f73ede
30,1,616.6999999880791,arrowleft,psychophysics,212,325720,0.0-3.0-0.103,"""",key,arrowleft,16.666999999999664,720,311,104,4,-1,26,15,25,35,true,"2021-10-05 04:45:03",142.114.90.103,"Mozilla/5.0 (Macintosh; Intel Mac OS X 10_15_7) AppleWebKit/537.36 (KHTML, like Gecko) Chrome/93.0.4577.63 Safari/537.36",Macintosh,Chrome,93.0.4577.63,"OS X",10_15_7,fe3c1d035a65c549f7011c5446f73ede
30,1,null,null,psychophysics,213,326723,0.0-3.0-1.103,"""",key,null,16.667000000000048,720,311,"""","""","""","""","""","""","""","""","2021-10-05 04:45:03",142.114.90.103,"Mozilla/5.0 (Macintosh; Intel Mac OS X 10_15_7) AppleWebKit/537.36 (KHTML, like Gecko) Chrome/93.0.4577.63 Safari/537.36",Macintosh,Chrome,93.0.4577.63,"OS X",10_15_7,fe3c1d035a65c549f7011c5446f73ede
30,1,1581.9000000357628,arrowleft,psychophysics,214,328307,0.0-3.0-0.104,"""",key,arrowleft,16.667000000000353,720,311,105,4,-1,20,35,25,35,true,"2021-10-05 04:45:03",142.114.90.103,"Mozilla/5.0 (Macintosh; Intel Mac OS X 10_15_7) AppleWebKit/537.36 (KHTML, like Gecko) Chrome/93.0.4577.63 Safari/537.36",Macintosh,Chrome,93.0.4577.63,"OS X",10_15_7,fe3c1d035a65c549f7011c5446f73ede
30,1,null,null,psychophysics,215,329309,0.0-3.0-1.104,"""",key,null,16.667000000000048,720,311,"""","""","""","""","""","""","""","""","2021-10-05 04:45:03",142.114.90.103,"Mozilla/5.0 (Macintosh; Intel Mac OS X 10_15_7) AppleWebKit/537.36 (KHTML, like Gecko) Chrome/93.0.4577.63 Safari/537.36",Macintosh,Chrome,93.0.4577.63,"OS X",10_15_7,fe3c1d035a65c549f7011c5446f73ede
30,1,638.6999999880791,arrowleft,psychophysics,216,329949,0.0-3.0-0.105,"""",key,arrowleft,16.662815789473058,720,311,106,4,-1,24,35,25,35,true,"2021-10-05 04:45:03",142.114.90.103,"Mozilla/5.0 (Macintosh; Intel Mac OS X 10_15_7) AppleWebKit/537.36 (KHTML, like Gecko) Chrome/93.0.4577.63 Safari/537.36",Macintosh,Chrome,93.0.4577.63,"OS X",10_15_7,fe3c1d035a65c549f7011c5446f73ede
30,1,null,null,psychophysics,217,330951,0.0-3.0-1.105,"""",key,null,16.667000000000048,720,311,"""","""","""","""","""","""","""","""","2021-10-05 04:45:03",142.114.90.103,"Mozilla/5.0 (Macintosh; Intel Mac OS X 10_15_7) AppleWebKit/537.36 (KHTML, like Gecko) Chrome/93.0.4577.63 Safari/537.36",Macintosh,Chrome,93.0.4577.63,"OS X",10_15_7,fe3c1d035a65c549f7011c5446f73ede
30,1,1214.3999999761581,arrowright,psychophysics,218,332167,0.0-3.0-0.106,"""",key,arrowright,16.666999999999664,720,311,107,4,1,30,15,25,35,true,"2021-10-05 04:45:03",142.114.90.103,"Mozilla/5.0 (Macintosh; Intel Mac OS X 10_15_7) AppleWebKit/537.36 (KHTML, like Gecko) Chrome/93.0.4577.63 Safari/537.36",Macintosh,Chrome,93.0.4577.63,"OS X",10_15_7,fe3c1d035a65c549f7011c5446f73ede
30,1,null,null,psychophysics,219,333170,0.0-3.0-1.106,"""",key,null,16.667000000000048,720,311,"""","""","""","""","""","""","""","""","2021-10-05 04:45:03",142.114.90.103,"Mozilla/5.0 (Macintosh; Intel Mac OS X 10_15_7) AppleWebKit/537.36 (KHTML, like Gecko) Chrome/93.0.4577.63 Safari/537.36",Macintosh,Chrome,93.0.4577.63,"OS X",10_15_7,fe3c1d035a65c549f7011c5446f73ede
30,1,591.4000000357628,arrowleft,psychophysics,220,333763,0.0-3.0-0.107,"""",key,arrowleft,16.666999999999202,720,311,108,4,1,20,15,25,35,false,"2021-10-05 04:45:03",142.114.90.103,"Mozilla/5.0 (Macintosh; Intel Mac OS X 10_15_7) AppleWebKit/537.36 (KHTML, like Gecko) Chrome/93.0.4577.63 Safari/537.36",Macintosh,Chrome,93.0.4577.63,"OS X",10_15_7,fe3c1d035a65c549f7011c5446f73ede
30,1,null,null,psychophysics,221,334766,0.0-3.0-1.107,"""",key,null,16.667000000000048,720,311,"""","""","""","""","""","""","""","""","2021-10-05 04:45:03",142.114.90.103,"Mozilla/5.0 (Macintosh; Intel Mac OS X 10_15_7) AppleWebKit/537.36 (KHTML, like Gecko) Chrome/93.0.4577.63 Safari/537.36",Macintosh,Chrome,93.0.4577.63,"OS X",10_15_7,fe3c1d035a65c549f7011c5446f73ede
30,1,1245.5,arrowright,psychophysics,222,336013,0.0-3.0-0.108,"""",key,arrowright,16.666999999999312,720,311,109,4,1,30,35,25,35,true,"2021-10-05 04:45:03",142.114.90.103,"Mozilla/5.0 (Macintosh; Intel Mac OS X 10_15_7) AppleWebKit/537.36 (KHTML, like Gecko) Chrome/93.0.4577.63 Safari/537.36",Macintosh,Chrome,93.0.4577.63,"OS X",10_15_7,fe3c1d035a65c549f7011c5446f73ede
30,1,null,null,psychophysics,223,337014,0.0-3.0-1.108,"""",key,null,16.667000000000048,720,311,"""","""","""","""","""","""","""","""","2021-10-05 04:45:03",142.114.90.103,"Mozilla/5.0 (Macintosh; Intel Mac OS X 10_15_7) AppleWebKit/537.36 (KHTML, like Gecko) Chrome/93.0.4577.63 Safari/537.36",Macintosh,Chrome,93.0.4577.63,"OS X",10_15_7,fe3c1d035a65c549f7011c5446f73ede
30,1,1047.300000011921,arrowleft,psychophysics,224,338063,0.0-3.0-0.109,"""",key,arrowleft,16.666999999999874,720,311,110,4,1,20,35,25,35,false,"2021-10-05 04:45:03",142.114.90.103,"Mozilla/5.0 (Macintosh; Intel Mac OS X 10_15_7) AppleWebKit/537.36 (KHTML, like Gecko) Chrome/93.0.4577.63 Safari/537.36",Macintosh,Chrome,93.0.4577.63,"OS X",10_15_7,fe3c1d035a65c549f7011c5446f73ede
30,1,null,null,psychophysics,225,339064,0.0-3.0-1.109,"""",key,null,16.667000000000048,720,311,"""","""","""","""","""","""","""","""","2021-10-05 04:45:03",142.114.90.103,"Mozilla/5.0 (Macintosh; Intel Mac OS X 10_15_7) AppleWebKit/537.36 (KHTML, like Gecko) Chrome/93.0.4577.63 Safari/537.36",Macintosh,Chrome,93.0.4577.63,"OS X",10_15_7,fe3c1d035a65c549f7011c5446f73ede
30,1,614.8000000119209,arrowleft,psychophysics,226,339680,0.0-3.0-0.110,"""",key,arrowleft,16.659111111111187,720,311,111,4,-1,30,35,25,35,true,"2021-10-05 04:45:03",142.114.90.103,"Mozilla/5.0 (Macintosh; Intel Mac OS X 10_15_7) AppleWebKit/537.36 (KHTML, like Gecko) Chrome/93.0.4577.63 Safari/537.36",Macintosh,Chrome,93.0.4577.63,"OS X",10_15_7,fe3c1d035a65c549f7011c5446f73ede
30,1,null,null,psychophysics,227,340687,0.0-3.0-1.110,"""",key,null,16.667000000000048,720,311,"""","""","""","""","""","""","""","""","2021-10-05 04:45:03",142.114.90.103,"Mozilla/5.0 (Macintosh; Intel Mac OS X 10_15_7) AppleWebKit/537.36 (KHTML, like Gecko) Chrome/93.0.4577.63 Safari/537.36",Macintosh,Chrome,93.0.4577.63,"OS X",10_15_7,fe3c1d035a65c549f7011c5446f73ede
30,1,1131.5,arrowleft,psychophysics,228,341820,0.0-3.0-0.111,"""",key,arrowleft,16.667000000000193,720,311,112,5,-1,23,15,25,35,true,"2021-10-05 04:45:03",142.114.90.103,"Mozilla/5.0 (Macintosh; Intel Mac OS X 10_15_7) AppleWebKit/537.36 (KHTML, like Gecko) Chrome/93.0.4577.63 Safari/537.36",Macintosh,Chrome,93.0.4577.63,"OS X",10_15_7,fe3c1d035a65c549f7011c5446f73ede
30,1,null,null,psychophysics,229,342821,0.0-3.0-1.111,"""",key,null,16.667000000000048,720,311,"""","""","""","""","""","""","""","""","2021-10-05 04:45:03",142.114.90.103,"Mozilla/5.0 (Macintosh; Intel Mac OS X 10_15_7) AppleWebKit/537.36 (KHTML, like Gecko) Chrome/93.0.4577.63 Safari/537.36",Macintosh,Chrome,93.0.4577.63,"OS X",10_15_7,fe3c1d035a65c549f7011c5446f73ede
30,1,23500.700000047684," ",html-keyboard-response,230,366322,0.0-3.0-2.111-0.111,"<div style=""color: white; text-align: center; vertical-align: top; display: inline-block; width: 800px; margin: auto""><p>You have completed 40% of the trials. You are on block 5 of 10. <br>Good job! Take a break if you need to.</p><p>Press any key to continue the experiment.</p></div>","""","""","""","""","""","""","""","""","""","""","""","""","""","2021-10-05 04:45:03",142.114.90.103,"Mozilla/5.0 (Macintosh; Intel Mac OS X 10_15_7) AppleWebKit/537.36 (KHTML, like Gecko) Chrome/93.0.4577.63 Safari/537.36",Macintosh,Chrome,93.0.4577.63,"OS X",10_15_7,fe3c1d035a65c549f7011c5446f73ede
30,1,2006.800000011921,arrowleft,psychophysics,231,369335,0.0-3.0-0.112,"""",key,arrowleft,16.66463333333328,720,311,113,5,-1,24,35,25,35,true,"2021-10-05 04:45:03",142.114.90.103,"Mozilla/5.0 (Macintosh; Intel Mac OS X 10_15_7) AppleWebKit/537.36 (KHTML, like Gecko) Chrome/93.0.4577.63 Safari/537.36",Macintosh,Chrome,93.0.4577.63,"OS X",10_15_7,fe3c1d035a65c549f7011c5446f73ede
30,1,null,null,psychophysics,232,370337,0.0-3.0-1.112,"""",key,null,16.667000000000048,720,311,"""","""","""","""","""","""","""","""","2021-10-05 04:45:03",142.114.90.103,"Mozilla/5.0 (Macintosh; Intel Mac OS X 10_15_7) AppleWebKit/537.36 (KHTML, like Gecko) Chrome/93.0.4577.63 Safari/537.36",Macintosh,Chrome,93.0.4577.63,"OS X",10_15_7,fe3c1d035a65c549f7011c5446f73ede
30,1,1517.1000000238419,arrowright,psychophysics,233,371856,0.0-3.0-0.113,"""",key,arrowright,16.666999999999664,720,311,114,5,-1,20,15,25,35,false,"2021-10-05 04:45:03",142.114.90.103,"Mozilla/5.0 (Macintosh; Intel Mac OS X 10_15_7) AppleWebKit/537.36 (KHTML, like Gecko) Chrome/93.0.4577.63 Safari/537.36",Macintosh,Chrome,93.0.4577.63,"OS X",10_15_7,fe3c1d035a65c549f7011c5446f73ede
30,1,null,null,psychophysics,234,372858,0.0-3.0-1.113,"""",key,null,16.667000000000048,720,311,"""","""","""","""","""","""","""","""","2021-10-05 04:45:03",142.114.90.103,"Mozilla/5.0 (Macintosh; Intel Mac OS X 10_15_7) AppleWebKit/537.36 (KHTML, like Gecko) Chrome/93.0.4577.63 Safari/537.36",Macintosh,Chrome,93.0.4577.63,"OS X",10_15_7,fe3c1d035a65c549f7011c5446f73ede
30,1,841.3999999761581,arrowleft,psychophysics,235,373701,0.0-3.0-0.114,"""",key,arrowleft,16.666999999999533,720,311,115,5,-1,27,15,25,35,true,"2021-10-05 04:45:03",142.114.90.103,"Mozilla/5.0 (Macintosh; Intel Mac OS X 10_15_7) AppleWebKit/537.36 (KHTML, like Gecko) Chrome/93.0.4577.63 Safari/537.36",Macintosh,Chrome,93.0.4577.63,"OS X",10_15_7,fe3c1d035a65c549f7011c5446f73ede
30,1,null,null,psychophysics,236,374704,0.0-3.0-1.114,"""",key,null,16.667000000000048,720,311,"""","""","""","""","""","""","""","""","2021-10-05 04:45:03",142.114.90.103,"Mozilla/5.0 (Macintosh; Intel Mac OS X 10_15_7) AppleWebKit/537.36 (KHTML, like Gecko) Chrome/93.0.4577.63 Safari/537.36",Macintosh,Chrome,93.0.4577.63,"OS X",10_15_7,fe3c1d035a65c549f7011c5446f73ede
30,1,2924.199999988079,arrowleft,psychophysics,237,377630,0.0-3.0-0.115,"""",key,arrowleft,16.666999999999867,720,311,116,5,1,24,15,25,35,false,"2021-10-05 04:45:03",142.114.90.103,"Mozilla/5.0 (Macintosh; Intel Mac OS X 10_15_7) AppleWebKit/537.36 (KHTML, like Gecko) Chrome/93.0.4577.63 Safari/537.36",Macintosh,Chrome,93.0.4577.63,"OS X",10_15_7,fe3c1d035a65c549f7011c5446f73ede
30,1,null,null,psychophysics,238,378632,0.0-3.0-1.115,"""",key,null,16.667000000000048,720,311,"""","""","""","""","""","""","""","""","2021-10-05 04:45:03",142.114.90.103,"Mozilla/5.0 (Macintosh; Intel Mac OS X 10_15_7) AppleWebKit/537.36 (KHTML, like Gecko) Chrome/93.0.4577.63 Safari/537.36",Macintosh,Chrome,93.0.4577.63,"OS X",10_15_7,fe3c1d035a65c549f7011c5446f73ede
30,1,1322.699999988079,arrowleft,psychophysics,239,379956,0.0-3.0-0.116,"""",key,arrowleft,16.664961538461892,720,311,117,5,-1,27,35,25,35,true,"2021-10-05 04:45:03",142.114.90.103,"Mozilla/5.0 (Macintosh; Intel Mac OS X 10_15_7) AppleWebKit/537.36 (KHTML, like Gecko) Chrome/93.0.4577.63 Safari/537.36",Macintosh,Chrome,93.0.4577.63,"OS X",10_15_7,fe3c1d035a65c549f7011c5446f73ede
30,1,null,null,psychophysics,240,380957,0.0-3.0-1.116,"""",key,null,16.667000000000048,720,311,"""","""","""","""","""","""","""","""","2021-10-05 04:45:03",142.114.90.103,"Mozilla/5.0 (Macintosh; Intel Mac OS X 10_15_7) AppleWebKit/537.36 (KHTML, like Gecko) Chrome/93.0.4577.63 Safari/537.36",Macintosh,Chrome,93.0.4577.63,"OS X",10_15_7,fe3c1d035a65c549f7011c5446f73ede
30,1,921.6000000238419,arrowleft,psychophysics,241,381881,0.0-3.0-0.117,"""",key,arrowleft,16.66699999999996,720,311,118,5,1,20,15,25,35,false,"2021-10-05 04:45:03",142.114.90.103,"Mozilla/5.0 (Macintosh; Intel Mac OS X 10_15_7) AppleWebKit/537.36 (KHTML, like Gecko) Chrome/93.0.4577.63 Safari/537.36",Macintosh,Chrome,93.0.4577.63,"OS X",10_15_7,fe3c1d035a65c549f7011c5446f73ede
30,1,null,null,psychophysics,242,382882,0.0-3.0-1.117,"""",key,null,16.667000000000048,720,311,"""","""","""","""","""","""","""","""","2021-10-05 04:45:03",142.114.90.103,"Mozilla/5.0 (Macintosh; Intel Mac OS X 10_15_7) AppleWebKit/537.36 (KHTML, like Gecko) Chrome/93.0.4577.63 Safari/537.36",Macintosh,Chrome,93.0.4577.63,"OS X",10_15_7,fe3c1d035a65c549f7011c5446f73ede
30,1,1088.5,arrowleft,psychophysics,243,383973,0.0-3.0-0.118,"""",key,arrowleft,16.66699999999946,720,311,119,5,-1,25,35,25,35,true,"2021-10-05 04:45:03",142.114.90.103,"Mozilla/5.0 (Macintosh; Intel Mac OS X 10_15_7) AppleWebKit/537.36 (KHTML, like Gecko) Chrome/93.0.4577.63 Safari/537.36",Macintosh,Chrome,93.0.4577.63,"OS X",10_15_7,fe3c1d035a65c549f7011c5446f73ede
30,1,null,null,psychophysics,244,384975,0.0-3.0-1.118,"""",key,null,16.667000000000048,720,311,"""","""","""","""","""","""","""","""","2021-10-05 04:45:03",142.114.90.103,"Mozilla/5.0 (Macintosh; Intel Mac OS X 10_15_7) AppleWebKit/537.36 (KHTML, like Gecko) Chrome/93.0.4577.63 Safari/537.36",Macintosh,Chrome,93.0.4577.63,"OS X",10_15_7,fe3c1d035a65c549f7011c5446f73ede
30,1,786.3000000119209,arrowleft,psychophysics,245,385762,0.0-3.0-0.119,"""",key,arrowleft,16.66699999999973,720,311,120,5,-1,27,15,25,35,true,"2021-10-05 04:45:03",142.114.90.103,"Mozilla/5.0 (Macintosh; Intel Mac OS X 10_15_7) AppleWebKit/537.36 (KHTML, like Gecko) Chrome/93.0.4577.63 Safari/537.36",Macintosh,Chrome,93.0.4577.63,"OS X",10_15_7,fe3c1d035a65c549f7011c5446f73ede
30,1,null,null,psychophysics,246,386764,0.0-3.0-1.119,"""",key,null,16.667000000000048,720,311,"""","""","""","""","""","""","""","""","2021-10-05 04:45:03",142.114.90.103,"Mozilla/5.0 (Macintosh; Intel Mac OS X 10_15_7) AppleWebKit/537.36 (KHTML, like Gecko) Chrome/93.0.4577.63 Safari/537.36",Macintosh,Chrome,93.0.4577.63,"OS X",10_15_7,fe3c1d035a65c549f7011c5446f73ede
30,1,614.3000000119209,arrowleft,psychophysics,247,387380,0.0-3.0-0.120,"""",key,arrowleft,16.66700000000128,720,311,121,5,-1,30,15,25,35,true,"2021-10-05 04:45:03",142.114.90.103,"Mozilla/5.0 (Macintosh; Intel Mac OS X 10_15_7) AppleWebKit/537.36 (KHTML, like Gecko) Chrome/93.0.4577.63 Safari/537.36",Macintosh,Chrome,93.0.4577.63,"OS X",10_15_7,fe3c1d035a65c549f7011c5446f73ede
30,1,null,null,psychophysics,248,388381,0.0-3.0-1.120,"""",key,null,16.667000000000048,720,311,"""","""","""","""","""","""","""","""","2021-10-05 04:45:03",142.114.90.103,"Mozilla/5.0 (Macintosh; Intel Mac OS X 10_15_7) AppleWebKit/537.36 (KHTML, like Gecko) Chrome/93.0.4577.63 Safari/537.36",Macintosh,Chrome,93.0.4577.63,"OS X",10_15_7,fe3c1d035a65c549f7011c5446f73ede
30,1,879.1000000238419,arrowleft,psychophysics,249,389261,0.0-3.0-0.121,"""",key,arrowleft,16.663942307692757,720,311,122,5,-1,24,15,25,35,true,"2021-10-05 04:45:03",142.114.90.103,"Mozilla/5.0 (Macintosh; Intel Mac OS X 10_15_7) AppleWebKit/537.36 (KHTML, like Gecko) Chrome/93.0.4577.63 Safari/537.36",Macintosh,Chrome,93.0.4577.63,"OS X",10_15_7,fe3c1d035a65c549f7011c5446f73ede
30,1,null,null,psychophysics,250,390263,0.0-3.0-1.121,"""",key,null,16.667000000000048,720,311,"""","""","""","""","""","""","""","""","2021-10-05 04:45:03",142.114.90.103,"Mozilla/5.0 (Macintosh; Intel Mac OS X 10_15_7) AppleWebKit/537.36 (KHTML, like Gecko) Chrome/93.0.4577.63 Safari/537.36",Macintosh,Chrome,93.0.4577.63,"OS X",10_15_7,fe3c1d035a65c549f7011c5446f73ede
30,1,661.3999999761581,arrowright,psychophysics,251,390927,0.0-3.0-0.122,"""",key,arrowright,16.666999999999415,720,311,123,5,1,30,15,25,35,true,"2021-10-05 04:45:03",142.114.90.103,"Mozilla/5.0 (Macintosh; Intel Mac OS X 10_15_7) AppleWebKit/537.36 (KHTML, like Gecko) Chrome/93.0.4577.63 Safari/537.36",Macintosh,Chrome,93.0.4577.63,"OS X",10_15_7,fe3c1d035a65c549f7011c5446f73ede
30,1,null,null,psychophysics,252,391928,0.0-3.0-1.122,"""",key,null,16.667000000000048,720,311,"""","""","""","""","""","""","""","""","2021-10-05 04:45:03",142.114.90.103,"Mozilla/5.0 (Macintosh; Intel Mac OS X 10_15_7) AppleWebKit/537.36 (KHTML, like Gecko) Chrome/93.0.4577.63 Safari/537.36",Macintosh,Chrome,93.0.4577.63,"OS X",10_15_7,fe3c1d035a65c549f7011c5446f73ede
30,1,1165.5,arrowleft,psychophysics,253,393096,0.0-3.0-0.123,"""",key,arrowleft,16.666999999999803,720,311,124,5,1,26,35,25,35,false,"2021-10-05 04:45:03",142.114.90.103,"Mozilla/5.0 (Macintosh; Intel Mac OS X 10_15_7) AppleWebKit/537.36 (KHTML, like Gecko) Chrome/93.0.4577.63 Safari/537.36",Macintosh,Chrome,93.0.4577.63,"OS X",10_15_7,fe3c1d035a65c549f7011c5446f73ede
30,1,null,null,psychophysics,254,394097,0.0-3.0-1.123,"""",key,null,16.667000000000048,720,311,"""","""","""","""","""","""","""","""","2021-10-05 04:45:03",142.114.90.103,"Mozilla/5.0 (Macintosh; Intel Mac OS X 10_15_7) AppleWebKit/537.36 (KHTML, like Gecko) Chrome/93.0.4577.63 Safari/537.36",Macintosh,Chrome,93.0.4577.63,"OS X",10_15_7,fe3c1d035a65c549f7011c5446f73ede
30,1,1080.199999988079,arrowleft,psychophysics,255,395179,0.0-3.0-0.124,"""",key,arrowleft,16.66700000000037,720,311,125,5,-1,25,15,25,35,true,"2021-10-05 04:45:03",142.114.90.103,"Mozilla/5.0 (Macintosh; Intel Mac OS X 10_15_7) AppleWebKit/537.36 (KHTML, like Gecko) Chrome/93.0.4577.63 Safari/537.36",Macintosh,Chrome,93.0.4577.63,"OS X",10_15_7,fe3c1d035a65c549f7011c5446f73ede
30,1,null,null,psychophysics,256,396180,0.0-3.0-1.124,"""",key,null,16.667000000000048,720,311,"""","""","""","""","""","""","""","""","2021-10-05 04:45:03",142.114.90.103,"Mozilla/5.0 (Macintosh; Intel Mac OS X 10_15_7) AppleWebKit/537.36 (KHTML, like Gecko) Chrome/93.0.4577.63 Safari/537.36",Macintosh,Chrome,93.0.4577.63,"OS X",10_15_7,fe3c1d035a65c549f7011c5446f73ede
30,1,2596.2000000476837,arrowright,psychophysics,257,398779,0.0-3.0-0.125,"""",key,arrowright,16.66700000000006,720,311,126,5,-1,20,15,25,35,false,"2021-10-05 04:45:03",142.114.90.103,"Mozilla/5.0 (Macintosh; Intel Mac OS X 10_15_7) AppleWebKit/537.36 (KHTML, like Gecko) Chrome/93.0.4577.63 Safari/537.36",Macintosh,Chrome,93.0.4577.63,"OS X",10_15_7,fe3c1d035a65c549f7011c5446f73ede
30,1,null,null,psychophysics,258,399780,0.0-3.0-1.125,"""",key,null,16.66430508474606,720,311,"""","""","""","""","""","""","""","""","2021-10-05 04:45:03",142.114.90.103,"Mozilla/5.0 (Macintosh; Intel Mac OS X 10_15_7) AppleWebKit/537.36 (KHTML, like Gecko) Chrome/93.0.4577.63 Safari/537.36",Macintosh,Chrome,93.0.4577.63,"OS X",10_15_7,fe3c1d035a65c549f7011c5446f73ede
30,1,606.5,arrowleft,psychophysics,259,400388,0.0-3.0-0.126,"""",key,arrowleft,16.667000000000865,720,311,127,5,-1,30,35,25,35,true,"2021-10-05 04:45:03",142.114.90.103,"Mozilla/5.0 (Macintosh; Intel Mac OS X 10_15_7) AppleWebKit/537.36 (KHTML, like Gecko) Chrome/93.0.4577.63 Safari/537.36",Macintosh,Chrome,93.0.4577.63,"OS X",10_15_7,fe3c1d035a65c549f7011c5446f73ede
30,1,null,null,psychophysics,260,401391,0.0-3.0-1.126,"""",key,null,16.667000000000048,720,311,"""","""","""","""","""","""","""","""","2021-10-05 04:45:03",142.114.90.103,"Mozilla/5.0 (Macintosh; Intel Mac OS X 10_15_7) AppleWebKit/537.36 (KHTML, like Gecko) Chrome/93.0.4577.63 Safari/537.36",Macintosh,Chrome,93.0.4577.63,"OS X",10_15_7,fe3c1d035a65c549f7011c5446f73ede
