run_id,condition,rt,response,trial_type,trial_index,time_elapsed,internal_node_id,stimulus,response_type,key_press,avg_frame_time,center_x,center_y,trial,block,test_pos,test_inner_radius,test_outer_radius,ref_inner_radius,ref_outer_radius,test_bigger,recorded_at,ip,user_agent,device,browser,browser_version,platform,platform_version,source_code_version
20,1,29344.300000071526,"{""p_id"":""7577"",""age"":""22"",""handedness"":""right"",""sex"":""female"",""other_sex"":""}",survey-html-form,0,29358,0.0-0.0,"""","""","""","""","""","""","""","""","""","""","""","""","""","""","2021-10-03 19:51:37",173.34.188.12,"Mozilla/5.0 (Macintosh; Intel Mac OS X 10_12_6) AppleWebKit/537.36 (KHTML, like Gecko) Chrome/92.0.4515.159 Safari/537.36",Macintosh,Chrome,92.0.4515.159,"OS X",10_12_6,fe3c1d035a65c549f7011c5446f73ede
20,1,13062.899999976158," ",html-keyboard-response,1,42428,0.0-1.0,"<p style=""color: white"">Welcome to the Size Judgment Experiment. <br>There will be 10 blocks in this experiment. <br>There will be 28 trials in each block. <br>You will be given a chance to take a break between blocks. <br>Press any key to start the experiment.</p>","""","""","""","""","""","""","""","""","""","""","""","""","""","2021-10-03 19:51:37",173.34.188.12,"Mozilla/5.0 (Macintosh; Intel Mac OS X 10_12_6) AppleWebKit/537.36 (KHTML, like Gecko) Chrome/92.0.4515.159 Safari/537.36",Macintosh,Chrome,92.0.4515.159,"OS X",10_12_6,fe3c1d035a65c549f7011c5446f73ede
20,1,24076.400000095367," ",psychophysics,2,66545,0.0-2.0,"""",key," ",16.722829285218594,565.5,329.5,"""","""","""","""","""","""","""","""","2021-10-03 19:51:37",173.34.188.12,"Mozilla/5.0 (Macintosh; Intel Mac OS X 10_12_6) AppleWebKit/537.36 (KHTML, like Gecko) Chrome/92.0.4515.159 Safari/537.36",Macintosh,Chrome,92.0.4515.159,"OS X",10_12_6,fe3c1d035a65c549f7011c5446f73ede
20,1,12020,arrowright,psychophysics,3,78577,0.0-3.0-0.0,"""",key,arrowright,16.711293055555547,565.5,329.5,1,1,-1,23,15,25,35,false,"2021-10-03 19:51:37",173.34.188.12,"Mozilla/5.0 (Macintosh; Intel Mac OS X 10_12_6) AppleWebKit/537.36 (KHTML, like Gecko) Chrome/92.0.4515.159 Safari/537.36",Macintosh,Chrome,92.0.4515.159,"OS X",10_12_6,fe3c1d035a65c549f7011c5446f73ede
20,1,null,null,psychophysics,4,79580,0.0-3.0-1.0,"""",key,null,16.711000000000134,565.5,329.5,"""","""","""","""","""","""","""","""","2021-10-03 19:51:37",173.34.188.12,"Mozilla/5.0 (Macintosh; Intel Mac OS X 10_12_6) AppleWebKit/537.36 (KHTML, like Gecko) Chrome/92.0.4515.159 Safari/537.36",Macintosh,Chrome,92.0.4515.159,"OS X",10_12_6,fe3c1d035a65c549f7011c5446f73ede
20,1,2223.4000000953674,arrowleft,psychophysics,5,81818,0.0-3.0-0.1,"""",key,arrowleft,16.712406015037594,565.5,329.5,2,1,1,20,35,25,35,false,"2021-10-03 19:51:37",173.34.188.12,"Mozilla/5.0 (Macintosh; Intel Mac OS X 10_12_6) AppleWebKit/537.36 (KHTML, like Gecko) Chrome/92.0.4515.159 Safari/537.36",Macintosh,Chrome,92.0.4515.159,"OS X",10_12_6,fe3c1d035a65c549f7011c5446f73ede
20,1,null,null,psychophysics,6,82822,0.0-3.0-1.1,"""",key,null,16.711000000000134,565.5,329.5,"""","""","""","""","""","""","""","""","2021-10-03 19:51:37",173.34.188.12,"Mozilla/5.0 (Macintosh; Intel Mac OS X 10_12_6) AppleWebKit/537.36 (KHTML, like Gecko) Chrome/92.0.4515.159 Safari/537.36",Macintosh,Chrome,92.0.4515.159,"OS X",10_12_6,fe3c1d035a65c549f7011c5446f73ede
20,1,968,arrowright,psychophysics,7,83793,0.0-3.0-0.2,"""",key,arrowright,16.711000000000034,565.5,329.5,3,1,1,27,35,25,35,true,"2021-10-03 19:51:37",173.34.188.12,"Mozilla/5.0 (Macintosh; Intel Mac OS X 10_12_6) AppleWebKit/537.36 (KHTML, like Gecko) Chrome/92.0.4515.159 Safari/537.36",Macintosh,Chrome,92.0.4515.159,"OS X",10_12_6,fe3c1d035a65c549f7011c5446f73ede
20,1,null,null,psychophysics,8,84797,0.0-3.0-1.2,"""",key,null,16.711000000000134,565.5,329.5,"""","""","""","""","""","""","""","""","2021-10-03 19:51:37",173.34.188.12,"Mozilla/5.0 (Macintosh; Intel Mac OS X 10_12_6) AppleWebKit/537.36 (KHTML, like Gecko) Chrome/92.0.4515.159 Safari/537.36",Macintosh,Chrome,92.0.4515.159,"OS X",10_12_6,fe3c1d035a65c549f7011c5446f73ede
20,1,1401.8999999761581,arrowright,psychophysics,9,86202,0.0-3.0-0.3,"""",key,arrowright,16.711000000000077,565.5,329.5,4,1,-1,20,35,25,35,false,"2021-10-03 19:51:37",173.34.188.12,"Mozilla/5.0 (Macintosh; Intel Mac OS X 10_12_6) AppleWebKit/537.36 (KHTML, like Gecko) Chrome/92.0.4515.159 Safari/537.36",Macintosh,Chrome,92.0.4515.159,"OS X",10_12_6,fe3c1d035a65c549f7011c5446f73ede
20,1,null,null,psychophysics,10,87207,0.0-3.0-1.3,"""",key,null,16.710999999999885,565.5,329.5,"""","""","""","""","""","""","""","""","2021-10-03 19:51:37",173.34.188.12,"Mozilla/5.0 (Macintosh; Intel Mac OS X 10_12_6) AppleWebKit/537.36 (KHTML, like Gecko) Chrome/92.0.4515.159 Safari/537.36",Macintosh,Chrome,92.0.4515.159,"OS X",10_12_6,fe3c1d035a65c549f7011c5446f73ede
20,1,11565.5,arrowleft,psychophysics,11,98779,0.0-3.0-0.4,"""",key,arrowleft,16.711238439306353,565.5,329.5,5,1,1,24,35,25,35,false,"2021-10-03 19:51:37",173.34.188.12,"Mozilla/5.0 (Macintosh; Intel Mac OS X 10_12_6) AppleWebKit/537.36 (KHTML, like Gecko) Chrome/92.0.4515.159 Safari/537.36",Macintosh,Chrome,92.0.4515.159,"OS X",10_12_6,fe3c1d035a65c549f7011c5446f73ede
20,1,null,null,psychophysics,12,99784,0.0-3.0-1.4,"""",key,null,16.711000000000134,565.5,329.5,"""","""","""","""","""","""","""","""","2021-10-03 19:51:37",173.34.188.12,"Mozilla/5.0 (Macintosh; Intel Mac OS X 10_12_6) AppleWebKit/537.36 (KHTML, like Gecko) Chrome/92.0.4515.159 Safari/537.36",Macintosh,Chrome,92.0.4515.159,"OS X",10_12_6,fe3c1d035a65c549f7011c5446f73ede
20,1,1929,arrowleft,psychophysics,13,101717,0.0-3.0-0.5,"""",key,arrowleft,16.712182608695635,565.5,329.5,6,1,-1,24,15,25,35,true,"2021-10-03 19:51:37",173.34.188.12,"Mozilla/5.0 (Macintosh; Intel Mac OS X 10_12_6) AppleWebKit/537.36 (KHTML, like Gecko) Chrome/92.0.4515.159 Safari/537.36",Macintosh,Chrome,92.0.4515.159,"OS X",10_12_6,fe3c1d035a65c549f7011c5446f73ede
20,1,null,null,psychophysics,14,102719,0.0-3.0-1.5,"""",key,null,16.711000000000134,565.5,329.5,"""","""","""","""","""","""","""","""","2021-10-03 19:51:37",173.34.188.12,"Mozilla/5.0 (Macintosh; Intel Mac OS X 10_12_6) AppleWebKit/537.36 (KHTML, like Gecko) Chrome/92.0.4515.159 Safari/537.36",Macintosh,Chrome,92.0.4515.159,"OS X",10_12_6,fe3c1d035a65c549f7011c5446f73ede
20,1,2705,arrowright,psychophysics,15,105427,0.0-3.0-0.6,"""",key,arrowright,16.71100000000003,565.5,329.5,7,1,1,25,15,25,35,true,"2021-10-03 19:51:37",173.34.188.12,"Mozilla/5.0 (Macintosh; Intel Mac OS X 10_12_6) AppleWebKit/537.36 (KHTML, like Gecko) Chrome/92.0.4515.159 Safari/537.36",Macintosh,Chrome,92.0.4515.159,"OS X",10_12_6,fe3c1d035a65c549f7011c5446f73ede
20,1,null,null,psychophysics,16,106431,0.0-3.0-1.6,"""",key,null,16.711000000000134,565.5,329.5,"""","""","""","""","""","""","""","""","2021-10-03 19:51:37",173.34.188.12,"Mozilla/5.0 (Macintosh; Intel Mac OS X 10_12_6) AppleWebKit/537.36 (KHTML, like Gecko) Chrome/92.0.4515.159 Safari/537.36",Macintosh,Chrome,92.0.4515.159,"OS X",10_12_6,fe3c1d035a65c549f7011c5446f73ede
20,1,1849.6000000238419,arrowleft,psychophysics,17,108284,0.0-3.0-0.7,"""",key,arrowleft,16.710999999999927,565.5,329.5,8,1,-1,25,35,25,35,true,"2021-10-03 19:51:37",173.34.188.12,"Mozilla/5.0 (Macintosh; Intel Mac OS X 10_12_6) AppleWebKit/537.36 (KHTML, like Gecko) Chrome/92.0.4515.159 Safari/537.36",Macintosh,Chrome,92.0.4515.159,"OS X",10_12_6,fe3c1d035a65c549f7011c5446f73ede
20,1,null,null,psychophysics,18,109286,0.0-3.0-1.7,"""",key,null,16.710999999999885,565.5,329.5,"""","""","""","""","""","""","""","""","2021-10-03 19:51:37",173.34.188.12,"Mozilla/5.0 (Macintosh; Intel Mac OS X 10_12_6) AppleWebKit/537.36 (KHTML, like Gecko) Chrome/92.0.4515.159 Safari/537.36",Macintosh,Chrome,92.0.4515.159,"OS X",10_12_6,fe3c1d035a65c549f7011c5446f73ede
20,1,854.7999999523163,arrowright,psychophysics,19,110143,0.0-3.0-0.8,"""",key,arrowright,16.7154800000001,565.5,329.5,9,1,1,30,15,25,35,true,"2021-10-03 19:51:37",173.34.188.12,"Mozilla/5.0 (Macintosh; Intel Mac OS X 10_12_6) AppleWebKit/537.36 (KHTML, like Gecko) Chrome/92.0.4515.159 Safari/537.36",Macintosh,Chrome,92.0.4515.159,"OS X",10_12_6,fe3c1d035a65c549f7011c5446f73ede
20,1,null,null,psychophysics,20,111146,0.0-3.0-1.8,"""",key,null,16.711000000000134,565.5,329.5,"""","""","""","""","""","""","""","""","2021-10-03 19:51:37",173.34.188.12,"Mozilla/5.0 (Macintosh; Intel Mac OS X 10_12_6) AppleWebKit/537.36 (KHTML, like Gecko) Chrome/92.0.4515.159 Safari/537.36",Macintosh,Chrome,92.0.4515.159,"OS X",10_12_6,fe3c1d035a65c549f7011c5446f73ede
20,1,1189.2000000476837,arrowright,psychophysics,21,112342,0.0-3.0-0.9,"""",key,arrowright,16.710999999999995,565.5,329.5,10,1,1,25,15,25,35,true,"2021-10-03 19:51:37",173.34.188.12,"Mozilla/5.0 (Macintosh; Intel Mac OS X 10_12_6) AppleWebKit/537.36 (KHTML, like Gecko) Chrome/92.0.4515.159 Safari/537.36",Macintosh,Chrome,92.0.4515.159,"OS X",10_12_6,fe3c1d035a65c549f7011c5446f73ede
20,1,null,null,psychophysics,22,113344,0.0-3.0-1.9,"""",key,null,16.710999999999885,565.5,329.5,"""","""","""","""","""","""","""","""","2021-10-03 19:51:37",173.34.188.12,"Mozilla/5.0 (Macintosh; Intel Mac OS X 10_12_6) AppleWebKit/537.36 (KHTML, like Gecko) Chrome/92.0.4515.159 Safari/537.36",Macintosh,Chrome,92.0.4515.159,"OS X",10_12_6,fe3c1d035a65c549f7011c5446f73ede
20,1,1488.1000000238419,arrowleft,psychophysics,23,114836,0.0-3.0-0.10,"""",key,arrowleft,16.71099999999999,565.5,329.5,11,1,1,23,15,25,35,false,"2021-10-03 19:51:37",173.34.188.12,"Mozilla/5.0 (Macintosh; Intel Mac OS X 10_12_6) AppleWebKit/537.36 (KHTML, like Gecko) Chrome/92.0.4515.159 Safari/537.36",Macintosh,Chrome,92.0.4515.159,"OS X",10_12_6,fe3c1d035a65c549f7011c5446f73ede
20,1,null,null,psychophysics,24,115838,0.0-3.0-1.10,"""",key,null,16.710999999999885,565.5,329.5,"""","""","""","""","""","""","""","""","2021-10-03 19:51:37",173.34.188.12,"Mozilla/5.0 (Macintosh; Intel Mac OS X 10_12_6) AppleWebKit/537.36 (KHTML, like Gecko) Chrome/92.0.4515.159 Safari/537.36",Macintosh,Chrome,92.0.4515.159,"OS X",10_12_6,fe3c1d035a65c549f7011c5446f73ede
20,1,4359,arrowright,psychophysics,25,120200,0.0-3.0-0.11,"""",key,arrowright,16.711738461538502,565.5,329.5,12,1,-1,23,15,25,35,false,"2021-10-03 19:51:37",173.34.188.12,"Mozilla/5.0 (Macintosh; Intel Mac OS X 10_12_6) AppleWebKit/537.36 (KHTML, like Gecko) Chrome/92.0.4515.159 Safari/537.36",Macintosh,Chrome,92.0.4515.159,"OS X",10_12_6,fe3c1d035a65c549f7011c5446f73ede
20,1,null,null,psychophysics,26,121205,0.0-3.0-1.11,"""",key,null,16.710999999999885,565.5,329.5,"""","""","""","""","""","""","""","""","2021-10-03 19:51:37",173.34.188.12,"Mozilla/5.0 (Macintosh; Intel Mac OS X 10_12_6) AppleWebKit/537.36 (KHTML, like Gecko) Chrome/92.0.4515.159 Safari/537.36",Macintosh,Chrome,92.0.4515.159,"OS X",10_12_6,fe3c1d035a65c549f7011c5446f73ede
20,1,2219.100000023842,arrowright,psychophysics,27,123427,0.0-3.0-0.12,"""",key,arrowright,16.71099999999999,565.5,329.5,13,1,-1,25,35,25,35,false,"2021-10-03 19:51:37",173.34.188.12,"Mozilla/5.0 (Macintosh; Intel Mac OS X 10_12_6) AppleWebKit/537.36 (KHTML, like Gecko) Chrome/92.0.4515.159 Safari/537.36",Macintosh,Chrome,92.0.4515.159,"OS X",10_12_6,fe3c1d035a65c549f7011c5446f73ede
20,1,null,null,psychophysics,28,124429,0.0-3.0-1.12,"""",key,null,16.711000000000134,565.5,329.5,"""","""","""","""","""","""","""","""","2021-10-03 19:51:37",173.34.188.12,"Mozilla/5.0 (Macintosh; Intel Mac OS X 10_12_6) AppleWebKit/537.36 (KHTML, like Gecko) Chrome/92.0.4515.159 Safari/537.36",Macintosh,Chrome,92.0.4515.159,"OS X",10_12_6,fe3c1d035a65c549f7011c5446f73ede
20,1,1540.4000000953674,arrowright,psychophysics,29,125972,0.0-3.0-0.13,"""",key,arrowright,16.71100000000001,565.5,329.5,14,1,1,25,35,25,35,true,"2021-10-03 19:51:37",173.34.188.12,"Mozilla/5.0 (Macintosh; Intel Mac OS X 10_12_6) AppleWebKit/537.36 (KHTML, like Gecko) Chrome/92.0.4515.159 Safari/537.36",Macintosh,Chrome,92.0.4515.159,"OS X",10_12_6,fe3c1d035a65c549f7011c5446f73ede
20,1,null,null,psychophysics,30,126978,0.0-3.0-1.13,"""",key,null,16.711000000000134,565.5,329.5,"""","""","""","""","""","""","""","""","2021-10-03 19:51:37",173.34.188.12,"Mozilla/5.0 (Macintosh; Intel Mac OS X 10_12_6) AppleWebKit/537.36 (KHTML, like Gecko) Chrome/92.0.4515.159 Safari/537.36",Macintosh,Chrome,92.0.4515.159,"OS X",10_12_6,fe3c1d035a65c549f7011c5446f73ede
20,1,1155.7000000476837,arrowright,psychophysics,31,128139,0.0-3.0-0.14,"""",key,arrowright,16.71099999999991,565.5,329.5,15,1,1,30,35,25,35,true,"2021-10-03 19:51:37",173.34.188.12,"Mozilla/5.0 (Macintosh; Intel Mac OS X 10_12_6) AppleWebKit/537.36 (KHTML, like Gecko) Chrome/92.0.4515.159 Safari/537.36",Macintosh,Chrome,92.0.4515.159,"OS X",10_12_6,fe3c1d035a65c549f7011c5446f73ede
20,1,null,null,psychophysics,32,129141,0.0-3.0-1.14,"""",key,null,16.710999999999885,565.5,329.5,"""","""","""","""","""","""","""","""","2021-10-03 19:51:37",173.34.188.12,"Mozilla/5.0 (Macintosh; Intel Mac OS X 10_12_6) AppleWebKit/537.36 (KHTML, like Gecko) Chrome/92.0.4515.159 Safari/537.36",Macintosh,Chrome,92.0.4515.159,"OS X",10_12_6,fe3c1d035a65c549f7011c5446f73ede
20,1,4986.600000023842,arrowright,psychophysics,33,134131,0.0-3.0-0.15,"""",key,arrowright,16.711430976430922,565.5,329.5,16,1,1,24,35,25,35,true,"2021-10-03 19:51:37",173.34.188.12,"Mozilla/5.0 (Macintosh; Intel Mac OS X 10_12_6) AppleWebKit/537.36 (KHTML, like Gecko) Chrome/92.0.4515.159 Safari/537.36",Macintosh,Chrome,92.0.4515.159,"OS X",10_12_6,fe3c1d035a65c549f7011c5446f73ede
20,1,null,null,psychophysics,34,135136,0.0-3.0-1.15,"""",key,null,16.71100000000006,565.5,329.5,"""","""","""","""","""","""","""","""","2021-10-03 19:51:37",173.34.188.12,"Mozilla/5.0 (Macintosh; Intel Mac OS X 10_12_6) AppleWebKit/537.36 (KHTML, like Gecko) Chrome/92.0.4515.159 Safari/537.36",Macintosh,Chrome,92.0.4515.159,"OS X",10_12_6,fe3c1d035a65c549f7011c5446f73ede
20,1,1887.0999999046326,arrowright,psychophysics,35,137025,0.0-3.0-0.16,"""",key,arrowright,16.71100000000011,565.5,329.5,17,1,1,27,15,25,35,true,"2021-10-03 19:51:37",173.34.188.12,"Mozilla/5.0 (Macintosh; Intel Mac OS X 10_12_6) AppleWebKit/537.36 (KHTML, like Gecko) Chrome/92.0.4515.159 Safari/537.36",Macintosh,Chrome,92.0.4515.159,"OS X",10_12_6,fe3c1d035a65c549f7011c5446f73ede
20,1,null,null,psychophysics,36,138027,0.0-3.0-1.16,"""",key,null,16.710999999999885,565.5,329.5,"""","""","""","""","""","""","""","""","2021-10-03 19:51:37",173.34.188.12,"Mozilla/5.0 (Macintosh; Intel Mac OS X 10_12_6) AppleWebKit/537.36 (KHTML, like Gecko) Chrome/92.0.4515.159 Safari/537.36",Macintosh,Chrome,92.0.4515.159,"OS X",10_12_6,fe3c1d035a65c549f7011c5446f73ede
20,1,1712.1000000238419,arrowright,psychophysics,37,139742,0.0-3.0-0.17,"""",key,arrowright,16.71100000000016,565.5,329.5,18,1,1,27,15,25,35,true,"2021-10-03 19:51:37",173.34.188.12,"Mozilla/5.0 (Macintosh; Intel Mac OS X 10_12_6) AppleWebKit/537.36 (KHTML, like Gecko) Chrome/92.0.4515.159 Safari/537.36",Macintosh,Chrome,92.0.4515.159,"OS X",10_12_6,fe3c1d035a65c549f7011c5446f73ede
20,1,null,null,psychophysics,38,140744,0.0-3.0-1.17,"""",key,null,16.71483050847438,565.5,329.5,"""","""","""","""","""","""","""","""","2021-10-03 19:51:37",173.34.188.12,"Mozilla/5.0 (Macintosh; Intel Mac OS X 10_12_6) AppleWebKit/537.36 (KHTML, like Gecko) Chrome/92.0.4515.159 Safari/537.36",Macintosh,Chrome,92.0.4515.159,"OS X",10_12_6,fe3c1d035a65c549f7011c5446f73ede
20,1,1189.8000000715256,arrowleft,psychophysics,39,141945,0.0-3.0-0.18,"""",key,arrowleft,16.710999999999995,565.5,329.5,19,1,-1,26,35,25,35,true,"2021-10-03 19:51:37",173.34.188.12,"Mozilla/5.0 (Macintosh; Intel Mac OS X 10_12_6) AppleWebKit/537.36 (KHTML, like Gecko) Chrome/92.0.4515.159 Safari/537.36",Macintosh,Chrome,92.0.4515.159,"OS X",10_12_6,fe3c1d035a65c549f7011c5446f73ede
20,1,null,null,psychophysics,40,142948,0.0-3.0-1.18,"""",key,null,16.71100000000038,565.5,329.5,"""","""","""","""","""","""","""","""","2021-10-03 19:51:37",173.34.188.12,"Mozilla/5.0 (Macintosh; Intel Mac OS X 10_12_6) AppleWebKit/537.36 (KHTML, like Gecko) Chrome/92.0.4515.159 Safari/537.36",Macintosh,Chrome,92.0.4515.159,"OS X",10_12_6,fe3c1d035a65c549f7011c5446f73ede
20,1,893.7000000476837,arrowleft,psychophysics,41,143845,0.0-3.0-0.19,"""",key,arrowleft,16.71100000000036,565.5,329.5,20,1,1,20,15,25,35,false,"2021-10-03 19:51:37",173.34.188.12,"Mozilla/5.0 (Macintosh; Intel Mac OS X 10_12_6) AppleWebKit/537.36 (KHTML, like Gecko) Chrome/92.0.4515.159 Safari/537.36",Macintosh,Chrome,92.0.4515.159,"OS X",10_12_6,fe3c1d035a65c549f7011c5446f73ede
20,1,null,null,psychophysics,42,144847,0.0-3.0-1.19,"""",key,null,16.710999999999885,565.5,329.5,"""","""","""","""","""","""","""","""","2021-10-03 19:51:37",173.34.188.12,"Mozilla/5.0 (Macintosh; Intel Mac OS X 10_12_6) AppleWebKit/537.36 (KHTML, like Gecko) Chrome/92.0.4515.159 Safari/537.36",Macintosh,Chrome,92.0.4515.159,"OS X",10_12_6,fe3c1d035a65c549f7011c5446f73ede
20,1,1266,arrowleft,psychophysics,43,146117,0.0-3.0-0.20,"""",key,arrowleft,16.711000000000155,565.5,329.5,21,1,-1,24,15,25,35,true,"2021-10-03 19:51:37",173.34.188.12,"Mozilla/5.0 (Macintosh; Intel Mac OS X 10_12_6) AppleWebKit/537.36 (KHTML, like Gecko) Chrome/92.0.4515.159 Safari/537.36",Macintosh,Chrome,92.0.4515.159,"OS X",10_12_6,fe3c1d035a65c549f7011c5446f73ede
20,1,null,null,psychophysics,44,147118,0.0-3.0-1.20,"""",key,null,16.71100000000038,565.5,329.5,"""","""","""","""","""","""","""","""","2021-10-03 19:51:37",173.34.188.12,"Mozilla/5.0 (Macintosh; Intel Mac OS X 10_12_6) AppleWebKit/537.36 (KHTML, like Gecko) Chrome/92.0.4515.159 Safari/537.36",Macintosh,Chrome,92.0.4515.159,"OS X",10_12_6,fe3c1d035a65c549f7011c5446f73ede
20,1,853.5,arrowright,psychophysics,45,147977,0.0-3.0-0.21,"""",key,arrowright,16.71100000000035,565.5,329.5,22,1,1,24,15,25,35,true,"2021-10-03 19:51:37",173.34.188.12,"Mozilla/5.0 (Macintosh; Intel Mac OS X 10_12_6) AppleWebKit/537.36 (KHTML, like Gecko) Chrome/92.0.4515.159 Safari/537.36",Macintosh,Chrome,92.0.4515.159,"OS X",10_12_6,fe3c1d035a65c549f7011c5446f73ede
20,1,null,null,psychophysics,46,148981,0.0-3.0-1.21,"""",key,null,16.710999999999885,565.5,329.5,"""","""","""","""","""","""","""","""","2021-10-03 19:51:37",173.34.188.12,"Mozilla/5.0 (Macintosh; Intel Mac OS X 10_12_6) AppleWebKit/537.36 (KHTML, like Gecko) Chrome/92.0.4515.159 Safari/537.36",Macintosh,Chrome,92.0.4515.159,"OS X",10_12_6,fe3c1d035a65c549f7011c5446f73ede
20,1,1680.2000000476837,arrowright,psychophysics,47,150664,0.0-3.0-0.22,"""",key,arrowright,16.71277000000002,565.5,329.5,23,1,-1,24,35,25,35,false,"2021-10-03 19:51:37",173.34.188.12,"Mozilla/5.0 (Macintosh; Intel Mac OS X 10_12_6) AppleWebKit/537.36 (KHTML, like Gecko) Chrome/92.0.4515.159 Safari/537.36",Macintosh,Chrome,92.0.4515.159,"OS X",10_12_6,fe3c1d035a65c549f7011c5446f73ede
20,1,null,null,psychophysics,48,151666,0.0-3.0-1.22,"""",key,null,16.710999999999885,565.5,329.5,"""","""","""","""","""","""","""","""","2021-10-03 19:51:37",173.34.188.12,"Mozilla/5.0 (Macintosh; Intel Mac OS X 10_12_6) AppleWebKit/537.36 (KHTML, like Gecko) Chrome/92.0.4515.159 Safari/537.36",Macintosh,Chrome,92.0.4515.159,"OS X",10_12_6,fe3c1d035a65c549f7011c5446f73ede
20,1,1170.7000000476837,arrowleft,psychophysics,49,152840,0.0-3.0-0.23,"""",key,arrowleft,16.7109999999997,565.5,329.5,24,1,1,20,35,25,35,false,"2021-10-03 19:51:37",173.34.188.12,"Mozilla/5.0 (Macintosh; Intel Mac OS X 10_12_6) AppleWebKit/537.36 (KHTML, like Gecko) Chrome/92.0.4515.159 Safari/537.36",Macintosh,Chrome,92.0.4515.159,"OS X",10_12_6,fe3c1d035a65c549f7011c5446f73ede
20,1,null,null,psychophysics,50,153845,0.0-3.0-1.23,"""",key,null,16.710999999999885,565.5,329.5,"""","""","""","""","""","""","""","""","2021-10-03 19:51:37",173.34.188.12,"Mozilla/5.0 (Macintosh; Intel Mac OS X 10_12_6) AppleWebKit/537.36 (KHTML, like Gecko) Chrome/92.0.4515.159 Safari/537.36",Macintosh,Chrome,92.0.4515.159,"OS X",10_12_6,fe3c1d035a65c549f7011c5446f73ede
20,1,1944.7000000476837,arrowright,psychophysics,51,155793,0.0-3.0-0.24,"""",key,arrowright,16.71099999999996,565.5,329.5,25,1,1,23,35,25,35,true,"2021-10-03 19:51:37",173.34.188.12,"Mozilla/5.0 (Macintosh; Intel Mac OS X 10_12_6) AppleWebKit/537.36 (KHTML, like Gecko) Chrome/92.0.4515.159 Safari/537.36",Macintosh,Chrome,92.0.4515.159,"OS X",10_12_6,fe3c1d035a65c549f7011c5446f73ede
20,1,null,null,psychophysics,52,156795,0.0-3.0-1.24,"""",key,null,16.710999999999885,565.5,329.5,"""","""","""","""","""","""","""","""","2021-10-03 19:51:37",173.34.188.12,"Mozilla/5.0 (Macintosh; Intel Mac OS X 10_12_6) AppleWebKit/537.36 (KHTML, like Gecko) Chrome/92.0.4515.159 Safari/537.36",Macintosh,Chrome,92.0.4515.159,"OS X",10_12_6,fe3c1d035a65c549f7011c5446f73ede
20,1,1645.5999999046326,arrowright,psychophysics,53,158444,0.0-3.0-0.25,"""",key,arrowright,16.711000000000045,565.5,329.5,26,1,-1,23,35,25,35,false,"2021-10-03 19:51:37",173.34.188.12,"Mozilla/5.0 (Macintosh; Intel Mac OS X 10_12_6) AppleWebKit/537.36 (KHTML, like Gecko) Chrome/92.0.4515.159 Safari/537.36",Macintosh,Chrome,92.0.4515.159,"OS X",10_12_6,fe3c1d035a65c549f7011c5446f73ede
20,1,null,null,psychophysics,54,159450,0.0-3.0-1.25,"""",key,null,16.71100000000006,565.5,329.5,"""","""","""","""","""","""","""","""","2021-10-03 19:51:37",173.34.188.12,"Mozilla/5.0 (Macintosh; Intel Mac OS X 10_12_6) AppleWebKit/537.36 (KHTML, like Gecko) Chrome/92.0.4515.159 Safari/537.36",Macintosh,Chrome,92.0.4515.159,"OS X",10_12_6,fe3c1d035a65c549f7011c5446f73ede
20,1,755.8999999761581,arrowleft,psychophysics,55,160210,0.0-3.0-0.26,"""",key,arrowleft,16.715272727272268,565.5,329.5,27,1,-1,30,15,25,35,true,"2021-10-03 19:51:37",173.34.188.12,"Mozilla/5.0 (Macintosh; Intel Mac OS X 10_12_6) AppleWebKit/537.36 (KHTML, like Gecko) Chrome/92.0.4515.159 Safari/537.36",Macintosh,Chrome,92.0.4515.159,"OS X",10_12_6,fe3c1d035a65c549f7011c5446f73ede
20,1,null,null,psychophysics,56,161213,0.0-3.0-1.26,"""",key,null,16.710999999999885,565.5,329.5,"""","""","""","""","""","""","""","""","2021-10-03 19:51:37",173.34.188.12,"Mozilla/5.0 (Macintosh; Intel Mac OS X 10_12_6) AppleWebKit/537.36 (KHTML, like Gecko) Chrome/92.0.4515.159 Safari/537.36",Macintosh,Chrome,92.0.4515.159,"OS X",10_12_6,fe3c1d035a65c549f7011c5446f73ede
20,1,1270,arrowleft,psychophysics,57,162486,0.0-3.0-0.27,"""",key,arrowleft,16.710999999999768,565.5,329.5,28,2,-1,30,35,25,35,true,"2021-10-03 19:51:37",173.34.188.12,"Mozilla/5.0 (Macintosh; Intel Mac OS X 10_12_6) AppleWebKit/537.36 (KHTML, like Gecko) Chrome/92.0.4515.159 Safari/537.36",Macintosh,Chrome,92.0.4515.159,"OS X",10_12_6,fe3c1d035a65c549f7011c5446f73ede
20,1,null,null,psychophysics,58,163491,0.0-3.0-1.27,"""",key,null,16.710999999999885,565.5,329.5,"""","""","""","""","""","""","""","""","2021-10-03 19:51:37",173.34.188.12,"Mozilla/5.0 (Macintosh; Intel Mac OS X 10_12_6) AppleWebKit/537.36 (KHTML, like Gecko) Chrome/92.0.4515.159 Safari/537.36",Macintosh,Chrome,92.0.4515.159,"OS X",10_12_6,fe3c1d035a65c549f7011c5446f73ede
20,1,6429.800000071526," ",html-keyboard-response,59,169923,0.0-3.0-2.27-0.27,"<div style=""color: white; text-align: center; vertical-align: top; display: inline-block; width: 800px; margin: auto""><p>You have completed 10% of the trials. You are on block 2 of 10. <br>Good job! Take a break if you need to.</p><p>Press any key to continue the experiment.</p></div>","""","""","""","""","""","""","""","""","""","""","""","""","""","2021-10-03 19:51:37",173.34.188.12,"Mozilla/5.0 (Macintosh; Intel Mac OS X 10_12_6) AppleWebKit/537.36 (KHTML, like Gecko) Chrome/92.0.4515.159 Safari/537.36",Macintosh,Chrome,92.0.4515.159,"OS X",10_12_6,fe3c1d035a65c549f7011c5446f73ede
20,1,1077,arrowright,psychophysics,60,172009,0.0-3.0-0.28,"""",key,arrowright,16.714109375000135,565.5,329.5,29,2,1,30,15,25,35,true,"2021-10-03 19:51:37",173.34.188.12,"Mozilla/5.0 (Macintosh; Intel Mac OS X 10_12_6) AppleWebKit/537.36 (KHTML, like Gecko) Chrome/92.0.4515.159 Safari/537.36",Macintosh,Chrome,92.0.4515.159,"OS X",10_12_6,fe3c1d035a65c549f7011c5446f73ede
20,1,null,null,psychophysics,61,173011,0.0-3.0-1.28,"""",key,null,16.710999999999885,565.5,329.5,"""","""","""","""","""","""","""","""","2021-10-03 19:51:37",173.34.188.12,"Mozilla/5.0 (Macintosh; Intel Mac OS X 10_12_6) AppleWebKit/537.36 (KHTML, like Gecko) Chrome/92.0.4515.159 Safari/537.36",Macintosh,Chrome,92.0.4515.159,"OS X",10_12_6,fe3c1d035a65c549f7011c5446f73ede
20,1,637.2999999523163,arrowright,psychophysics,62,173651,0.0-3.0-0.29,"""",key,arrowright,16.71100000000002,565.5,329.5,30,2,1,26,35,25,35,true,"2021-10-03 19:51:37",173.34.188.12,"Mozilla/5.0 (Macintosh; Intel Mac OS X 10_12_6) AppleWebKit/537.36 (KHTML, like Gecko) Chrome/92.0.4515.159 Safari/537.36",Macintosh,Chrome,92.0.4515.159,"OS X",10_12_6,fe3c1d035a65c549f7011c5446f73ede
20,1,null,null,psychophysics,63,174654,0.0-3.0-1.29,"""",key,null,16.710999999999885,565.5,329.5,"""","""","""","""","""","""","""","""","2021-10-03 19:51:37",173.34.188.12,"Mozilla/5.0 (Macintosh; Intel Mac OS X 10_12_6) AppleWebKit/537.36 (KHTML, like Gecko) Chrome/92.0.4515.159 Safari/537.36",Macintosh,Chrome,92.0.4515.159,"OS X",10_12_6,fe3c1d035a65c549f7011c5446f73ede
20,1,1056.5999999046326,arrowright,psychophysics,64,175716,0.0-3.0-0.30,"""",key,arrowright,16.71100000000008,565.5,329.5,31,2,-1,23,35,25,35,false,"2021-10-03 19:51:37",173.34.188.12,"Mozilla/5.0 (Macintosh; Intel Mac OS X 10_12_6) AppleWebKit/537.36 (KHTML, like Gecko) Chrome/92.0.4515.159 Safari/537.36",Macintosh,Chrome,92.0.4515.159,"OS X",10_12_6,fe3c1d035a65c549f7011c5446f73ede
20,1,null,null,psychophysics,65,176721,0.0-3.0-1.30,"""",key,null,16.71100000000038,565.5,329.5,"""","""","""","""","""","""","""","""","2021-10-03 19:51:37",173.34.188.12,"Mozilla/5.0 (Macintosh; Intel Mac OS X 10_12_6) AppleWebKit/537.36 (KHTML, like Gecko) Chrome/92.0.4515.159 Safari/537.36",Macintosh,Chrome,92.0.4515.159,"OS X",10_12_6,fe3c1d035a65c549f7011c5446f73ede
20,1,737.3999999761581,arrowleft,psychophysics,66,177462,0.0-3.0-0.31,"""",key,arrowleft,16.71100000000009,565.5,329.5,32,2,-1,27,15,25,35,true,"2021-10-03 19:51:37",173.34.188.12,"Mozilla/5.0 (Macintosh; Intel Mac OS X 10_12_6) AppleWebKit/537.36 (KHTML, like Gecko) Chrome/92.0.4515.159 Safari/537.36",Macintosh,Chrome,92.0.4515.159,"OS X",10_12_6,fe3c1d035a65c549f7011c5446f73ede
20,1,null,null,psychophysics,67,178466,0.0-3.0-1.31,"""",key,null,16.710999999999885,565.5,329.5,"""","""","""","""","""","""","""","""","2021-10-03 19:51:37",173.34.188.12,"Mozilla/5.0 (Macintosh; Intel Mac OS X 10_12_6) AppleWebKit/537.36 (KHTML, like Gecko) Chrome/92.0.4515.159 Safari/537.36",Macintosh,Chrome,92.0.4515.159,"OS X",10_12_6,fe3c1d035a65c549f7011c5446f73ede
20,1,1268.5,arrowleft,psychophysics,68,179739,0.0-3.0-0.32,"""",key,arrowleft,16.710999999999906,565.5,329.5,33,2,1,20,35,25,35,false,"2021-10-03 19:51:37",173.34.188.12,"Mozilla/5.0 (Macintosh; Intel Mac OS X 10_12_6) AppleWebKit/537.36 (KHTML, like Gecko) Chrome/92.0.4515.159 Safari/537.36",Macintosh,Chrome,92.0.4515.159,"OS X",10_12_6,fe3c1d035a65c549f7011c5446f73ede
20,1,null,null,psychophysics,69,180741,0.0-3.0-1.32,"""",key,null,16.710999999999885,565.5,329.5,"""","""","""","""","""","""","""","""","2021-10-03 19:51:37",173.34.188.12,"Mozilla/5.0 (Macintosh; Intel Mac OS X 10_12_6) AppleWebKit/537.36 (KHTML, like Gecko) Chrome/92.0.4515.159 Safari/537.36",Macintosh,Chrome,92.0.4515.159,"OS X",10_12_6,fe3c1d035a65c549f7011c5446f73ede
20,1,1366.8999999761581,arrowright,psychophysics,70,182112,0.0-3.0-0.33,"""",key,arrowright,16.71303703703732,565.5,329.5,34,2,-1,23,15,25,35,false,"2021-10-03 19:51:37",173.34.188.12,"Mozilla/5.0 (Macintosh; Intel Mac OS X 10_12_6) AppleWebKit/537.36 (KHTML, like Gecko) Chrome/92.0.4515.159 Safari/537.36",Macintosh,Chrome,92.0.4515.159,"OS X",10_12_6,fe3c1d035a65c549f7011c5446f73ede
20,1,null,null,psychophysics,71,183117,0.0-3.0-1.33,"""",key,null,16.71100000000038,565.5,329.5,"""","""","""","""","""","""","""","""","2021-10-03 19:51:37",173.34.188.12,"Mozilla/5.0 (Macintosh; Intel Mac OS X 10_12_6) AppleWebKit/537.36 (KHTML, like Gecko) Chrome/92.0.4515.159 Safari/537.36",Macintosh,Chrome,92.0.4515.159,"OS X",10_12_6,fe3c1d035a65c549f7011c5446f73ede
20,1,680.8000000715256,arrowright,psychophysics,72,183801,0.0-3.0-0.34,"""",key,arrowright,16.71100000000006,565.5,329.5,35,2,1,30,15,25,35,true,"2021-10-03 19:51:37",173.34.188.12,"Mozilla/5.0 (Macintosh; Intel Mac OS X 10_12_6) AppleWebKit/537.36 (KHTML, like Gecko) Chrome/92.0.4515.159 Safari/537.36",Macintosh,Chrome,92.0.4515.159,"OS X",10_12_6,fe3c1d035a65c549f7011c5446f73ede
20,1,null,null,psychophysics,73,184802,0.0-3.0-1.34,"""",key,null,16.710999999999885,565.5,329.5,"""","""","""","""","""","""","""","""","2021-10-03 19:51:37",173.34.188.12,"Mozilla/5.0 (Macintosh; Intel Mac OS X 10_12_6) AppleWebKit/537.36 (KHTML, like Gecko) Chrome/92.0.4515.159 Safari/537.36",Macintosh,Chrome,92.0.4515.159,"OS X",10_12_6,fe3c1d035a65c549f7011c5446f73ede
20,1,1373.1999999284744,arrowright,psychophysics,74,186177,0.0-3.0-0.35,"""",key,arrowright,16.710999999999824,565.5,329.5,36,2,1,24,15,25,35,true,"2021-10-03 19:51:37",173.34.188.12,"Mozilla/5.0 (Macintosh; Intel Mac OS X 10_12_6) AppleWebKit/537.36 (KHTML, like Gecko) Chrome/92.0.4515.159 Safari/537.36",Macintosh,Chrome,92.0.4515.159,"OS X",10_12_6,fe3c1d035a65c549f7011c5446f73ede
20,1,null,null,psychophysics,75,187179,0.0-3.0-1.35,"""",key,null,16.710999999999885,565.5,329.5,"""","""","""","""","""","""","""","""","2021-10-03 19:51:37",173.34.188.12,"Mozilla/5.0 (Macintosh; Intel Mac OS X 10_12_6) AppleWebKit/537.36 (KHTML, like Gecko) Chrome/92.0.4515.159 Safari/537.36",Macintosh,Chrome,92.0.4515.159,"OS X",10_12_6,fe3c1d035a65c549f7011c5446f73ede
20,1,1640.2000000476837,arrowright,psychophysics,76,188822,0.0-3.0-0.36,"""",key,arrowright,16.711000000000045,565.5,329.5,37,2,1,25,35,25,35,true,"2021-10-03 19:51:37",173.34.188.12,"Mozilla/5.0 (Macintosh; Intel Mac OS X 10_12_6) AppleWebKit/537.36 (KHTML, like Gecko) Chrome/92.0.4515.159 Safari/537.36",Macintosh,Chrome,92.0.4515.159,"OS X",10_12_6,fe3c1d035a65c549f7011c5446f73ede
20,1,null,null,psychophysics,77,189827,0.0-3.0-1.36,"""",key,null,16.710999999999885,565.5,329.5,"""","""","""","""","""","""","""","""","2021-10-03 19:51:37",173.34.188.12,"Mozilla/5.0 (Macintosh; Intel Mac OS X 10_12_6) AppleWebKit/537.36 (KHTML, like Gecko) Chrome/92.0.4515.159 Safari/537.36",Macintosh,Chrome,92.0.4515.159,"OS X",10_12_6,fe3c1d035a65c549f7011c5446f73ede
20,1,843.5,arrowright,psychophysics,78,190676,0.0-3.0-0.37,"""",key,arrowright,16.710999999999768,565.5,329.5,38,2,1,26,15,25,35,true,"2021-10-03 19:51:37",173.34.188.12,"Mozilla/5.0 (Macintosh; Intel Mac OS X 10_12_6) AppleWebKit/537.36 (KHTML, like Gecko) Chrome/92.0.4515.159 Safari/537.36",Macintosh,Chrome,92.0.4515.159,"OS X",10_12_6,fe3c1d035a65c549f7011c5446f73ede
20,1,null,null,psychophysics,79,191679,0.0-3.0-1.37,"""",key,null,16.714186440678255,565.5,329.5,"""","""","""","""","""","""","""","""","2021-10-03 19:51:37",173.34.188.12,"Mozilla/5.0 (Macintosh; Intel Mac OS X 10_12_6) AppleWebKit/537.36 (KHTML, like Gecko) Chrome/92.0.4515.159 Safari/537.36",Macintosh,Chrome,92.0.4515.159,"OS X",10_12_6,fe3c1d035a65c549f7011c5446f73ede
20,1,1193,arrowright,psychophysics,80,192875,0.0-3.0-0.38,"""",key,arrowright,16.710999999999995,565.5,329.5,39,2,-1,25,35,25,35,false,"2021-10-03 19:51:37",173.34.188.12,"Mozilla/5.0 (Macintosh; Intel Mac OS X 10_12_6) AppleWebKit/537.36 (KHTML, like Gecko) Chrome/92.0.4515.159 Safari/537.36",Macintosh,Chrome,92.0.4515.159,"OS X",10_12_6,fe3c1d035a65c549f7011c5446f73ede
20,1,null,null,psychophysics,81,193877,0.0-3.0-1.38,"""",key,null,16.710999999999885,565.5,329.5,"""","""","""","""","""","""","""","""","2021-10-03 19:51:37",173.34.188.12,"Mozilla/5.0 (Macintosh; Intel Mac OS X 10_12_6) AppleWebKit/537.36 (KHTML, like Gecko) Chrome/92.0.4515.159 Safari/537.36",Macintosh,Chrome,92.0.4515.159,"OS X",10_12_6,fe3c1d035a65c549f7011c5446f73ede
20,1,1444.8000000715256,arrowright,psychophysics,82,195324,0.0-3.0-0.39,"""",key,arrowright,16.710999999999974,565.5,329.5,40,2,-1,24,35,25,35,false,"2021-10-03 19:51:37",173.34.188.12,"Mozilla/5.0 (Macintosh; Intel Mac OS X 10_12_6) AppleWebKit/537.36 (KHTML, like Gecko) Chrome/92.0.4515.159 Safari/537.36",Macintosh,Chrome,92.0.4515.159,"OS X",10_12_6,fe3c1d035a65c549f7011c5446f73ede
20,1,null,null,psychophysics,83,196331,0.0-3.0-1.39,"""",key,null,16.71100000000006,565.5,329.5,"""","""","""","""","""","""","""","""","2021-10-03 19:51:37",173.34.188.12,"Mozilla/5.0 (Macintosh; Intel Mac OS X 10_12_6) AppleWebKit/537.36 (KHTML, like Gecko) Chrome/92.0.4515.159 Safari/537.36",Macintosh,Chrome,92.0.4515.159,"OS X",10_12_6,fe3c1d035a65c549f7011c5446f73ede
20,1,987.3999999761581,arrowright,psychophysics,84,197321,0.0-3.0-0.40,"""",key,arrowright,16.711000000000208,565.5,329.5,41,2,-1,20,35,25,35,false,"2021-10-03 19:51:37",173.34.188.12,"Mozilla/5.0 (Macintosh; Intel Mac OS X 10_12_6) AppleWebKit/537.36 (KHTML, like Gecko) Chrome/92.0.4515.159 Safari/537.36",Macintosh,Chrome,92.0.4515.159,"OS X",10_12_6,fe3c1d035a65c549f7011c5446f73ede
20,1,null,null,psychophysics,85,198323,0.0-3.0-1.40,"""",key,null,16.710999999999885,565.5,329.5,"""","""","""","""","""","""","""","""","2021-10-03 19:51:37",173.34.188.12,"Mozilla/5.0 (Macintosh; Intel Mac OS X 10_12_6) AppleWebKit/537.36 (KHTML, like Gecko) Chrome/92.0.4515.159 Safari/537.36",Macintosh,Chrome,92.0.4515.159,"OS X",10_12_6,fe3c1d035a65c549f7011c5446f73ede
20,1,892.6000000238419,arrowright,psychophysics,86,199219,0.0-3.0-0.41,"""",key,arrowright,16.71100000000017,565.5,329.5,42,2,1,27,15,25,35,true,"2021-10-03 19:51:37",173.34.188.12,"Mozilla/5.0 (Macintosh; Intel Mac OS X 10_12_6) AppleWebKit/537.36 (KHTML, like Gecko) Chrome/92.0.4515.159 Safari/537.36",Macintosh,Chrome,92.0.4515.159,"OS X",10_12_6,fe3c1d035a65c549f7011c5446f73ede
20,1,null,null,psychophysics,87,200223,0.0-3.0-1.41,"""",key,null,16.71100000000038,565.5,329.5,"""","""","""","""","""","""","""","""","2021-10-03 19:51:37",173.34.188.12,"Mozilla/5.0 (Macintosh; Intel Mac OS X 10_12_6) AppleWebKit/537.36 (KHTML, like Gecko) Chrome/92.0.4515.159 Safari/537.36",Macintosh,Chrome,92.0.4515.159,"OS X",10_12_6,fe3c1d035a65c549f7011c5446f73ede
20,1,673,arrowleft,psychophysics,88,200901,0.0-3.0-0.42,"""",key,arrowleft,16.71100000000006,565.5,329.5,43,2,-1,30,15,25,35,true,"2021-10-03 19:51:37",173.34.188.12,"Mozilla/5.0 (Macintosh; Intel Mac OS X 10_12_6) AppleWebKit/537.36 (KHTML, like Gecko) Chrome/92.0.4515.159 Safari/537.36",Macintosh,Chrome,92.0.4515.159,"OS X",10_12_6,fe3c1d035a65c549f7011c5446f73ede
20,1,null,null,psychophysics,89,201904,0.0-3.0-1.42,"""",key,null,16.713966101695096,565.5,329.5,"""","""","""","""","""","""","""","""","2021-10-03 19:51:37",173.34.188.12,"Mozilla/5.0 (Macintosh; Intel Mac OS X 10_12_6) AppleWebKit/537.36 (KHTML, like Gecko) Chrome/92.0.4515.159 Safari/537.36",Macintosh,Chrome,92.0.4515.159,"OS X",10_12_6,fe3c1d035a65c549f7011c5446f73ede
20,1,1107.8999999761581,arrowright,psychophysics,90,203018,0.0-3.0-0.43,"""",key,arrowright,16.7110000000001,565.5,329.5,44,2,1,24,15,25,35,true,"2021-10-03 19:51:37",173.34.188.12,"Mozilla/5.0 (Macintosh; Intel Mac OS X 10_12_6) AppleWebKit/537.36 (KHTML, like Gecko) Chrome/92.0.4515.159 Safari/537.36",Macintosh,Chrome,92.0.4515.159,"OS X",10_12_6,fe3c1d035a65c549f7011c5446f73ede
20,1,null,null,psychophysics,91,204020,0.0-3.0-1.43,"""",key,null,16.710999999999885,565.5,329.5,"""","""","""","""","""","""","""","""","2021-10-03 19:51:37",173.34.188.12,"Mozilla/5.0 (Macintosh; Intel Mac OS X 10_12_6) AppleWebKit/537.36 (KHTML, like Gecko) Chrome/92.0.4515.159 Safari/537.36",Macintosh,Chrome,92.0.4515.159,"OS X",10_12_6,fe3c1d035a65c549f7011c5446f73ede
20,1,890.1999999284744,arrowleft,psychophysics,92,204913,0.0-3.0-0.44,"""",key,arrowleft,16.71100000000017,565.5,329.5,45,2,-1,26,15,25,35,true,"2021-10-03 19:51:37",173.34.188.12,"Mozilla/5.0 (Macintosh; Intel Mac OS X 10_12_6) AppleWebKit/537.36 (KHTML, like Gecko) Chrome/92.0.4515.159 Safari/537.36",Macintosh,Chrome,92.0.4515.159,"OS X",10_12_6,fe3c1d035a65c549f7011c5446f73ede
20,1,null,null,psychophysics,93,205916,0.0-3.0-1.44,"""",key,null,16.710999999999885,565.5,329.5,"""","""","""","""","""","""","""","""","2021-10-03 19:51:37",173.34.188.12,"Mozilla/5.0 (Macintosh; Intel Mac OS X 10_12_6) AppleWebKit/537.36 (KHTML, like Gecko) Chrome/92.0.4515.159 Safari/537.36",Macintosh,Chrome,92.0.4515.159,"OS X",10_12_6,fe3c1d035a65c549f7011c5446f73ede
20,1,856.5,arrowright,psychophysics,94,206776,0.0-3.0-0.45,"""",key,arrowright,16.710999999999974,565.5,329.5,46,2,1,26,35,25,35,true,"2021-10-03 19:51:37",173.34.188.12,"Mozilla/5.0 (Macintosh; Intel Mac OS X 10_12_6) AppleWebKit/537.36 (KHTML, like Gecko) Chrome/92.0.4515.159 Safari/537.36",Macintosh,Chrome,92.0.4515.159,"OS X",10_12_6,fe3c1d035a65c549f7011c5446f73ede
20,1,null,null,psychophysics,95,207778,0.0-3.0-1.45,"""",key,null,16.71100000000038,565.5,329.5,"""","""","""","""","""","""","""","""","2021-10-03 19:51:37",173.34.188.12,"Mozilla/5.0 (Macintosh; Intel Mac OS X 10_12_6) AppleWebKit/537.36 (KHTML, like Gecko) Chrome/92.0.4515.159 Safari/537.36",Macintosh,Chrome,92.0.4515.159,"OS X",10_12_6,fe3c1d035a65c549f7011c5446f73ede
20,1,730.5,arrowleft,psychophysics,96,208516,0.0-3.0-0.46,"""",key,arrowleft,16.71100000000009,565.5,329.5,47,2,-1,30,15,25,35,true,"2021-10-03 19:51:37",173.34.188.12,"Mozilla/5.0 (Macintosh; Intel Mac OS X 10_12_6) AppleWebKit/537.36 (KHTML, like Gecko) Chrome/92.0.4515.159 Safari/537.36",Macintosh,Chrome,92.0.4515.159,"OS X",10_12_6,fe3c1d035a65c549f7011c5446f73ede
20,1,null,null,psychophysics,97,209518,0.0-3.0-1.46,"""",key,null,16.710999999999885,565.5,329.5,"""","""","""","""","""","""","""","""","2021-10-03 19:51:37",173.34.188.12,"Mozilla/5.0 (Macintosh; Intel Mac OS X 10_12_6) AppleWebKit/537.36 (KHTML, like Gecko) Chrome/92.0.4515.159 Safari/537.36",Macintosh,Chrome,92.0.4515.159,"OS X",10_12_6,fe3c1d035a65c549f7011c5446f73ede
20,1,1000.2999999523163,arrowright,psychophysics,98,210521,0.0-3.0-0.47,"""",key,arrowright,16.710999999999885,565.5,329.5,48,2,-1,20,35,25,35,false,"2021-10-03 19:51:37",173.34.188.12,"Mozilla/5.0 (Macintosh; Intel Mac OS X 10_12_6) AppleWebKit/537.36 (KHTML, like Gecko) Chrome/92.0.4515.159 Safari/537.36",Macintosh,Chrome,92.0.4515.159,"OS X",10_12_6,fe3c1d035a65c549f7011c5446f73ede
20,1,null,null,psychophysics,99,211523,0.0-3.0-1.47,"""",key,null,16.714016949152178,565.5,329.5,"""","""","""","""","""","""","""","""","2021-10-03 19:51:37",173.34.188.12,"Mozilla/5.0 (Macintosh; Intel Mac OS X 10_12_6) AppleWebKit/537.36 (KHTML, like Gecko) Chrome/92.0.4515.159 Safari/537.36",Macintosh,Chrome,92.0.4515.159,"OS X",10_12_6,fe3c1d035a65c549f7011c5446f73ede
20,1,1235.3999999761581,arrowright,psychophysics,100,212760,0.0-3.0-0.48,"""",key,arrowright,16.710999999999878,565.5,329.5,49,2,1,27,35,25,35,true,"2021-10-03 19:51:37",173.34.188.12,"Mozilla/5.0 (Macintosh; Intel Mac OS X 10_12_6) AppleWebKit/537.36 (KHTML, like Gecko) Chrome/92.0.4515.159 Safari/537.36",Macintosh,Chrome,92.0.4515.159,"OS X",10_12_6,fe3c1d035a65c549f7011c5446f73ede
20,1,null,null,psychophysics,101,213762,0.0-3.0-1.48,"""",key,null,16.710999999999885,565.5,329.5,"""","""","""","""","""","""","""","""","2021-10-03 19:51:37",173.34.188.12,"Mozilla/5.0 (Macintosh; Intel Mac OS X 10_12_6) AppleWebKit/537.36 (KHTML, like Gecko) Chrome/92.0.4515.159 Safari/537.36",Macintosh,Chrome,92.0.4515.159,"OS X",10_12_6,fe3c1d035a65c549f7011c5446f73ede
20,1,699.2000000476837,arrowleft,psychophysics,102,214468,0.0-3.0-0.49,"""",key,arrowleft,16.710999999999597,565.5,329.5,50,2,-1,26,15,25,35,true,"2021-10-03 19:51:37",173.34.188.12,"Mozilla/5.0 (Macintosh; Intel Mac OS X 10_12_6) AppleWebKit/537.36 (KHTML, like Gecko) Chrome/92.0.4515.159 Safari/537.36",Macintosh,Chrome,92.0.4515.159,"OS X",10_12_6,fe3c1d035a65c549f7011c5446f73ede
20,1,null,null,psychophysics,103,215470,0.0-3.0-1.49,"""",key,null,16.710999999999885,565.5,329.5,"""","""","""","""","""","""","""","""","2021-10-03 19:51:37",173.34.188.12,"Mozilla/5.0 (Macintosh; Intel Mac OS X 10_12_6) AppleWebKit/537.36 (KHTML, like Gecko) Chrome/92.0.4515.159 Safari/537.36",Macintosh,Chrome,92.0.4515.159,"OS X",10_12_6,fe3c1d035a65c549f7011c5446f73ede
20,1,638.3999999761581,arrowleft,psychophysics,104,216111,0.0-3.0-0.50,"""",key,arrowleft,16.71100000000002,565.5,329.5,51,2,-1,26,15,25,35,true,"2021-10-03 19:51:37",173.34.188.12,"Mozilla/5.0 (Macintosh; Intel Mac OS X 10_12_6) AppleWebKit/537.36 (KHTML, like Gecko) Chrome/92.0.4515.159 Safari/537.36",Macintosh,Chrome,92.0.4515.159,"OS X",10_12_6,fe3c1d035a65c549f7011c5446f73ede
20,1,null,null,psychophysics,105,217113,0.0-3.0-1.50,"""",key,null,16.71100000000038,565.5,329.5,"""","""","""","""","""","""","""","""","2021-10-03 19:51:37",173.34.188.12,"Mozilla/5.0 (Macintosh; Intel Mac OS X 10_12_6) AppleWebKit/537.36 (KHTML, like Gecko) Chrome/92.0.4515.159 Safari/537.36",Macintosh,Chrome,92.0.4515.159,"OS X",10_12_6,fe3c1d035a65c549f7011c5446f73ede
20,1,1580.3000000715256,arrowright,psychophysics,106,218700,0.0-3.0-0.51,"""",key,arrowright,16.711000000000027,565.5,329.5,52,2,1,26,35,25,35,true,"2021-10-03 19:51:37",173.34.188.12,"Mozilla/5.0 (Macintosh; Intel Mac OS X 10_12_6) AppleWebKit/537.36 (KHTML, like Gecko) Chrome/92.0.4515.159 Safari/537.36",Macintosh,Chrome,92.0.4515.159,"OS X",10_12_6,fe3c1d035a65c549f7011c5446f73ede
20,1,null,null,psychophysics,107,219702,0.0-3.0-1.51,"""",key,null,16.710999999999885,565.5,329.5,"""","""","""","""","""","""","""","""","2021-10-03 19:51:37",173.34.188.12,"Mozilla/5.0 (Macintosh; Intel Mac OS X 10_12_6) AppleWebKit/537.36 (KHTML, like Gecko) Chrome/92.0.4515.159 Safari/537.36",Macintosh,Chrome,92.0.4515.159,"OS X",10_12_6,fe3c1d035a65c549f7011c5446f73ede
20,1,1338.6999999284744,arrowright,psychophysics,108,221050,0.0-3.0-0.52,"""",key,arrowright,16.71100000000006,565.5,329.5,53,2,-1,27,35,25,35,false,"2021-10-03 19:51:37",173.34.188.12,"Mozilla/5.0 (Macintosh; Intel Mac OS X 10_12_6) AppleWebKit/537.36 (KHTML, like Gecko) Chrome/92.0.4515.159 Safari/537.36",Macintosh,Chrome,92.0.4515.159,"OS X",10_12_6,fe3c1d035a65c549f7011c5446f73ede
20,1,null,null,psychophysics,109,222052,0.0-3.0-1.52,"""",key,null,16.71408474576261,565.5,329.5,"""","""","""","""","""","""","""","""","2021-10-03 19:51:37",173.34.188.12,"Mozilla/5.0 (Macintosh; Intel Mac OS X 10_12_6) AppleWebKit/537.36 (KHTML, like Gecko) Chrome/92.0.4515.159 Safari/537.36",Macintosh,Chrome,92.0.4515.159,"OS X",10_12_6,fe3c1d035a65c549f7011c5446f73ede
20,1,1582.6000000238419,arrowright,psychophysics,110,223638,0.0-3.0-0.53,"""",key,arrowright,16.711000000000027,565.5,329.5,54,2,-1,24,15,25,35,false,"2021-10-03 19:51:37",173.34.188.12,"Mozilla/5.0 (Macintosh; Intel Mac OS X 10_12_6) AppleWebKit/537.36 (KHTML, like Gecko) Chrome/92.0.4515.159 Safari/537.36",Macintosh,Chrome,92.0.4515.159,"OS X",10_12_6,fe3c1d035a65c549f7011c5446f73ede
20,1,null,null,psychophysics,111,224639,0.0-3.0-1.53,"""",key,null,16.710999999999885,565.5,329.5,"""","""","""","""","""","""","""","""","2021-10-03 19:51:37",173.34.188.12,"Mozilla/5.0 (Macintosh; Intel Mac OS X 10_12_6) AppleWebKit/537.36 (KHTML, like Gecko) Chrome/92.0.4515.159 Safari/537.36",Macintosh,Chrome,92.0.4515.159,"OS X",10_12_6,fe3c1d035a65c549f7011c5446f73ede
20,1,1885.8999999761581,arrowright,psychophysics,112,226530,0.0-3.0-0.54,"""",key,arrowright,16.71099999999985,565.5,329.5,55,2,1,27,35,25,35,true,"2021-10-03 19:51:37",173.34.188.12,"Mozilla/5.0 (Macintosh; Intel Mac OS X 10_12_6) AppleWebKit/537.36 (KHTML, like Gecko) Chrome/92.0.4515.159 Safari/537.36",Macintosh,Chrome,92.0.4515.159,"OS X",10_12_6,fe3c1d035a65c549f7011c5446f73ede
20,1,null,null,psychophysics,113,227535,0.0-3.0-1.54,"""",key,null,16.710999999999885,565.5,329.5,"""","""","""","""","""","""","""","""","2021-10-03 19:51:37",173.34.188.12,"Mozilla/5.0 (Macintosh; Intel Mac OS X 10_12_6) AppleWebKit/537.36 (KHTML, like Gecko) Chrome/92.0.4515.159 Safari/537.36",Macintosh,Chrome,92.0.4515.159,"OS X",10_12_6,fe3c1d035a65c549f7011c5446f73ede
20,1,3537.899999976158,arrowright,psychophysics,114,231076,0.0-3.0-0.55,"""",key,arrowright,16.7109999999999,565.5,329.5,56,3,1,24,15,25,35,true,"2021-10-03 19:51:37",173.34.188.12,"Mozilla/5.0 (Macintosh; Intel Mac OS X 10_12_6) AppleWebKit/537.36 (KHTML, like Gecko) Chrome/92.0.4515.159 Safari/537.36",Macintosh,Chrome,92.0.4515.159,"OS X",10_12_6,fe3c1d035a65c549f7011c5446f73ede
20,1,null,null,psychophysics,115,232078,0.0-3.0-1.55,"""",key,null,16.7141694915254,565.5,329.5,"""","""","""","""","""","""","""","""","2021-10-03 19:51:37",173.34.188.12,"Mozilla/5.0 (Macintosh; Intel Mac OS X 10_12_6) AppleWebKit/537.36 (KHTML, like Gecko) Chrome/92.0.4515.159 Safari/537.36",Macintosh,Chrome,92.0.4515.159,"OS X",10_12_6,fe3c1d035a65c549f7011c5446f73ede
20,1,3185.399999976158," ",html-keyboard-response,116,235267,0.0-3.0-2.55-0.55,"<div style=""color: white; text-align: center; vertical-align: top; display: inline-block; width: 800px; margin: auto""><p>You have completed 20% of the trials. You are on block 3 of 10. <br>Good job! Take a break if you need to.</p><p>Press any key to continue the experiment.</p></div>","""","""","""","""","""","""","""","""","""","""","""","""","""","2021-10-03 19:51:37",173.34.188.12,"Mozilla/5.0 (Macintosh; Intel Mac OS X 10_12_6) AppleWebKit/537.36 (KHTML, like Gecko) Chrome/92.0.4515.159 Safari/537.36",Macintosh,Chrome,92.0.4515.159,"OS X",10_12_6,fe3c1d035a65c549f7011c5446f73ede
20,1,1059.7000000476837,arrowright,psychophysics,117,237336,0.0-3.0-0.56,"""",key,arrowright,16.71100000000008,565.5,329.5,57,3,1,30,35,25,35,true,"2021-10-03 19:51:37",173.34.188.12,"Mozilla/5.0 (Macintosh; Intel Mac OS X 10_12_6) AppleWebKit/537.36 (KHTML, like Gecko) Chrome/92.0.4515.159 Safari/537.36",Macintosh,Chrome,92.0.4515.159,"OS X",10_12_6,fe3c1d035a65c549f7011c5446f73ede
20,1,null,null,psychophysics,118,238338,0.0-3.0-1.56,"""",key,null,16.710999999999885,565.5,329.5,"""","""","""","""","""","""","""","""","2021-10-03 19:51:37",173.34.188.12,"Mozilla/5.0 (Macintosh; Intel Mac OS X 10_12_6) AppleWebKit/537.36 (KHTML, like Gecko) Chrome/92.0.4515.159 Safari/537.36",Macintosh,Chrome,92.0.4515.159,"OS X",10_12_6,fe3c1d035a65c549f7011c5446f73ede
20,1,1790.8999999761581,arrowleft,psychophysics,119,240138,0.0-3.0-0.57,"""",key,arrowleft,16.71099999999991,565.5,329.5,58,3,-1,26,15,25,35,true,"2021-10-03 19:51:37",173.34.188.12,"Mozilla/5.0 (Macintosh; Intel Mac OS X 10_12_6) AppleWebKit/537.36 (KHTML, like Gecko) Chrome/92.0.4515.159 Safari/537.36",Macintosh,Chrome,92.0.4515.159,"OS X",10_12_6,fe3c1d035a65c549f7011c5446f73ede
20,1,null,null,psychophysics,120,241140,0.0-3.0-1.57,"""",key,null,16.710999999999885,565.5,329.5,"""","""","""","""","""","""","""","""","2021-10-03 19:51:37",173.34.188.12,"Mozilla/5.0 (Macintosh; Intel Mac OS X 10_12_6) AppleWebKit/537.36 (KHTML, like Gecko) Chrome/92.0.4515.159 Safari/537.36",Macintosh,Chrome,92.0.4515.159,"OS X",10_12_6,fe3c1d035a65c549f7011c5446f73ede
20,1,1331.4000000953674,arrowleft,psychophysics,121,242474,0.0-3.0-0.58,"""",key,arrowleft,16.713177215189695,565.5,329.5,59,3,-1,27,15,25,35,true,"2021-10-03 19:51:37",173.34.188.12,"Mozilla/5.0 (Macintosh; Intel Mac OS X 10_12_6) AppleWebKit/537.36 (KHTML, like Gecko) Chrome/92.0.4515.159 Safari/537.36",Macintosh,Chrome,92.0.4515.159,"OS X",10_12_6,fe3c1d035a65c549f7011c5446f73ede
20,1,null,null,psychophysics,122,243476,0.0-3.0-1.58,"""",key,null,16.710999999999885,565.5,329.5,"""","""","""","""","""","""","""","""","2021-10-03 19:51:37",173.34.188.12,"Mozilla/5.0 (Macintosh; Intel Mac OS X 10_12_6) AppleWebKit/537.36 (KHTML, like Gecko) Chrome/92.0.4515.159 Safari/537.36",Macintosh,Chrome,92.0.4515.159,"OS X",10_12_6,fe3c1d035a65c549f7011c5446f73ede
20,1,984.6999999284744,arrowleft,psychophysics,123,244463,0.0-3.0-0.59,"""",key,arrowleft,16.711000000000208,565.5,329.5,60,3,-1,25,15,25,35,true,"2021-10-03 19:51:37",173.34.188.12,"Mozilla/5.0 (Macintosh; Intel Mac OS X 10_12_6) AppleWebKit/537.36 (KHTML, like Gecko) Chrome/92.0.4515.159 Safari/537.36",Macintosh,Chrome,92.0.4515.159,"OS X",10_12_6,fe3c1d035a65c549f7011c5446f73ede
20,1,null,null,psychophysics,124,245476,0.0-3.0-1.59,"""",key,null,16.710999999999885,565.5,329.5,"""","""","""","""","""","""","""","""","2021-10-03 19:51:37",173.34.188.12,"Mozilla/5.0 (Macintosh; Intel Mac OS X 10_12_6) AppleWebKit/537.36 (KHTML, like Gecko) Chrome/92.0.4515.159 Safari/537.36",Macintosh,Chrome,92.0.4515.159,"OS X",10_12_6,fe3c1d035a65c549f7011c5446f73ede
20,1,2749.7000000476837,arrowright,psychophysics,125,248232,0.0-3.0-0.60,"""",key,arrowright,16.710999999999952,565.5,329.5,61,3,1,27,35,25,35,true,"2021-10-03 19:51:37",173.34.188.12,"Mozilla/5.0 (Macintosh; Intel Mac OS X 10_12_6) AppleWebKit/537.36 (KHTML, like Gecko) Chrome/92.0.4515.159 Safari/537.36",Macintosh,Chrome,92.0.4515.159,"OS X",10_12_6,fe3c1d035a65c549f7011c5446f73ede
20,1,null,null,psychophysics,126,249236,0.0-3.0-1.60,"""",key,null,16.710999999999885,565.5,329.5,"""","""","""","""","""","""","""","""","2021-10-03 19:51:37",173.34.188.12,"Mozilla/5.0 (Macintosh; Intel Mac OS X 10_12_6) AppleWebKit/537.36 (KHTML, like Gecko) Chrome/92.0.4515.159 Safari/537.36",Macintosh,Chrome,92.0.4515.159,"OS X",10_12_6,fe3c1d035a65c549f7011c5446f73ede
20,1,1063.3999999761581,arrowleft,psychophysics,127,250304,0.0-3.0-0.61,"""",key,arrowleft,16.71100000000008,565.5,329.5,62,3,1,20,35,25,35,false,"2021-10-03 19:51:37",173.34.188.12,"Mozilla/5.0 (Macintosh; Intel Mac OS X 10_12_6) AppleWebKit/537.36 (KHTML, like Gecko) Chrome/92.0.4515.159 Safari/537.36",Macintosh,Chrome,92.0.4515.159,"OS X",10_12_6,fe3c1d035a65c549f7011c5446f73ede
20,1,null,null,psychophysics,128,251306,0.0-3.0-1.61,"""",key,null,16.714050847457887,565.5,329.5,"""","""","""","""","""","""","""","""","2021-10-03 19:51:37",173.34.188.12,"Mozilla/5.0 (Macintosh; Intel Mac OS X 10_12_6) AppleWebKit/537.36 (KHTML, like Gecko) Chrome/92.0.4515.159 Safari/537.36",Macintosh,Chrome,92.0.4515.159,"OS X",10_12_6,fe3c1d035a65c549f7011c5446f73ede
20,1,816.2000000476837,arrowright,psychophysics,129,252132,0.0-3.0-0.62,"""",key,arrowright,16.711000000000148,565.5,329.5,63,3,1,26,15,25,35,true,"2021-10-03 19:51:37",173.34.188.12,"Mozilla/5.0 (Macintosh; Intel Mac OS X 10_12_6) AppleWebKit/537.36 (KHTML, like Gecko) Chrome/92.0.4515.159 Safari/537.36",Macintosh,Chrome,92.0.4515.159,"OS X",10_12_6,fe3c1d035a65c549f7011c5446f73ede
20,1,null,null,psychophysics,130,253135,0.0-3.0-1.62,"""",key,null,16.710999999999885,565.5,329.5,"""","""","""","""","""","""","""","""","2021-10-03 19:51:37",173.34.188.12,"Mozilla/5.0 (Macintosh; Intel Mac OS X 10_12_6) AppleWebKit/537.36 (KHTML, like Gecko) Chrome/92.0.4515.159 Safari/537.36",Macintosh,Chrome,92.0.4515.159,"OS X",10_12_6,fe3c1d035a65c549f7011c5446f73ede
20,1,869,arrowright,psychophysics,131,254006,0.0-3.0-0.63,"""",key,arrowright,16.710999999999974,565.5,329.5,64,3,1,20,15,25,35,true,"2021-10-03 19:51:37",173.34.188.12,"Mozilla/5.0 (Macintosh; Intel Mac OS X 10_12_6) AppleWebKit/537.36 (KHTML, like Gecko) Chrome/92.0.4515.159 Safari/537.36",Macintosh,Chrome,92.0.4515.159,"OS X",10_12_6,fe3c1d035a65c549f7011c5446f73ede
20,1,null,null,psychophysics,132,255008,0.0-3.0-1.63,"""",key,null,16.71100000000038,565.5,329.5,"""","""","""","""","""","""","""","""","2021-10-03 19:51:37",173.34.188.12,"Mozilla/5.0 (Macintosh; Intel Mac OS X 10_12_6) AppleWebKit/537.36 (KHTML, like Gecko) Chrome/92.0.4515.159 Safari/537.36",Macintosh,Chrome,92.0.4515.159,"OS X",10_12_6,fe3c1d035a65c549f7011c5446f73ede
20,1,3672.5,arrowright,psychophysics,133,258684,0.0-3.0-0.64,"""",key,arrowright,16.711000000000013,565.5,329.5,65,3,-1,20,15,25,35,false,"2021-10-03 19:51:37",173.34.188.12,"Mozilla/5.0 (Macintosh; Intel Mac OS X 10_12_6) AppleWebKit/537.36 (KHTML, like Gecko) Chrome/92.0.4515.159 Safari/537.36",Macintosh,Chrome,92.0.4515.159,"OS X",10_12_6,fe3c1d035a65c549f7011c5446f73ede
20,1,null,null,psychophysics,134,259689,0.0-3.0-1.64,"""",key,null,16.710999999999885,565.5,329.5,"""","""","""","""","""","""","""","""","2021-10-03 19:51:37",173.34.188.12,"Mozilla/5.0 (Macintosh; Intel Mac OS X 10_12_6) AppleWebKit/537.36 (KHTML, like Gecko) Chrome/92.0.4515.159 Safari/537.36",Macintosh,Chrome,92.0.4515.159,"OS X",10_12_6,fe3c1d035a65c549f7011c5446f73ede
20,1,1303,arrowright,psychophysics,135,260995,0.0-3.0-0.65,"""",key,arrowright,16.711000000000038,565.5,329.5,66,3,-1,20,15,25,35,false,"2021-10-03 19:51:37",173.34.188.12,"Mozilla/5.0 (Macintosh; Intel Mac OS X 10_12_6) AppleWebKit/537.36 (KHTML, like Gecko) Chrome/92.0.4515.159 Safari/537.36",Macintosh,Chrome,92.0.4515.159,"OS X",10_12_6,fe3c1d035a65c549f7011c5446f73ede
20,1,null,null,psychophysics,136,261997,0.0-3.0-1.65,"""",key,null,16.7140508474569,565.5,329.5,"""","""","""","""","""","""","""","""","2021-10-03 19:51:37",173.34.188.12,"Mozilla/5.0 (Macintosh; Intel Mac OS X 10_12_6) AppleWebKit/537.36 (KHTML, like Gecko) Chrome/92.0.4515.159 Safari/537.36",Macintosh,Chrome,92.0.4515.159,"OS X",10_12_6,fe3c1d035a65c549f7011c5446f73ede
20,1,1250.8999999761581,arrowright,psychophysics,137,263251,0.0-3.0-0.66,"""",key,arrowright,16.71100000000002,565.5,329.5,67,3,1,30,15,25,35,true,"2021-10-03 19:51:37",173.34.188.12,"Mozilla/5.0 (Macintosh; Intel Mac OS X 10_12_6) AppleWebKit/537.36 (KHTML, like Gecko) Chrome/92.0.4515.159 Safari/537.36",Macintosh,Chrome,92.0.4515.159,"OS X",10_12_6,fe3c1d035a65c549f7011c5446f73ede
20,1,null,null,psychophysics,138,264253,0.0-3.0-1.66,"""",key,null,16.71100000000038,565.5,329.5,"""","""","""","""","""","""","""","""","2021-10-03 19:51:37",173.34.188.12,"Mozilla/5.0 (Macintosh; Intel Mac OS X 10_12_6) AppleWebKit/537.36 (KHTML, like Gecko) Chrome/92.0.4515.159 Safari/537.36",Macintosh,Chrome,92.0.4515.159,"OS X",10_12_6,fe3c1d035a65c549f7011c5446f73ede
20,1,1179.2999999523163,arrowright,psychophysics,139,265436,0.0-3.0-0.67,"""",key,arrowright,16.711000000000265,565.5,329.5,68,3,-1,25,35,25,35,false,"2021-10-03 19:51:37",173.34.188.12,"Mozilla/5.0 (Macintosh; Intel Mac OS X 10_12_6) AppleWebKit/537.36 (KHTML, like Gecko) Chrome/92.0.4515.159 Safari/537.36",Macintosh,Chrome,92.0.4515.159,"OS X",10_12_6,fe3c1d035a65c549f7011c5446f73ede
20,1,null,null,psychophysics,140,266441,0.0-3.0-1.67,"""",key,null,16.71100000000038,565.5,329.5,"""","""","""","""","""","""","""","""","2021-10-03 19:51:37",173.34.188.12,"Mozilla/5.0 (Macintosh; Intel Mac OS X 10_12_6) AppleWebKit/537.36 (KHTML, like Gecko) Chrome/92.0.4515.159 Safari/537.36",Macintosh,Chrome,92.0.4515.159,"OS X",10_12_6,fe3c1d035a65c549f7011c5446f73ede
20,1,862.3000000715256,arrowright,psychophysics,141,267306,0.0-3.0-0.68,"""",key,arrowright,16.710999999999974,565.5,329.5,69,3,1,25,35,25,35,true,"2021-10-03 19:51:37",173.34.188.12,"Mozilla/5.0 (Macintosh; Intel Mac OS X 10_12_6) AppleWebKit/537.36 (KHTML, like Gecko) Chrome/92.0.4515.159 Safari/537.36",Macintosh,Chrome,92.0.4515.159,"OS X",10_12_6,fe3c1d035a65c549f7011c5446f73ede
20,1,null,null,psychophysics,142,268311,0.0-3.0-1.68,"""",key,null,16.71100000000038,565.5,329.5,"""","""","""","""","""","""","""","""","2021-10-03 19:51:37",173.34.188.12,"Mozilla/5.0 (Macintosh; Intel Mac OS X 10_12_6) AppleWebKit/537.36 (KHTML, like Gecko) Chrome/92.0.4515.159 Safari/537.36",Macintosh,Chrome,92.0.4515.159,"OS X",10_12_6,fe3c1d035a65c549f7011c5446f73ede
20,1,1881.3999999761581,arrowleft,psychophysics,143,270195,0.0-3.0-0.69,"""",key,arrowleft,16.71099999999985,565.5,329.5,70,3,-1,30,35,25,35,true,"2021-10-03 19:51:37",173.34.188.12,"Mozilla/5.0 (Macintosh; Intel Mac OS X 10_12_6) AppleWebKit/537.36 (KHTML, like Gecko) Chrome/92.0.4515.159 Safari/537.36",Macintosh,Chrome,92.0.4515.159,"OS X",10_12_6,fe3c1d035a65c549f7011c5446f73ede
20,1,null,null,psychophysics,144,271196,0.0-3.0-1.69,"""",key,null,16.71099999999939,565.5,329.5,"""","""","""","""","""","""","""","""","2021-10-03 19:51:37",173.34.188.12,"Mozilla/5.0 (Macintosh; Intel Mac OS X 10_12_6) AppleWebKit/537.36 (KHTML, like Gecko) Chrome/92.0.4515.159 Safari/537.36",Macintosh,Chrome,92.0.4515.159,"OS X",10_12_6,fe3c1d035a65c549f7011c5446f73ede
20,1,3206.899999976158,arrowleft,psychophysics,145,274415,0.0-3.0-0.70,"""",key,arrowleft,16.711942408377116,565.5,329.5,71,3,-1,26,35,25,35,true,"2021-10-03 19:51:37",173.34.188.12,"Mozilla/5.0 (Macintosh; Intel Mac OS X 10_12_6) AppleWebKit/537.36 (KHTML, like Gecko) Chrome/92.0.4515.159 Safari/537.36",Macintosh,Chrome,92.0.4515.159,"OS X",10_12_6,fe3c1d035a65c549f7011c5446f73ede
20,1,null,null,psychophysics,146,275421,0.0-3.0-1.70,"""",key,null,16.71099999999939,565.5,329.5,"""","""","""","""","""","""","""","""","2021-10-03 19:51:37",173.34.188.12,"Mozilla/5.0 (Macintosh; Intel Mac OS X 10_12_6) AppleWebKit/537.36 (KHTML, like Gecko) Chrome/92.0.4515.159 Safari/537.36",Macintosh,Chrome,92.0.4515.159,"OS X",10_12_6,fe3c1d035a65c549f7011c5446f73ede
20,1,1668.8000000715256,arrowright,psychophysics,147,277095,0.0-3.0-0.71,"""",key,arrowright,16.710999999999768,565.5,329.5,72,3,-1,24,35,25,35,false,"2021-10-03 19:51:37",173.34.188.12,"Mozilla/5.0 (Macintosh; Intel Mac OS X 10_12_6) AppleWebKit/537.36 (KHTML, like Gecko) Chrome/92.0.4515.159 Safari/537.36",Macintosh,Chrome,92.0.4515.159,"OS X",10_12_6,fe3c1d035a65c549f7011c5446f73ede
20,1,null,null,psychophysics,148,278097,0.0-3.0-1.71,"""",key,null,16.71100000000038,565.5,329.5,"""","""","""","""","""","""","""","""","2021-10-03 19:51:37",173.34.188.12,"Mozilla/5.0 (Macintosh; Intel Mac OS X 10_12_6) AppleWebKit/537.36 (KHTML, like Gecko) Chrome/92.0.4515.159 Safari/537.36",Macintosh,Chrome,92.0.4515.159,"OS X",10_12_6,fe3c1d035a65c549f7011c5446f73ede
20,1,1516.0999999046326,arrowright,psychophysics,149,279616,0.0-3.0-0.72,"""",key,arrowright,16.710999999999782,565.5,329.5,73,3,-1,20,15,25,35,false,"2021-10-03 19:51:37",173.34.188.12,"Mozilla/5.0 (Macintosh; Intel Mac OS X 10_12_6) AppleWebKit/537.36 (KHTML, like Gecko) Chrome/92.0.4515.159 Safari/537.36",Macintosh,Chrome,92.0.4515.159,"OS X",10_12_6,fe3c1d035a65c549f7011c5446f73ede
20,1,null,null,psychophysics,150,280618,0.0-3.0-1.72,"""",key,null,16.71099999999939,565.5,329.5,"""","""","""","""","""","""","""","""","2021-10-03 19:51:37",173.34.188.12,"Mozilla/5.0 (Macintosh; Intel Mac OS X 10_12_6) AppleWebKit/537.36 (KHTML, like Gecko) Chrome/92.0.4515.159 Safari/537.36",Macintosh,Chrome,92.0.4515.159,"OS X",10_12_6,fe3c1d035a65c549f7011c5446f73ede
20,1,2384.7999999523163,arrowright,psychophysics,151,283013,0.0-3.0-0.73,"""",key,arrowright,16.712272727273003,565.5,329.5,74,3,1,25,35,25,35,true,"2021-10-03 19:51:37",173.34.188.12,"Mozilla/5.0 (Macintosh; Intel Mac OS X 10_12_6) AppleWebKit/537.36 (KHTML, like Gecko) Chrome/92.0.4515.159 Safari/537.36",Macintosh,Chrome,92.0.4515.159,"OS X",10_12_6,fe3c1d035a65c549f7011c5446f73ede
20,1,null,null,psychophysics,152,284015,0.0-3.0-1.73,"""",key,null,16.71100000000038,565.5,329.5,"""","""","""","""","""","""","""","""","2021-10-03 19:51:37",173.34.188.12,"Mozilla/5.0 (Macintosh; Intel Mac OS X 10_12_6) AppleWebKit/537.36 (KHTML, like Gecko) Chrome/92.0.4515.159 Safari/537.36",Macintosh,Chrome,92.0.4515.159,"OS X",10_12_6,fe3c1d035a65c549f7011c5446f73ede
20,1,1441.6000000238419,arrowleft,psychophysics,153,285460,0.0-3.0-0.74,"""",key,arrowleft,16.710999999999974,565.5,329.5,75,3,1,20,15,25,35,false,"2021-10-03 19:51:37",173.34.188.12,"Mozilla/5.0 (Macintosh; Intel Mac OS X 10_12_6) AppleWebKit/537.36 (KHTML, like Gecko) Chrome/92.0.4515.159 Safari/537.36",Macintosh,Chrome,92.0.4515.159,"OS X",10_12_6,fe3c1d035a65c549f7011c5446f73ede
20,1,null,null,psychophysics,154,286462,0.0-3.0-1.74,"""",key,null,16.71099999999939,565.5,329.5,"""","""","""","""","""","""","""","""","2021-10-03 19:51:37",173.34.188.12,"Mozilla/5.0 (Macintosh; Intel Mac OS X 10_12_6) AppleWebKit/537.36 (KHTML, like Gecko) Chrome/92.0.4515.159 Safari/537.36",Macintosh,Chrome,92.0.4515.159,"OS X",10_12_6,fe3c1d035a65c549f7011c5446f73ede
20,1,1026.6000000238419,arrowright,psychophysics,155,287491,0.0-3.0-0.75,"""",key,arrowright,16.71099999999975,565.5,329.5,76,3,1,23,35,25,35,true,"2021-10-03 19:51:37",173.34.188.12,"Mozilla/5.0 (Macintosh; Intel Mac OS X 10_12_6) AppleWebKit/537.36 (KHTML, like Gecko) Chrome/92.0.4515.159 Safari/537.36",Macintosh,Chrome,92.0.4515.159,"OS X",10_12_6,fe3c1d035a65c549f7011c5446f73ede
20,1,null,null,psychophysics,156,288496,0.0-3.0-1.75,"""",key,null,16.71100000000038,565.5,329.5,"""","""","""","""","""","""","""","""","2021-10-03 19:51:37",173.34.188.12,"Mozilla/5.0 (Macintosh; Intel Mac OS X 10_12_6) AppleWebKit/537.36 (KHTML, like Gecko) Chrome/92.0.4515.159 Safari/537.36",Macintosh,Chrome,92.0.4515.159,"OS X",10_12_6,fe3c1d035a65c549f7011c5446f73ede
20,1,1081.3999999761581,arrowright,psychophysics,157,289580,0.0-3.0-0.76,"""",key,arrowright,16.71099999999933,565.5,329.5,77,3,-1,23,15,25,35,false,"2021-10-03 19:51:37",173.34.188.12,"Mozilla/5.0 (Macintosh; Intel Mac OS X 10_12_6) AppleWebKit/537.36 (KHTML, like Gecko) Chrome/92.0.4515.159 Safari/537.36",Macintosh,Chrome,92.0.4515.159,"OS X",10_12_6,fe3c1d035a65c549f7011c5446f73ede
20,1,null,null,psychophysics,158,290582,0.0-3.0-1.76,"""",key,null,16.71100000000038,565.5,329.5,"""","""","""","""","""","""","""","""","2021-10-03 19:51:37",173.34.188.12,"Mozilla/5.0 (Macintosh; Intel Mac OS X 10_12_6) AppleWebKit/537.36 (KHTML, like Gecko) Chrome/92.0.4515.159 Safari/537.36",Macintosh,Chrome,92.0.4515.159,"OS X",10_12_6,fe3c1d035a65c549f7011c5446f73ede
20,1,1218.8999999761581,arrowright,psychophysics,159,291803,0.0-3.0-0.77,"""",key,arrowright,16.71347222222216,565.5,329.5,78,3,1,25,15,25,35,true,"2021-10-03 19:51:37",173.34.188.12,"Mozilla/5.0 (Macintosh; Intel Mac OS X 10_12_6) AppleWebKit/537.36 (KHTML, like Gecko) Chrome/92.0.4515.159 Safari/537.36",Macintosh,Chrome,92.0.4515.159,"OS X",10_12_6,fe3c1d035a65c549f7011c5446f73ede
20,1,null,null,psychophysics,160,292805,0.0-3.0-1.77,"""",key,null,16.71099999999939,565.5,329.5,"""","""","""","""","""","""","""","""","2021-10-03 19:51:37",173.34.188.12,"Mozilla/5.0 (Macintosh; Intel Mac OS X 10_12_6) AppleWebKit/537.36 (KHTML, like Gecko) Chrome/92.0.4515.159 Safari/537.36",Macintosh,Chrome,92.0.4515.159,"OS X",10_12_6,fe3c1d035a65c549f7011c5446f73ede
20,1,1025.8999999761581,arrowleft,psychophysics,161,293834,0.0-3.0-0.78,"""",key,arrowleft,16.710999999999572,565.5,329.5,79,3,-1,23,35,25,35,true,"2021-10-03 19:51:37",173.34.188.12,"Mozilla/5.0 (Macintosh; Intel Mac OS X 10_12_6) AppleWebKit/537.36 (KHTML, like Gecko) Chrome/92.0.4515.159 Safari/537.36",Macintosh,Chrome,92.0.4515.159,"OS X",10_12_6,fe3c1d035a65c549f7011c5446f73ede
20,1,null,null,psychophysics,162,294841,0.0-3.0-1.78,"""",key,null,16.711000000000542,565.5,329.5,"""","""","""","""","""","""","""","""","2021-10-03 19:51:37",173.34.188.12,"Mozilla/5.0 (Macintosh; Intel Mac OS X 10_12_6) AppleWebKit/537.36 (KHTML, like Gecko) Chrome/92.0.4515.159 Safari/537.36",Macintosh,Chrome,92.0.4515.159,"OS X",10_12_6,fe3c1d035a65c549f7011c5446f73ede
20,1,1120.6999999284744,arrowright,psychophysics,163,295965,0.0-3.0-0.79,"""",key,arrowright,16.71099999999966,565.5,329.5,80,3,-1,20,15,25,35,false,"2021-10-03 19:51:37",173.34.188.12,"Mozilla/5.0 (Macintosh; Intel Mac OS X 10_12_6) AppleWebKit/537.36 (KHTML, like Gecko) Chrome/92.0.4515.159 Safari/537.36",Macintosh,Chrome,92.0.4515.159,"OS X",10_12_6,fe3c1d035a65c549f7011c5446f73ede
20,1,null,null,psychophysics,164,296967,0.0-3.0-1.79,"""",key,null,16.71099999999939,565.5,329.5,"""","""","""","""","""","""","""","""","2021-10-03 19:51:37",173.34.188.12,"Mozilla/5.0 (Macintosh; Intel Mac OS X 10_12_6) AppleWebKit/537.36 (KHTML, like Gecko) Chrome/92.0.4515.159 Safari/537.36",Macintosh,Chrome,92.0.4515.159,"OS X",10_12_6,fe3c1d035a65c549f7011c5446f73ede
20,1,847.1000000238419,arrowleft,psychophysics,165,297817,0.0-3.0-0.80,"""",key,arrowleft,16.710999999999768,565.5,329.5,81,3,-1,30,15,25,35,true,"2021-10-03 19:51:37",173.34.188.12,"Mozilla/5.0 (Macintosh; Intel Mac OS X 10_12_6) AppleWebKit/537.36 (KHTML, like Gecko) Chrome/92.0.4515.159 Safari/537.36",Macintosh,Chrome,92.0.4515.159,"OS X",10_12_6,fe3c1d035a65c549f7011c5446f73ede
20,1,null,null,psychophysics,166,298818,0.0-3.0-1.80,"""",key,null,16.71100000000038,565.5,329.5,"""","""","""","""","""","""","""","""","2021-10-03 19:51:37",173.34.188.12,"Mozilla/5.0 (Macintosh; Intel Mac OS X 10_12_6) AppleWebKit/537.36 (KHTML, like Gecko) Chrome/92.0.4515.159 Safari/537.36",Macintosh,Chrome,92.0.4515.159,"OS X",10_12_6,fe3c1d035a65c549f7011c5446f73ede
20,1,857,arrowleft,psychophysics,167,299678,0.0-3.0-0.81,"""",key,arrowleft,16.710999999999768,565.5,329.5,82,3,-1,30,35,25,35,true,"2021-10-03 19:51:37",173.34.188.12,"Mozilla/5.0 (Macintosh; Intel Mac OS X 10_12_6) AppleWebKit/537.36 (KHTML, like Gecko) Chrome/92.0.4515.159 Safari/537.36",Macintosh,Chrome,92.0.4515.159,"OS X",10_12_6,fe3c1d035a65c549f7011c5446f73ede
20,1,null,null,psychophysics,168,300681,0.0-3.0-1.81,"""",key,null,16.71099999999939,565.5,329.5,"""","""","""","""","""","""","""","""","2021-10-03 19:51:37",173.34.188.12,"Mozilla/5.0 (Macintosh; Intel Mac OS X 10_12_6) AppleWebKit/537.36 (KHTML, like Gecko) Chrome/92.0.4515.159 Safari/537.36",Macintosh,Chrome,92.0.4515.159,"OS X",10_12_6,fe3c1d035a65c549f7011c5446f73ede
20,1,1750.7999999523163,arrowleft,psychophysics,169,302442,0.0-3.0-0.82,"""",key,arrowleft,16.712749999999897,565.5,329.5,83,3,-1,23,15,25,35,true,"2021-10-03 19:51:37",173.34.188.12,"Mozilla/5.0 (Macintosh; Intel Mac OS X 10_12_6) AppleWebKit/537.36 (KHTML, like Gecko) Chrome/92.0.4515.159 Safari/537.36",Macintosh,Chrome,92.0.4515.159,"OS X",10_12_6,fe3c1d035a65c549f7011c5446f73ede
20,1,null,null,psychophysics,170,303444,0.0-3.0-1.82,"""",key,null,16.71100000000038,565.5,329.5,"""","""","""","""","""","""","""","""","2021-10-03 19:51:37",173.34.188.12,"Mozilla/5.0 (Macintosh; Intel Mac OS X 10_12_6) AppleWebKit/537.36 (KHTML, like Gecko) Chrome/92.0.4515.159 Safari/537.36",Macintosh,Chrome,92.0.4515.159,"OS X",10_12_6,fe3c1d035a65c549f7011c5446f73ede
20,1,1109.1000000238419,arrowright,psychophysics,171,304559,0.0-3.0-0.83,"""",key,arrowright,16.71099999999966,565.5,329.5,84,4,1,30,35,25,35,true,"2021-10-03 19:51:37",173.34.188.12,"Mozilla/5.0 (Macintosh; Intel Mac OS X 10_12_6) AppleWebKit/537.36 (KHTML, like Gecko) Chrome/92.0.4515.159 Safari/537.36",Macintosh,Chrome,92.0.4515.159,"OS X",10_12_6,fe3c1d035a65c549f7011c5446f73ede
20,1,null,null,psychophysics,172,305560,0.0-3.0-1.83,"""",key,null,16.71099999999939,565.5,329.5,"""","""","""","""","""","""","""","""","2021-10-03 19:51:37",173.34.188.12,"Mozilla/5.0 (Macintosh; Intel Mac OS X 10_12_6) AppleWebKit/537.36 (KHTML, like Gecko) Chrome/92.0.4515.159 Safari/537.36",Macintosh,Chrome,92.0.4515.159,"OS X",10_12_6,fe3c1d035a65c549f7011c5446f73ede
20,1,2533.9000000953674," ",html-keyboard-response,173,308096,0.0-3.0-2.83-0.83,"<div style=""color: white; text-align: center; vertical-align: top; display: inline-block; width: 800px; margin: auto""><p>You have completed 30% of the trials. You are on block 4 of 10. <br>Good job! Take a break if you need to.</p><p>Press any key to continue the experiment.</p></div>","""","""","""","""","""","""","""","""","""","""","""","""","""","2021-10-03 19:51:37",173.34.188.12,"Mozilla/5.0 (Macintosh; Intel Mac OS X 10_12_6) AppleWebKit/537.36 (KHTML, like Gecko) Chrome/92.0.4515.159 Safari/537.36",Macintosh,Chrome,92.0.4515.159,"OS X",10_12_6,fe3c1d035a65c549f7011c5446f73ede
20,1,1111.6000000238419,arrowleft,psychophysics,174,310217,0.0-3.0-0.84,"""",key,arrowleft,16.71099999999982,565.5,329.5,85,4,-1,30,35,25,35,true,"2021-10-03 19:51:37",173.34.188.12,"Mozilla/5.0 (Macintosh; Intel Mac OS X 10_12_6) AppleWebKit/537.36 (KHTML, like Gecko) Chrome/92.0.4515.159 Safari/537.36",Macintosh,Chrome,92.0.4515.159,"OS X",10_12_6,fe3c1d035a65c549f7011c5446f73ede
20,1,null,null,psychophysics,175,311218,0.0-3.0-1.84,"""",key,null,16.71100000000038,565.5,329.5,"""","""","""","""","""","""","""","""","2021-10-03 19:51:37",173.34.188.12,"Mozilla/5.0 (Macintosh; Intel Mac OS X 10_12_6) AppleWebKit/537.36 (KHTML, like Gecko) Chrome/92.0.4515.159 Safari/537.36",Macintosh,Chrome,92.0.4515.159,"OS X",10_12_6,fe3c1d035a65c549f7011c5446f73ede
20,1,1435.9000000953674,arrowright,psychophysics,176,312657,0.0-3.0-0.85,"""",key,arrowright,16.71310588235296,565.5,329.5,86,4,-1,23,15,25,35,false,"2021-10-03 19:51:37",173.34.188.12,"Mozilla/5.0 (Macintosh; Intel Mac OS X 10_12_6) AppleWebKit/537.36 (KHTML, like Gecko) Chrome/92.0.4515.159 Safari/537.36",Macintosh,Chrome,92.0.4515.159,"OS X",10_12_6,fe3c1d035a65c549f7011c5446f73ede
20,1,null,null,psychophysics,177,313659,0.0-3.0-1.85,"""",key,null,16.71100000000038,565.5,329.5,"""","""","""","""","""","""","""","""","2021-10-03 19:51:37",173.34.188.12,"Mozilla/5.0 (Macintosh; Intel Mac OS X 10_12_6) AppleWebKit/537.36 (KHTML, like Gecko) Chrome/92.0.4515.159 Safari/537.36",Macintosh,Chrome,92.0.4515.159,"OS X",10_12_6,fe3c1d035a65c549f7011c5446f73ede
20,1,976.3999999761581,arrowleft,psychophysics,178,314638,0.0-3.0-0.86,"""",key,arrowleft,16.711000000000034,565.5,329.5,87,4,-1,27,15,25,35,true,"2021-10-03 19:51:37",173.34.188.12,"Mozilla/5.0 (Macintosh; Intel Mac OS X 10_12_6) AppleWebKit/537.36 (KHTML, like Gecko) Chrome/92.0.4515.159 Safari/537.36",Macintosh,Chrome,92.0.4515.159,"OS X",10_12_6,fe3c1d035a65c549f7011c5446f73ede
20,1,null,null,psychophysics,179,315646,0.0-3.0-1.86,"""",key,null,16.710999999999572,565.5,329.5,"""","""","""","""","""","""","""","""","2021-10-03 19:51:37",173.34.188.12,"Mozilla/5.0 (Macintosh; Intel Mac OS X 10_12_6) AppleWebKit/537.36 (KHTML, like Gecko) Chrome/92.0.4515.159 Safari/537.36",Macintosh,Chrome,92.0.4515.159,"OS X",10_12_6,fe3c1d035a65c549f7011c5446f73ede
20,1,971.1999999284744,arrowleft,psychophysics,180,316621,0.0-3.0-0.87,"""",key,arrowleft,16.711000000000034,565.5,329.5,88,4,1,20,15,25,35,false,"2021-10-03 19:51:37",173.34.188.12,"Mozilla/5.0 (Macintosh; Intel Mac OS X 10_12_6) AppleWebKit/537.36 (KHTML, like Gecko) Chrome/92.0.4515.159 Safari/537.36",Macintosh,Chrome,92.0.4515.159,"OS X",10_12_6,fe3c1d035a65c549f7011c5446f73ede
20,1,null,null,psychophysics,181,317623,0.0-3.0-1.87,"""",key,null,16.71099999999939,565.5,329.5,"""","""","""","""","""","""","""","""","2021-10-03 19:51:37",173.34.188.12,"Mozilla/5.0 (Macintosh; Intel Mac OS X 10_12_6) AppleWebKit/537.36 (KHTML, like Gecko) Chrome/92.0.4515.159 Safari/537.36",Macintosh,Chrome,92.0.4515.159,"OS X",10_12_6,fe3c1d035a65c549f7011c5446f73ede
20,1,1364.8999999761581,arrowleft,psychophysics,182,318990,0.0-3.0-0.88,"""",key,arrowleft,16.711000000000183,565.5,329.5,89,4,1,24,35,25,35,false,"2021-10-03 19:51:37",173.34.188.12,"Mozilla/5.0 (Macintosh; Intel Mac OS X 10_12_6) AppleWebKit/537.36 (KHTML, like Gecko) Chrome/92.0.4515.159 Safari/537.36",Macintosh,Chrome,92.0.4515.159,"OS X",10_12_6,fe3c1d035a65c549f7011c5446f73ede
20,1,null,null,psychophysics,183,319992,0.0-3.0-1.88,"""",key,null,16.71099999999939,565.5,329.5,"""","""","""","""","""","""","""","""","2021-10-03 19:51:37",173.34.188.12,"Mozilla/5.0 (Macintosh; Intel Mac OS X 10_12_6) AppleWebKit/537.36 (KHTML, like Gecko) Chrome/92.0.4515.159 Safari/537.36",Macintosh,Chrome,92.0.4515.159,"OS X",10_12_6,fe3c1d035a65c549f7011c5446f73ede
20,1,1302,arrowleft,psychophysics,184,321296,0.0-3.0-0.89,"""",key,arrowleft,16.711000000000418,565.5,329.5,90,4,-1,30,35,25,35,true,"2021-10-03 19:51:37",173.34.188.12,"Mozilla/5.0 (Macintosh; Intel Mac OS X 10_12_6) AppleWebKit/537.36 (KHTML, like Gecko) Chrome/92.0.4515.159 Safari/537.36",Macintosh,Chrome,92.0.4515.159,"OS X",10_12_6,fe3c1d035a65c549f7011c5446f73ede
20,1,null,null,psychophysics,185,322303,0.0-3.0-1.89,"""",key,null,16.714050847457887,565.5,329.5,"""","""","""","""","""","""","""","""","2021-10-03 19:51:37",173.34.188.12,"Mozilla/5.0 (Macintosh; Intel Mac OS X 10_12_6) AppleWebKit/537.36 (KHTML, like Gecko) Chrome/92.0.4515.159 Safari/537.36",Macintosh,Chrome,92.0.4515.159,"OS X",10_12_6,fe3c1d035a65c549f7011c5446f73ede
20,1,1369.2999999523163,arrowleft,psychophysics,186,323675,0.0-3.0-0.90,"""",key,arrowleft,16.711000000000183,565.5,329.5,91,4,-1,24,15,25,35,true,"2021-10-03 19:51:37",173.34.188.12,"Mozilla/5.0 (Macintosh; Intel Mac OS X 10_12_6) AppleWebKit/537.36 (KHTML, like Gecko) Chrome/92.0.4515.159 Safari/537.36",Macintosh,Chrome,92.0.4515.159,"OS X",10_12_6,fe3c1d035a65c549f7011c5446f73ede
20,1,null,null,psychophysics,187,324676,0.0-3.0-1.90,"""",key,null,16.71099999999939,565.5,329.5,"""","""","""","""","""","""","""","""","2021-10-03 19:51:37",173.34.188.12,"Mozilla/5.0 (Macintosh; Intel Mac OS X 10_12_6) AppleWebKit/537.36 (KHTML, like Gecko) Chrome/92.0.4515.159 Safari/537.36",Macintosh,Chrome,92.0.4515.159,"OS X",10_12_6,fe3c1d035a65c549f7011c5446f73ede
20,1,776.9000000953674,arrowleft,psychophysics,188,325456,0.0-3.0-0.91,"""",key,arrowleft,16.711000000000123,565.5,329.5,92,4,-1,27,15,25,35,true,"2021-10-03 19:51:37",173.34.188.12,"Mozilla/5.0 (Macintosh; Intel Mac OS X 10_12_6) AppleWebKit/537.36 (KHTML, like Gecko) Chrome/92.0.4515.159 Safari/537.36",Macintosh,Chrome,92.0.4515.159,"OS X",10_12_6,fe3c1d035a65c549f7011c5446f73ede
20,1,null,null,psychophysics,189,326464,0.0-3.0-1.91,"""",key,null,16.71099999999939,565.5,329.5,"""","""","""","""","""","""","""","""","2021-10-03 19:51:37",173.34.188.12,"Mozilla/5.0 (Macintosh; Intel Mac OS X 10_12_6) AppleWebKit/537.36 (KHTML, like Gecko) Chrome/92.0.4515.159 Safari/537.36",Macintosh,Chrome,92.0.4515.159,"OS X",10_12_6,fe3c1d035a65c549f7011c5446f73ede
20,1,677.8999999761581,arrowleft,psychophysics,190,327145,0.0-3.0-0.92,"""",key,arrowleft,16.71100000000006,565.5,329.5,93,4,-1,27,15,25,35,true,"2021-10-03 19:51:37",173.34.188.12,"Mozilla/5.0 (Macintosh; Intel Mac OS X 10_12_6) AppleWebKit/537.36 (KHTML, like Gecko) Chrome/92.0.4515.159 Safari/537.36",Macintosh,Chrome,92.0.4515.159,"OS X",10_12_6,fe3c1d035a65c549f7011c5446f73ede
20,1,null,null,psychophysics,191,328147,0.0-3.0-1.92,"""",key,null,16.71100000000038,565.5,329.5,"""","""","""","""","""","""","""","""","2021-10-03 19:51:37",173.34.188.12,"Mozilla/5.0 (Macintosh; Intel Mac OS X 10_12_6) AppleWebKit/537.36 (KHTML, like Gecko) Chrome/92.0.4515.159 Safari/537.36",Macintosh,Chrome,92.0.4515.159,"OS X",10_12_6,fe3c1d035a65c549f7011c5446f73ede
20,1,1357,arrowleft,psychophysics,192,329510,0.0-3.0-0.93,"""",key,arrowleft,16.71100000000006,565.5,329.5,94,4,1,23,15,25,35,false,"2021-10-03 19:51:37",173.34.188.12,"Mozilla/5.0 (Macintosh; Intel Mac OS X 10_12_6) AppleWebKit/537.36 (KHTML, like Gecko) Chrome/92.0.4515.159 Safari/537.36",Macintosh,Chrome,92.0.4515.159,"OS X",10_12_6,fe3c1d035a65c549f7011c5446f73ede
20,1,null,null,psychophysics,193,330512,0.0-3.0-1.93,"""",key,null,16.71100000000038,565.5,329.5,"""","""","""","""","""","""","""","""","2021-10-03 19:51:37",173.34.188.12,"Mozilla/5.0 (Macintosh; Intel Mac OS X 10_12_6) AppleWebKit/537.36 (KHTML, like Gecko) Chrome/92.0.4515.159 Safari/537.36",Macintosh,Chrome,92.0.4515.159,"OS X",10_12_6,fe3c1d035a65c549f7011c5446f73ede
20,1,1334.1000000238419,arrowleft,psychophysics,194,331849,0.0-3.0-0.94,"""",key,arrowleft,16.713367088607225,565.5,329.5,95,4,-1,25,35,25,35,true,"2021-10-03 19:51:37",173.34.188.12,"Mozilla/5.0 (Macintosh; Intel Mac OS X 10_12_6) AppleWebKit/537.36 (KHTML, like Gecko) Chrome/92.0.4515.159 Safari/537.36",Macintosh,Chrome,92.0.4515.159,"OS X",10_12_6,fe3c1d035a65c549f7011c5446f73ede
20,1,null,null,psychophysics,195,332850,0.0-3.0-1.94,"""",key,null,16.71099999999939,565.5,329.5,"""","""","""","""","""","""","""","""","2021-10-03 19:51:37",173.34.188.12,"Mozilla/5.0 (Macintosh; Intel Mac OS X 10_12_6) AppleWebKit/537.36 (KHTML, like Gecko) Chrome/92.0.4515.159 Safari/537.36",Macintosh,Chrome,92.0.4515.159,"OS X",10_12_6,fe3c1d035a65c549f7011c5446f73ede
20,1,810.1000000238419,arrowright,psychophysics,196,333663,0.0-3.0-0.95,"""",key,arrowright,16.711000000000542,565.5,329.5,96,4,1,27,15,25,35,true,"2021-10-03 19:51:37",173.34.188.12,"Mozilla/5.0 (Macintosh; Intel Mac OS X 10_12_6) AppleWebKit/537.36 (KHTML, like Gecko) Chrome/92.0.4515.159 Safari/537.36",Macintosh,Chrome,92.0.4515.159,"OS X",10_12_6,fe3c1d035a65c549f7011c5446f73ede
20,1,null,null,psychophysics,197,334665,0.0-3.0-1.95,"""",key,null,16.71099999999939,565.5,329.5,"""","""","""","""","""","""","""","""","2021-10-03 19:51:37",173.34.188.12,"Mozilla/5.0 (Macintosh; Intel Mac OS X 10_12_6) AppleWebKit/537.36 (KHTML, like Gecko) Chrome/92.0.4515.159 Safari/537.36",Macintosh,Chrome,92.0.4515.159,"OS X",10_12_6,fe3c1d035a65c549f7011c5446f73ede
20,1,678.5,arrowright,psychophysics,198,335350,0.0-3.0-0.96,"""",key,arrowright,16.71100000000006,565.5,329.5,97,4,1,27,15,25,35,true,"2021-10-03 19:51:37",173.34.188.12,"Mozilla/5.0 (Macintosh; Intel Mac OS X 10_12_6) AppleWebKit/537.36 (KHTML, like Gecko) Chrome/92.0.4515.159 Safari/537.36",Macintosh,Chrome,92.0.4515.159,"OS X",10_12_6,fe3c1d035a65c549f7011c5446f73ede
20,1,null,null,psychophysics,199,336351,0.0-3.0-1.96,"""",key,null,16.71100000000038,565.5,329.5,"""","""","""","""","""","""","""","""","2021-10-03 19:51:37",173.34.188.12,"Mozilla/5.0 (Macintosh; Intel Mac OS X 10_12_6) AppleWebKit/537.36 (KHTML, like Gecko) Chrome/92.0.4515.159 Safari/537.36",Macintosh,Chrome,92.0.4515.159,"OS X",10_12_6,fe3c1d035a65c549f7011c5446f73ede
20,1,2005.7999999523163,arrowright,psychophysics,200,338359,0.0-3.0-0.97,"""",key,arrowright,16.710999999999974,565.5,329.5,98,4,-1,20,15,25,35,false,"2021-10-03 19:51:37",173.34.188.12,"Mozilla/5.0 (Macintosh; Intel Mac OS X 10_12_6) AppleWebKit/537.36 (KHTML, like Gecko) Chrome/92.0.4515.159 Safari/537.36",Macintosh,Chrome,92.0.4515.159,"OS X",10_12_6,fe3c1d035a65c549f7011c5446f73ede
20,1,null,null,psychophysics,201,339361,0.0-3.0-1.97,"""",key,null,16.71100000000038,565.5,329.5,"""","""","""","""","""","""","""","""","2021-10-03 19:51:37",173.34.188.12,"Mozilla/5.0 (Macintosh; Intel Mac OS X 10_12_6) AppleWebKit/537.36 (KHTML, like Gecko) Chrome/92.0.4515.159 Safari/537.36",Macintosh,Chrome,92.0.4515.159,"OS X",10_12_6,fe3c1d035a65c549f7011c5446f73ede
20,1,1203.5,arrowleft,psychophysics,202,340567,0.0-3.0-0.98,"""",key,arrowleft,16.710999999999586,565.5,329.5,99,4,1,23,15,25,35,false,"2021-10-03 19:51:37",173.34.188.12,"Mozilla/5.0 (Macintosh; Intel Mac OS X 10_12_6) AppleWebKit/537.36 (KHTML, like Gecko) Chrome/92.0.4515.159 Safari/537.36",Macintosh,Chrome,92.0.4515.159,"OS X",10_12_6,fe3c1d035a65c549f7011c5446f73ede
20,1,null,null,psychophysics,203,341569,0.0-3.0-1.98,"""",key,null,16.713237288135687,565.5,329.5,"""","""","""","""","""","""","""","""","2021-10-03 19:51:37",173.34.188.12,"Mozilla/5.0 (Macintosh; Intel Mac OS X 10_12_6) AppleWebKit/537.36 (KHTML, like Gecko) Chrome/92.0.4515.159 Safari/537.36",Macintosh,Chrome,92.0.4515.159,"OS X",10_12_6,fe3c1d035a65c549f7011c5446f73ede
20,1,1321.3000000715256,arrowleft,psychophysics,204,342898,0.0-3.0-0.99,"""",key,arrowleft,16.710999999999796,565.5,329.5,100,4,1,26,15,25,35,false,"2021-10-03 19:51:37",173.34.188.12,"Mozilla/5.0 (Macintosh; Intel Mac OS X 10_12_6) AppleWebKit/537.36 (KHTML, like Gecko) Chrome/92.0.4515.159 Safari/537.36",Macintosh,Chrome,92.0.4515.159,"OS X",10_12_6,fe3c1d035a65c549f7011c5446f73ede
20,1,null,null,psychophysics,205,343900,0.0-3.0-1.99,"""",key,null,16.71099999999939,565.5,329.5,"""","""","""","""","""","""","""","""","2021-10-03 19:51:37",173.34.188.12,"Mozilla/5.0 (Macintosh; Intel Mac OS X 10_12_6) AppleWebKit/537.36 (KHTML, like Gecko) Chrome/92.0.4515.159 Safari/537.36",Macintosh,Chrome,92.0.4515.159,"OS X",10_12_6,fe3c1d035a65c549f7011c5446f73ede
20,1,1304.3000000715256,arrowleft,psychophysics,206,345210,0.0-3.0-0.100,"""",key,arrowleft,16.711000000000542,565.5,329.5,101,4,1,26,35,25,35,false,"2021-10-03 19:51:37",173.34.188.12,"Mozilla/5.0 (Macintosh; Intel Mac OS X 10_12_6) AppleWebKit/537.36 (KHTML, like Gecko) Chrome/92.0.4515.159 Safari/537.36",Macintosh,Chrome,92.0.4515.159,"OS X",10_12_6,fe3c1d035a65c549f7011c5446f73ede
20,1,null,null,psychophysics,207,346212,0.0-3.0-1.100,"""",key,null,16.71100000000038,565.5,329.5,"""","""","""","""","""","""","""","""","2021-10-03 19:51:37",173.34.188.12,"Mozilla/5.0 (Macintosh; Intel Mac OS X 10_12_6) AppleWebKit/537.36 (KHTML, like Gecko) Chrome/92.0.4515.159 Safari/537.36",Macintosh,Chrome,92.0.4515.159,"OS X",10_12_6,fe3c1d035a65c549f7011c5446f73ede
20,1,1497.1000000238419,arrowright,psychophysics,208,347712,0.0-3.0-0.101,"""",key,arrowright,16.71099999999966,565.5,329.5,102,4,1,30,35,25,35,true,"2021-10-03 19:51:37",173.34.188.12,"Mozilla/5.0 (Macintosh; Intel Mac OS X 10_12_6) AppleWebKit/537.36 (KHTML, like Gecko) Chrome/92.0.4515.159 Safari/537.36",Macintosh,Chrome,92.0.4515.159,"OS X",10_12_6,fe3c1d035a65c549f7011c5446f73ede
20,1,null,null,psychophysics,209,348714,0.0-3.0-1.101,"""",key,null,16.71100000000038,565.5,329.5,"""","""","""","""","""","""","""","""","2021-10-03 19:51:37",173.34.188.12,"Mozilla/5.0 (Macintosh; Intel Mac OS X 10_12_6) AppleWebKit/537.36 (KHTML, like Gecko) Chrome/92.0.4515.159 Safari/537.36",Macintosh,Chrome,92.0.4515.159,"OS X",10_12_6,fe3c1d035a65c549f7011c5446f73ede
20,1,2854.2000000476837,arrowright,psychophysics,210,351581,0.0-3.0-0.102,"""",key,arrowright,16.712309941520427,565.5,329.5,103,4,-1,23,15,25,35,false,"2021-10-03 19:51:37",173.34.188.12,"Mozilla/5.0 (Macintosh; Intel Mac OS X 10_12_6) AppleWebKit/537.36 (KHTML, like Gecko) Chrome/92.0.4515.159 Safari/537.36",Macintosh,Chrome,92.0.4515.159,"OS X",10_12_6,fe3c1d035a65c549f7011c5446f73ede
20,1,null,null,psychophysics,211,352582,0.0-3.0-1.102,"""",key,null,16.71099999999939,565.5,329.5,"""","""","""","""","""","""","""","""","2021-10-03 19:51:37",173.34.188.12,"Mozilla/5.0 (Macintosh; Intel Mac OS X 10_12_6) AppleWebKit/537.36 (KHTML, like Gecko) Chrome/92.0.4515.159 Safari/537.36",Macintosh,Chrome,92.0.4515.159,"OS X",10_12_6,fe3c1d035a65c549f7011c5446f73ede
20,1,1324.2000000476837,arrowright,psychophysics,212,353909,0.0-3.0-0.103,"""",key,arrowright,16.710999999999796,565.5,329.5,104,4,-1,26,35,25,35,false,"2021-10-03 19:51:37",173.34.188.12,"Mozilla/5.0 (Macintosh; Intel Mac OS X 10_12_6) AppleWebKit/537.36 (KHTML, like Gecko) Chrome/92.0.4515.159 Safari/537.36",Macintosh,Chrome,92.0.4515.159,"OS X",10_12_6,fe3c1d035a65c549f7011c5446f73ede
20,1,null,null,psychophysics,213,354911,0.0-3.0-1.103,"""",key,null,16.71100000000038,565.5,329.5,"""","""","""","""","""","""","""","""","2021-10-03 19:51:37",173.34.188.12,"Mozilla/5.0 (Macintosh; Intel Mac OS X 10_12_6) AppleWebKit/537.36 (KHTML, like Gecko) Chrome/92.0.4515.159 Safari/537.36",Macintosh,Chrome,92.0.4515.159,"OS X",10_12_6,fe3c1d035a65c549f7011c5446f73ede
20,1,457.39999997615814,arrowright,psychophysics,214,355371,0.0-3.0-0.104,"""",key,arrowright,16.711000000001622,565.5,329.5,105,4,-1,27,35,25,35,false,"2021-10-03 19:51:37",173.34.188.12,"Mozilla/5.0 (Macintosh; Intel Mac OS X 10_12_6) AppleWebKit/537.36 (KHTML, like Gecko) Chrome/92.0.4515.159 Safari/537.36",Macintosh,Chrome,92.0.4515.159,"OS X",10_12_6,fe3c1d035a65c549f7011c5446f73ede
20,1,null,null,psychophysics,215,356373,0.0-3.0-1.104,"""",key,null,16.71099999999939,565.5,329.5,"""","""","""","""","""","""","""","""","2021-10-03 19:51:37",173.34.188.12,"Mozilla/5.0 (Macintosh; Intel Mac OS X 10_12_6) AppleWebKit/537.36 (KHTML, like Gecko) Chrome/92.0.4515.159 Safari/537.36",Macintosh,Chrome,92.0.4515.159,"OS X",10_12_6,fe3c1d035a65c549f7011c5446f73ede
20,1,627.1999999284744,arrowright,psychophysics,216,357007,0.0-3.0-0.105,"""",key,arrowright,16.71099999999923,565.5,329.5,106,4,-1,27,35,25,35,false,"2021-10-03 19:51:37",173.34.188.12,"Mozilla/5.0 (Macintosh; Intel Mac OS X 10_12_6) AppleWebKit/537.36 (KHTML, like Gecko) Chrome/92.0.4515.159 Safari/537.36",Macintosh,Chrome,92.0.4515.159,"OS X",10_12_6,fe3c1d035a65c549f7011c5446f73ede
20,1,null,null,psychophysics,217,358010,0.0-3.0-1.105,"""",key,null,16.71100000000038,565.5,329.5,"""","""","""","""","""","""","""","""","2021-10-03 19:51:37",173.34.188.12,"Mozilla/5.0 (Macintosh; Intel Mac OS X 10_12_6) AppleWebKit/537.36 (KHTML, like Gecko) Chrome/92.0.4515.159 Safari/537.36",Macintosh,Chrome,92.0.4515.159,"OS X",10_12_6,fe3c1d035a65c549f7011c5446f73ede
20,1,2854.2000000476837,arrowleft,psychophysics,218,360867,0.0-3.0-0.106,"""",key,arrowleft,16.710999999999974,565.5,329.5,107,4,-1,27,15,25,35,true,"2021-10-03 19:51:37",173.34.188.12,"Mozilla/5.0 (Macintosh; Intel Mac OS X 10_12_6) AppleWebKit/537.36 (KHTML, like Gecko) Chrome/92.0.4515.159 Safari/537.36",Macintosh,Chrome,92.0.4515.159,"OS X",10_12_6,fe3c1d035a65c549f7011c5446f73ede
20,1,null,null,psychophysics,219,361869,0.0-3.0-1.106,"""",key,null,16.714016949152178,565.5,329.5,"""","""","""","""","""","""","""","""","2021-10-03 19:51:37",173.34.188.12,"Mozilla/5.0 (Macintosh; Intel Mac OS X 10_12_6) AppleWebKit/537.36 (KHTML, like Gecko) Chrome/92.0.4515.159 Safari/537.36",Macintosh,Chrome,92.0.4515.159,"OS X",10_12_6,fe3c1d035a65c549f7011c5446f73ede
20,1,1645.7000000476837,arrowleft,psychophysics,220,363517,0.0-3.0-0.107,"""",key,arrowleft,16.711000000000045,565.5,329.5,108,4,-1,30,35,25,35,true,"2021-10-03 19:51:37",173.34.188.12,"Mozilla/5.0 (Macintosh; Intel Mac OS X 10_12_6) AppleWebKit/537.36 (KHTML, like Gecko) Chrome/92.0.4515.159 Safari/537.36",Macintosh,Chrome,92.0.4515.159,"OS X",10_12_6,fe3c1d035a65c549f7011c5446f73ede
20,1,null,null,psychophysics,221,364525,0.0-3.0-1.107,"""",key,null,16.710999999999572,565.5,329.5,"""","""","""","""","""","""","""","""","2021-10-03 19:51:37",173.34.188.12,"Mozilla/5.0 (Macintosh; Intel Mac OS X 10_12_6) AppleWebKit/537.36 (KHTML, like Gecko) Chrome/92.0.4515.159 Safari/537.36",Macintosh,Chrome,92.0.4515.159,"OS X",10_12_6,fe3c1d035a65c549f7011c5446f73ede
20,1,586.5999999046326,arrowleft,psychophysics,222,365115,0.0-3.0-0.108,"""",key,arrowleft,16.710999999999974,565.5,329.5,109,4,1,20,15,25,35,false,"2021-10-03 19:51:37",173.34.188.12,"Mozilla/5.0 (Macintosh; Intel Mac OS X 10_12_6) AppleWebKit/537.36 (KHTML, like Gecko) Chrome/92.0.4515.159 Safari/537.36",Macintosh,Chrome,92.0.4515.159,"OS X",10_12_6,fe3c1d035a65c549f7011c5446f73ede
20,1,null,null,psychophysics,223,366117,0.0-3.0-1.108,"""",key,null,16.71099999999939,565.5,329.5,"""","""","""","""","""","""","""","""","2021-10-03 19:51:37",173.34.188.12,"Mozilla/5.0 (Macintosh; Intel Mac OS X 10_12_6) AppleWebKit/537.36 (KHTML, like Gecko) Chrome/92.0.4515.159 Safari/537.36",Macintosh,Chrome,92.0.4515.159,"OS X",10_12_6,fe3c1d035a65c549f7011c5446f73ede
20,1,781,arrowright,psychophysics,224,366901,0.0-3.0-0.109,"""",key,arrowright,16.711000000000123,565.5,329.5,110,4,1,30,15,25,35,true,"2021-10-03 19:51:37",173.34.188.12,"Mozilla/5.0 (Macintosh; Intel Mac OS X 10_12_6) AppleWebKit/537.36 (KHTML, like Gecko) Chrome/92.0.4515.159 Safari/537.36",Macintosh,Chrome,92.0.4515.159,"OS X",10_12_6,fe3c1d035a65c549f7011c5446f73ede
20,1,null,null,psychophysics,225,367903,0.0-3.0-1.109,"""",key,null,16.71099999999939,565.5,329.5,"""","""","""","""","""","""","""","""","2021-10-03 19:51:37",173.34.188.12,"Mozilla/5.0 (Macintosh; Intel Mac OS X 10_12_6) AppleWebKit/537.36 (KHTML, like Gecko) Chrome/92.0.4515.159 Safari/537.36",Macintosh,Chrome,92.0.4515.159,"OS X",10_12_6,fe3c1d035a65c549f7011c5446f73ede
20,1,938.8999999761581,arrowright,psychophysics,226,368844,0.0-3.0-0.110,"""",key,arrowright,16.71100000000072,565.5,329.5,111,4,-1,20,35,25,35,false,"2021-10-03 19:51:37",173.34.188.12,"Mozilla/5.0 (Macintosh; Intel Mac OS X 10_12_6) AppleWebKit/537.36 (KHTML, like Gecko) Chrome/92.0.4515.159 Safari/537.36",Macintosh,Chrome,92.0.4515.159,"OS X",10_12_6,fe3c1d035a65c549f7011c5446f73ede
20,1,null,null,psychophysics,227,369847,0.0-3.0-1.110,"""",key,null,16.71100000000038,565.5,329.5,"""","""","""","""","""","""","""","""","2021-10-03 19:51:37",173.34.188.12,"Mozilla/5.0 (Macintosh; Intel Mac OS X 10_12_6) AppleWebKit/537.36 (KHTML, like Gecko) Chrome/92.0.4515.159 Safari/537.36",Macintosh,Chrome,92.0.4515.159,"OS X",10_12_6,fe3c1d035a65c549f7011c5446f73ede
20,1,1456.3000000715256,arrowleft,psychophysics,228,371314,0.0-3.0-0.111,"""",key,arrowleft,16.711000000000208,565.5,329.5,112,5,1,25,15,25,35,false,"2021-10-03 19:51:37",173.34.188.12,"Mozilla/5.0 (Macintosh; Intel Mac OS X 10_12_6) AppleWebKit/537.36 (KHTML, like Gecko) Chrome/92.0.4515.159 Safari/537.36",Macintosh,Chrome,92.0.4515.159,"OS X",10_12_6,fe3c1d035a65c549f7011c5446f73ede
20,1,null,null,psychophysics,229,372316,0.0-3.0-1.111,"""",key,null,16.714033898305527,565.5,329.5,"""","""","""","""","""","""","""","""","2021-10-03 19:51:37",173.34.188.12,"Mozilla/5.0 (Macintosh; Intel Mac OS X 10_12_6) AppleWebKit/537.36 (KHTML, like Gecko) Chrome/92.0.4515.159 Safari/537.36",Macintosh,Chrome,92.0.4515.159,"OS X",10_12_6,fe3c1d035a65c549f7011c5446f73ede
20,1,2149.100000023842," ",html-keyboard-response,230,374466,0.0-3.0-2.111-0.111,"<div style=""color: white; text-align: center; vertical-align: top; display: inline-block; width: 800px; margin: auto""><p>You have completed 40% of the trials. You are on block 5 of 10. <br>Good job! Take a break if you need to.</p><p>Press any key to continue the experiment.</p></div>","""","""","""","""","""","""","""","""","""","""","""","""","""","2021-10-03 19:51:37",173.34.188.12,"Mozilla/5.0 (Macintosh; Intel Mac OS X 10_12_6) AppleWebKit/537.36 (KHTML, like Gecko) Chrome/92.0.4515.159 Safari/537.36",Macintosh,Chrome,92.0.4515.159,"OS X",10_12_6,fe3c1d035a65c549f7011c5446f73ede
20,1,877.1999999284744,arrowright,psychophysics,231,376353,0.0-3.0-0.112,"""",key,arrowright,16.71100000000017,565.5,329.5,113,5,-1,20,35,25,35,false,"2021-10-03 19:51:37",173.34.188.12,"Mozilla/5.0 (Macintosh; Intel Mac OS X 10_12_6) AppleWebKit/537.36 (KHTML, like Gecko) Chrome/92.0.4515.159 Safari/537.36",Macintosh,Chrome,92.0.4515.159,"OS X",10_12_6,fe3c1d035a65c549f7011c5446f73ede
20,1,null,null,psychophysics,232,377360,0.0-3.0-1.112,"""",key,null,16.711000000000542,565.5,329.5,"""","""","""","""","""","""","""","""","2021-10-03 19:51:37",173.34.188.12,"Mozilla/5.0 (Macintosh; Intel Mac OS X 10_12_6) AppleWebKit/537.36 (KHTML, like Gecko) Chrome/92.0.4515.159 Safari/537.36",Macintosh,Chrome,92.0.4515.159,"OS X",10_12_6,fe3c1d035a65c549f7011c5446f73ede
20,1,1038.0999999046326,arrowleft,psychophysics,233,378401,0.0-3.0-0.113,"""",key,arrowleft,16.71099999999975,565.5,329.5,114,5,-1,30,15,25,35,true,"2021-10-03 19:51:37",173.34.188.12,"Mozilla/5.0 (Macintosh; Intel Mac OS X 10_12_6) AppleWebKit/537.36 (KHTML, like Gecko) Chrome/92.0.4515.159 Safari/537.36",Macintosh,Chrome,92.0.4515.159,"OS X",10_12_6,fe3c1d035a65c549f7011c5446f73ede
20,1,null,null,psychophysics,234,379403,0.0-3.0-1.113,"""",key,null,16.71099999999939,565.5,329.5,"""","""","""","""","""","""","""","""","2021-10-03 19:51:37",173.34.188.12,"Mozilla/5.0 (Macintosh; Intel Mac OS X 10_12_6) AppleWebKit/537.36 (KHTML, like Gecko) Chrome/92.0.4515.159 Safari/537.36",Macintosh,Chrome,92.0.4515.159,"OS X",10_12_6,fe3c1d035a65c549f7011c5446f73ede
20,1,1865.6999999284744,arrowleft,psychophysics,235,381271,0.0-3.0-0.114,"""",key,arrowleft,16.711000000000283,565.5,329.5,115,5,-1,26,15,25,35,true,"2021-10-03 19:51:37",173.34.188.12,"Mozilla/5.0 (Macintosh; Intel Mac OS X 10_12_6) AppleWebKit/537.36 (KHTML, like Gecko) Chrome/92.0.4515.159 Safari/537.36",Macintosh,Chrome,92.0.4515.159,"OS X",10_12_6,fe3c1d035a65c549f7011c5446f73ede
20,1,null,null,psychophysics,236,382272,0.0-3.0-1.114,"""",key,null,16.714050847457887,565.5,329.5,"""","""","""","""","""","""","""","""","2021-10-03 19:51:37",173.34.188.12,"Mozilla/5.0 (Macintosh; Intel Mac OS X 10_12_6) AppleWebKit/537.36 (KHTML, like Gecko) Chrome/92.0.4515.159 Safari/537.36",Macintosh,Chrome,92.0.4515.159,"OS X",10_12_6,fe3c1d035a65c549f7011c5446f73ede
20,1,1395.1000000238419,arrowleft,psychophysics,237,383671,0.0-3.0-0.115,"""",key,arrowleft,16.711000000000308,565.5,329.5,116,5,-1,24,15,25,35,true,"2021-10-03 19:51:37",173.34.188.12,"Mozilla/5.0 (Macintosh; Intel Mac OS X 10_12_6) AppleWebKit/537.36 (KHTML, like Gecko) Chrome/92.0.4515.159 Safari/537.36",Macintosh,Chrome,92.0.4515.159,"OS X",10_12_6,fe3c1d035a65c549f7011c5446f73ede
20,1,null,null,psychophysics,238,384678,0.0-3.0-1.115,"""",key,null,16.711000000000542,565.5,329.5,"""","""","""","""","""","""","""","""","2021-10-03 19:51:37",173.34.188.12,"Mozilla/5.0 (Macintosh; Intel Mac OS X 10_12_6) AppleWebKit/537.36 (KHTML, like Gecko) Chrome/92.0.4515.159 Safari/537.36",Macintosh,Chrome,92.0.4515.159,"OS X",10_12_6,fe3c1d035a65c549f7011c5446f73ede
20,1,1564.6999999284744,arrowleft,psychophysics,239,386246,0.0-3.0-0.116,"""",key,arrowleft,16.71099999999949,565.5,329.5,117,5,1,26,15,25,35,false,"2021-10-03 19:51:37",173.34.188.12,"Mozilla/5.0 (Macintosh; Intel Mac OS X 10_12_6) AppleWebKit/537.36 (KHTML, like Gecko) Chrome/92.0.4515.159 Safari/537.36",Macintosh,Chrome,92.0.4515.159,"OS X",10_12_6,fe3c1d035a65c549f7011c5446f73ede
20,1,null,null,psychophysics,240,387248,0.0-3.0-1.116,"""",key,null,16.71100000000038,565.5,329.5,"""","""","""","""","""","""","""","""","2021-10-03 19:51:37",173.34.188.12,"Mozilla/5.0 (Macintosh; Intel Mac OS X 10_12_6) AppleWebKit/537.36 (KHTML, like Gecko) Chrome/92.0.4515.159 Safari/537.36",Macintosh,Chrome,92.0.4515.159,"OS X",10_12_6,fe3c1d035a65c549f7011c5446f73ede
20,1,756.3999999761581,arrowleft,psychophysics,241,388010,0.0-3.0-0.117,"""",key,arrowleft,16.710999999999895,565.5,329.5,118,5,-1,24,15,25,35,true,"2021-10-03 19:51:37",173.34.188.12,"Mozilla/5.0 (Macintosh; Intel Mac OS X 10_12_6) AppleWebKit/537.36 (KHTML, like Gecko) Chrome/92.0.4515.159 Safari/537.36",Macintosh,Chrome,92.0.4515.159,"OS X",10_12_6,fe3c1d035a65c549f7011c5446f73ede
20,1,null,null,psychophysics,242,389012,0.0-3.0-1.117,"""",key,null,16.71099999999939,565.5,329.5,"""","""","""","""","""","""","""","""","2021-10-03 19:51:37",173.34.188.12,"Mozilla/5.0 (Macintosh; Intel Mac OS X 10_12_6) AppleWebKit/537.36 (KHTML, like Gecko) Chrome/92.0.4515.159 Safari/537.36",Macintosh,Chrome,92.0.4515.159,"OS X",10_12_6,fe3c1d035a65c549f7011c5446f73ede
20,1,1158.3000000715256,arrowleft,psychophysics,243,390173,0.0-3.0-0.118,"""",key,arrowleft,16.710999999999974,565.5,329.5,119,5,1,24,35,25,35,false,"2021-10-03 19:51:37",173.34.188.12,"Mozilla/5.0 (Macintosh; Intel Mac OS X 10_12_6) AppleWebKit/537.36 (KHTML, like Gecko) Chrome/92.0.4515.159 Safari/537.36",Macintosh,Chrome,92.0.4515.159,"OS X",10_12_6,fe3c1d035a65c549f7011c5446f73ede
20,1,null,null,psychophysics,244,391181,0.0-3.0-1.118,"""",key,null,16.710999999999572,565.5,329.5,"""","""","""","""","""","""","""","""","2021-10-03 19:51:37",173.34.188.12,"Mozilla/5.0 (Macintosh; Intel Mac OS X 10_12_6) AppleWebKit/537.36 (KHTML, like Gecko) Chrome/92.0.4515.159 Safari/537.36",Macintosh,Chrome,92.0.4515.159,"OS X",10_12_6,fe3c1d035a65c549f7011c5446f73ede
20,1,2288.600000023842,arrowleft,psychophysics,245,393472,0.0-3.0-0.119,"""",key,arrowleft,16.712345588235408,565.5,329.5,120,5,1,20,15,25,35,false,"2021-10-03 19:51:37",173.34.188.12,"Mozilla/5.0 (Macintosh; Intel Mac OS X 10_12_6) AppleWebKit/537.36 (KHTML, like Gecko) Chrome/92.0.4515.159 Safari/537.36",Macintosh,Chrome,92.0.4515.159,"OS X",10_12_6,fe3c1d035a65c549f7011c5446f73ede
20,1,null,null,psychophysics,246,394474,0.0-3.0-1.119,"""",key,null,16.71099999999939,565.5,329.5,"""","""","""","""","""","""","""","""","2021-10-03 19:51:37",173.34.188.12,"Mozilla/5.0 (Macintosh; Intel Mac OS X 10_12_6) AppleWebKit/537.36 (KHTML, like Gecko) Chrome/92.0.4515.159 Safari/537.36",Macintosh,Chrome,92.0.4515.159,"OS X",10_12_6,fe3c1d035a65c549f7011c5446f73ede
20,1,1352.4000000953674,arrowright,psychophysics,247,395829,0.0-3.0-0.120,"""",key,arrowright,16.71100000000006,565.5,329.5,121,5,1,24,35,25,35,true,"2021-10-03 19:51:37",173.34.188.12,"Mozilla/5.0 (Macintosh; Intel Mac OS X 10_12_6) AppleWebKit/537.36 (KHTML, like Gecko) Chrome/92.0.4515.159 Safari/537.36",Macintosh,Chrome,92.0.4515.159,"OS X",10_12_6,fe3c1d035a65c549f7011c5446f73ede
20,1,null,null,psychophysics,248,396831,0.0-3.0-1.120,"""",key,null,16.71100000000038,565.5,329.5,"""","""","""","""","""","""","""","""","2021-10-03 19:51:37",173.34.188.12,"Mozilla/5.0 (Macintosh; Intel Mac OS X 10_12_6) AppleWebKit/537.36 (KHTML, like Gecko) Chrome/92.0.4515.159 Safari/537.36",Macintosh,Chrome,92.0.4515.159,"OS X",10_12_6,fe3c1d035a65c549f7011c5446f73ede
20,1,1311.3000000715256,arrowleft,psychophysics,249,398150,0.0-3.0-0.121,"""",key,arrowleft,16.711000000000542,565.5,329.5,122,5,1,20,35,25,35,false,"2021-10-03 19:51:37",173.34.188.12,"Mozilla/5.0 (Macintosh; Intel Mac OS X 10_12_6) AppleWebKit/537.36 (KHTML, like Gecko) Chrome/92.0.4515.159 Safari/537.36",Macintosh,Chrome,92.0.4515.159,"OS X",10_12_6,fe3c1d035a65c549f7011c5446f73ede
20,1,null,null,psychophysics,250,399152,0.0-3.0-1.121,"""",key,null,16.71100000000038,565.5,329.5,"""","""","""","""","""","""","""","""","2021-10-03 19:51:37",173.34.188.12,"Mozilla/5.0 (Macintosh; Intel Mac OS X 10_12_6) AppleWebKit/537.36 (KHTML, like Gecko) Chrome/92.0.4515.159 Safari/537.36",Macintosh,Chrome,92.0.4515.159,"OS X",10_12_6,fe3c1d035a65c549f7011c5446f73ede
20,1,1343.8999999761581,arrowleft,psychophysics,251,400498,0.0-3.0-0.122,"""",key,arrowleft,16.71099999999993,565.5,329.5,123,5,1,23,15,25,35,false,"2021-10-03 19:51:37",173.34.188.12,"Mozilla/5.0 (Macintosh; Intel Mac OS X 10_12_6) AppleWebKit/537.36 (KHTML, like Gecko) Chrome/92.0.4515.159 Safari/537.36",Macintosh,Chrome,92.0.4515.159,"OS X",10_12_6,fe3c1d035a65c549f7011c5446f73ede
20,1,null,null,psychophysics,252,401500,0.0-3.0-1.122,"""",key,null,16.71099999999939,565.5,329.5,"""","""","""","""","""","""","""","""","2021-10-03 19:51:37",173.34.188.12,"Mozilla/5.0 (Macintosh; Intel Mac OS X 10_12_6) AppleWebKit/537.36 (KHTML, like Gecko) Chrome/92.0.4515.159 Safari/537.36",Macintosh,Chrome,92.0.4515.159,"OS X",10_12_6,fe3c1d035a65c549f7011c5446f73ede
20,1,978.2999999523163,arrowright,psychophysics,253,402482,0.0-3.0-0.123,"""",key,arrowright,16.713413793103896,565.5,329.5,124,5,-1,25,15,25,35,false,"2021-10-03 19:51:37",173.34.188.12,"Mozilla/5.0 (Macintosh; Intel Mac OS X 10_12_6) AppleWebKit/537.36 (KHTML, like Gecko) Chrome/92.0.4515.159 Safari/537.36",Macintosh,Chrome,92.0.4515.159,"OS X",10_12_6,fe3c1d035a65c549f7011c5446f73ede
20,1,null,null,psychophysics,254,403485,0.0-3.0-1.123,"""",key,null,16.71099999999939,565.5,329.5,"""","""","""","""","""","""","""","""","2021-10-03 19:51:37",173.34.188.12,"Mozilla/5.0 (Macintosh; Intel Mac OS X 10_12_6) AppleWebKit/537.36 (KHTML, like Gecko) Chrome/92.0.4515.159 Safari/537.36",Macintosh,Chrome,92.0.4515.159,"OS X",10_12_6,fe3c1d035a65c549f7011c5446f73ede
20,1,679.5,arrowright,psychophysics,255,404176,0.0-3.0-0.124,"""",key,arrowright,16.71100000000006,565.5,329.5,125,5,-1,27,15,25,35,false,"2021-10-03 19:51:37",173.34.188.12,"Mozilla/5.0 (Macintosh; Intel Mac OS X 10_12_6) AppleWebKit/537.36 (KHTML, like Gecko) Chrome/92.0.4515.159 Safari/537.36",Macintosh,Chrome,92.0.4515.159,"OS X",10_12_6,fe3c1d035a65c549f7011c5446f73ede
20,1,null,null,psychophysics,256,405180,0.0-3.0-1.124,"""",key,null,16.71099999999939,565.5,329.5,"""","""","""","""","""","""","""","""","2021-10-03 19:51:37",173.34.188.12,"Mozilla/5.0 (Macintosh; Intel Mac OS X 10_12_6) AppleWebKit/537.36 (KHTML, like Gecko) Chrome/92.0.4515.159 Safari/537.36",Macintosh,Chrome,92.0.4515.159,"OS X",10_12_6,fe3c1d035a65c549f7011c5446f73ede
20,1,2065.9000000953674,arrowleft,psychophysics,257,407251,0.0-3.0-0.125,"""",key,arrowleft,16.711000000000308,565.5,329.5,126,5,-1,27,35,25,35,true,"2021-10-03 19:51:37",173.34.188.12,"Mozilla/5.0 (Macintosh; Intel Mac OS X 10_12_6) AppleWebKit/537.36 (KHTML, like Gecko) Chrome/92.0.4515.159 Safari/537.36",Macintosh,Chrome,92.0.4515.159,"OS X",10_12_6,fe3c1d035a65c549f7011c5446f73ede
