run_id,condition,rt,response,trial_type,trial_index,time_elapsed,internal_node_id,stimulus,response_type,key_press,avg_frame_time,center_x,center_y,trial,block,test_pos,test_inner_radius,test_outer_radius,ref_inner_radius,ref_outer_radius,test_bigger,recorded_at,ip,user_agent,device,browser,browser_version,platform,platform_version,source_code_version
11,1,36882,"{""p_id"":""9339 "",""age"":""49"",""handedness"":""right"",""sex"":""male"",""other_sex"":""}",survey-html-form,0,36887,0.0-0.0,"""","""","""","""","""","""","""","""","""","""","""","""","""","""","2021-09-29 01:22:31",173.35.108.254,"Mozilla/5.0 (Windows NT 10.0; Win64; x64; rv:78.0) Gecko/20100101 Firefox/78.0",,Firefox,78.0,Windows,10.0,fe3c1d035a65c549f7011c5446f73ede
11,1,40533," ",html-keyboard-response,1,77436,0.0-1.0,"<p style=""color: white"">Welcome to the Size Judgment Experiment. <br>There will be 10 blocks in this experiment. <br>There will be 28 trials in each block. <br>You will be given a chance to take a break between blocks. <br>Press any key to start the experiment.</p>","""","""","""","""","""","""","""","""","""","""","""","""","""","2021-09-29 01:22:31",173.35.108.254,"Mozilla/5.0 (Windows NT 10.0; Win64; x64; rv:78.0) Gecko/20100101 Firefox/78.0",,Firefox,78.0,Windows,10.0,fe3c1d035a65c549f7011c5446f73ede
11,1,23598," ",psychophysics,2,101093,0.0-2.0,"""",key," ",16.69648305084746,762.5,347,"""","""","""","""","""","""","""","""","2021-09-29 01:22:31",173.35.108.254,"Mozilla/5.0 (Windows NT 10.0; Win64; x64; rv:78.0) Gecko/20100101 Firefox/78.0",,Firefox,78.0,Windows,10.0,fe3c1d035a65c549f7011c5446f73ede
11,1,2598,arrowright,psychophysics,3,103724,0.0-3.0-0.0,"""",key,arrowright,16.672948717948692,762.5,347,1,1,1,24,35,25,35,true,"2021-09-29 01:22:31",173.35.108.254,"Mozilla/5.0 (Windows NT 10.0; Win64; x64; rv:78.0) Gecko/20100101 Firefox/78.0",,Firefox,78.0,Windows,10.0,fe3c1d035a65c549f7011c5446f73ede
11,1,null,null,psychophysics,4,104734,0.0-3.0-1.0,"""",key,null,16.673000000000076,762.5,347,"""","""","""","""","""","""","""","""","2021-09-29 01:22:31",173.35.108.254,"Mozilla/5.0 (Windows NT 10.0; Win64; x64; rv:78.0) Gecko/20100101 Firefox/78.0",,Firefox,78.0,Windows,10.0,fe3c1d035a65c549f7011c5446f73ede
11,1,1131,arrowright,psychophysics,5,105869,0.0-3.0-0.1,"""",key,arrowright,16.673134328358294,762.5,347,2,1,-1,25,15,25,35,false,"2021-09-29 01:22:31",173.35.108.254,"Mozilla/5.0 (Windows NT 10.0; Win64; x64; rv:78.0) Gecko/20100101 Firefox/78.0",,Firefox,78.0,Windows,10.0,fe3c1d035a65c549f7011c5446f73ede
11,1,null,null,psychophysics,6,106873,0.0-3.0-1.1,"""",key,null,16.6728813559324,762.5,347,"""","""","""","""","""","""","""","""","2021-09-29 01:22:31",173.35.108.254,"Mozilla/5.0 (Windows NT 10.0; Win64; x64; rv:78.0) Gecko/20100101 Firefox/78.0",,Firefox,78.0,Windows,10.0,fe3c1d035a65c549f7011c5446f73ede
11,1,2279,arrowright,psychophysics,7,109159,0.0-3.0-0.2,"""",key,arrowright,16.67294117647062,762.5,347,3,1,1,24,35,25,35,true,"2021-09-29 01:22:31",173.35.108.254,"Mozilla/5.0 (Windows NT 10.0; Win64; x64; rv:78.0) Gecko/20100101 Firefox/78.0",,Firefox,78.0,Windows,10.0,fe3c1d035a65c549f7011c5446f73ede
11,1,null,null,psychophysics,8,110174,0.0-3.0-1.2,"""",key,null,16.673000000000076,762.5,347,"""","""","""","""","""","""","""","""","2021-09-29 01:22:31",173.35.108.254,"Mozilla/5.0 (Windows NT 10.0; Win64; x64; rv:78.0) Gecko/20100101 Firefox/78.0",,Firefox,78.0,Windows,10.0,fe3c1d035a65c549f7011c5446f73ede
11,1,3852,arrowright,psychophysics,9,114031,0.0-3.0-0.3,"""",key,arrowright,16.672956521739124,762.5,347,4,1,-1,25,35,25,35,false,"2021-09-29 01:22:31",173.35.108.254,"Mozilla/5.0 (Windows NT 10.0; Win64; x64; rv:78.0) Gecko/20100101 Firefox/78.0",,Firefox,78.0,Windows,10.0,fe3c1d035a65c549f7011c5446f73ede
11,1,null,null,psychophysics,10,115042,0.0-3.0-1.3,"""",key,null,16.673000000000076,762.5,347,"""","""","""","""","""","""","""","""","2021-09-29 01:22:31",173.35.108.254,"Mozilla/5.0 (Windows NT 10.0; Win64; x64; rv:78.0) Gecko/20100101 Firefox/78.0",,Firefox,78.0,Windows,10.0,fe3c1d035a65c549f7011c5446f73ede
11,1,3264,arrowleft,psychophysics,11,118310,0.0-3.0-0.4,"""",key,arrowleft,16.673025641025667,762.5,347,5,1,1,23,15,25,35,false,"2021-09-29 01:22:31",173.35.108.254,"Mozilla/5.0 (Windows NT 10.0; Win64; x64; rv:78.0) Gecko/20100101 Firefox/78.0",,Firefox,78.0,Windows,10.0,fe3c1d035a65c549f7011c5446f73ede
11,1,null,null,psychophysics,12,119322,0.0-3.0-1.4,"""",key,null,16.672999999999835,762.5,347,"""","""","""","""","""","""","""","""","2021-09-29 01:22:31",173.35.108.254,"Mozilla/5.0 (Windows NT 10.0; Win64; x64; rv:78.0) Gecko/20100101 Firefox/78.0",,Firefox,78.0,Windows,10.0,fe3c1d035a65c549f7011c5446f73ede
11,1,837,arrowleft,psychophysics,13,120162,0.0-3.0-0.5,"""",key,arrowleft,16.673061224489715,762.5,347,6,1,1,25,15,25,35,false,"2021-09-29 01:22:31",173.35.108.254,"Mozilla/5.0 (Windows NT 10.0; Win64; x64; rv:78.0) Gecko/20100101 Firefox/78.0",,Firefox,78.0,Windows,10.0,fe3c1d035a65c549f7011c5446f73ede
11,1,null,null,psychophysics,14,121183,0.0-3.0-1.5,"""",key,null,16.673000000000076,762.5,347,"""","""","""","""","""","""","""","""","2021-09-29 01:22:31",173.35.108.254,"Mozilla/5.0 (Windows NT 10.0; Win64; x64; rv:78.0) Gecko/20100101 Firefox/78.0",,Firefox,78.0,Windows,10.0,fe3c1d035a65c549f7011c5446f73ede
11,1,1214,arrowright,psychophysics,15,122415,0.0-3.0-0.6,"""",key,arrowright,16.6731506849315,762.5,347,7,1,-1,30,15,25,35,false,"2021-09-29 01:22:31",173.35.108.254,"Mozilla/5.0 (Windows NT 10.0; Win64; x64; rv:78.0) Gecko/20100101 Firefox/78.0",,Firefox,78.0,Windows,10.0,fe3c1d035a65c549f7011c5446f73ede
11,1,null,null,psychophysics,16,123423,0.0-3.0-1.6,"""",key,null,16.67322033898307,762.5,347,"""","""","""","""","""","""","""","""","2021-09-29 01:22:31",173.35.108.254,"Mozilla/5.0 (Windows NT 10.0; Win64; x64; rv:78.0) Gecko/20100101 Firefox/78.0",,Firefox,78.0,Windows,10.0,fe3c1d035a65c549f7011c5446f73ede
11,1,9013,arrowleft,psychophysics,17,132452,0.0-3.0-0.7,"""",key,arrowleft,16.673012939001858,762.5,347,8,1,1,24,35,25,35,false,"2021-09-29 01:22:31",173.35.108.254,"Mozilla/5.0 (Windows NT 10.0; Win64; x64; rv:78.0) Gecko/20100101 Firefox/78.0",,Firefox,78.0,Windows,10.0,fe3c1d035a65c549f7011c5446f73ede
11,1,null,null,psychophysics,18,133463,0.0-3.0-1.7,"""",key,null,16.673000000000076,762.5,347,"""","""","""","""","""","""","""","""","2021-09-29 01:22:31",173.35.108.254,"Mozilla/5.0 (Windows NT 10.0; Win64; x64; rv:78.0) Gecko/20100101 Firefox/78.0",,Firefox,78.0,Windows,10.0,fe3c1d035a65c549f7011c5446f73ede
11,1,1671,arrowright,psychophysics,19,135138,0.0-3.0-0.8,"""",key,arrowright,16.67292929292954,762.5,347,9,1,1,30,35,25,35,true,"2021-09-29 01:22:31",173.35.108.254,"Mozilla/5.0 (Windows NT 10.0; Win64; x64; rv:78.0) Gecko/20100101 Firefox/78.0",,Firefox,78.0,Windows,10.0,fe3c1d035a65c549f7011c5446f73ede
11,1,null,null,psychophysics,20,136150,0.0-3.0-1.8,"""",key,null,16.673000000000076,762.5,347,"""","""","""","""","""","""","""","""","2021-09-29 01:22:31",173.35.108.254,"Mozilla/5.0 (Windows NT 10.0; Win64; x64; rv:78.0) Gecko/20100101 Firefox/78.0",,Firefox,78.0,Windows,10.0,fe3c1d035a65c549f7011c5446f73ede
11,1,2273,arrowleft,psychophysics,21,138426,0.0-3.0-0.9,"""",key,arrowleft,16.672888888888863,762.5,347,10,1,1,24,35,25,35,false,"2021-09-29 01:22:31",173.35.108.254,"Mozilla/5.0 (Windows NT 10.0; Win64; x64; rv:78.0) Gecko/20100101 Firefox/78.0",,Firefox,78.0,Windows,10.0,fe3c1d035a65c549f7011c5446f73ede
11,1,null,null,psychophysics,22,139454,0.0-3.0-1.9,"""",key,null,16.67311475409832,762.5,347,"""","""","""","""","""","""","""","""","2021-09-29 01:22:31",173.35.108.254,"Mozilla/5.0 (Windows NT 10.0; Win64; x64; rv:78.0) Gecko/20100101 Firefox/78.0",,Firefox,78.0,Windows,10.0,fe3c1d035a65c549f7011c5446f73ede
11,1,1498,arrowleft,psychophysics,23,140957,0.0-3.0-0.10,"""",key,arrowleft,16.673033707865102,762.5,347,11,1,1,20,15,25,35,false,"2021-09-29 01:22:31",173.35.108.254,"Mozilla/5.0 (Windows NT 10.0; Win64; x64; rv:78.0) Gecko/20100101 Firefox/78.0",,Firefox,78.0,Windows,10.0,fe3c1d035a65c549f7011c5446f73ede
11,1,null,null,psychophysics,24,141963,0.0-3.0-1.10,"""",key,null,16.672881355931906,762.5,347,"""","""","""","""","""","""","""","""","2021-09-29 01:22:31",173.35.108.254,"Mozilla/5.0 (Windows NT 10.0; Win64; x64; rv:78.0) Gecko/20100101 Firefox/78.0",,Firefox,78.0,Windows,10.0,fe3c1d035a65c549f7011c5446f73ede
11,1,2576,arrowright,psychophysics,25,144547,0.0-3.0-0.11,"""",key,arrowright,16.672987012987104,762.5,347,12,1,-1,20,15,25,35,false,"2021-09-29 01:22:31",173.35.108.254,"Mozilla/5.0 (Windows NT 10.0; Win64; x64; rv:78.0) Gecko/20100101 Firefox/78.0",,Firefox,78.0,Windows,10.0,fe3c1d035a65c549f7011c5446f73ede
11,1,null,null,psychophysics,26,145553,0.0-3.0-1.11,"""",key,null,16.673000000000076,762.5,347,"""","""","""","""","""","""","""","""","2021-09-29 01:22:31",173.35.108.254,"Mozilla/5.0 (Windows NT 10.0; Win64; x64; rv:78.0) Gecko/20100101 Firefox/78.0",,Firefox,78.0,Windows,10.0,fe3c1d035a65c549f7011c5446f73ede
11,1,2782,arrowright,psychophysics,27,148343,0.0-3.0-0.12,"""",key,arrowright,16.673012048192778,762.5,347,13,1,1,27,15,25,35,true,"2021-09-29 01:22:31",173.35.108.254,"Mozilla/5.0 (Windows NT 10.0; Win64; x64; rv:78.0) Gecko/20100101 Firefox/78.0",,Firefox,78.0,Windows,10.0,fe3c1d035a65c549f7011c5446f73ede
11,1,null,null,psychophysics,28,149353,0.0-3.0-1.12,"""",key,null,16.673000000000076,762.5,347,"""","""","""","""","""","""","""","""","2021-09-29 01:22:31",173.35.108.254,"Mozilla/5.0 (Windows NT 10.0; Win64; x64; rv:78.0) Gecko/20100101 Firefox/78.0",,Firefox,78.0,Windows,10.0,fe3c1d035a65c549f7011c5446f73ede
11,1,2583,arrowright,psychophysics,29,151941,0.0-3.0-0.13,"""",key,arrowright,16.672987012987104,762.5,347,14,1,-1,23,35,25,35,false,"2021-09-29 01:22:31",173.35.108.254,"Mozilla/5.0 (Windows NT 10.0; Win64; x64; rv:78.0) Gecko/20100101 Firefox/78.0",,Firefox,78.0,Windows,10.0,fe3c1d035a65c549f7011c5446f73ede
11,1,null,null,psychophysics,30,152963,0.0-3.0-1.13,"""",key,null,16.673000000000076,762.5,347,"""","""","""","""","""","""","""","""","2021-09-29 01:22:31",173.35.108.254,"Mozilla/5.0 (Windows NT 10.0; Win64; x64; rv:78.0) Gecko/20100101 Firefox/78.0",,Firefox,78.0,Windows,10.0,fe3c1d035a65c549f7011c5446f73ede
11,1,4228,arrowright,psychophysics,31,157207,0.0-3.0-0.14,"""",key,arrowright,16.672992125984262,762.5,347,15,1,1,25,35,25,35,true,"2021-09-29 01:22:31",173.35.108.254,"Mozilla/5.0 (Windows NT 10.0; Win64; x64; rv:78.0) Gecko/20100101 Firefox/78.0",,Firefox,78.0,Windows,10.0,fe3c1d035a65c549f7011c5446f73ede
11,1,null,null,psychophysics,32,158224,0.0-3.0-1.14,"""",key,null,16.673000000000076,762.5,347,"""","""","""","""","""","""","""","""","2021-09-29 01:22:31",173.35.108.254,"Mozilla/5.0 (Windows NT 10.0; Win64; x64; rv:78.0) Gecko/20100101 Firefox/78.0",,Firefox,78.0,Windows,10.0,fe3c1d035a65c549f7011c5446f73ede
11,1,1935,arrowright,psychophysics,33,160169,0.0-3.0-0.15,"""",key,arrowright,16.67304347826082,762.5,347,16,1,1,26,15,25,35,true,"2021-09-29 01:22:31",173.35.108.254,"Mozilla/5.0 (Windows NT 10.0; Win64; x64; rv:78.0) Gecko/20100101 Firefox/78.0",,Firefox,78.0,Windows,10.0,fe3c1d035a65c549f7011c5446f73ede
11,1,null,null,psychophysics,34,161175,0.0-3.0-1.15,"""",key,null,16.673000000000076,762.5,347,"""","""","""","""","""","""","""","""","2021-09-29 01:22:31",173.35.108.254,"Mozilla/5.0 (Windows NT 10.0; Win64; x64; rv:78.0) Gecko/20100101 Firefox/78.0",,Firefox,78.0,Windows,10.0,fe3c1d035a65c549f7011c5446f73ede
11,1,1692,arrowleft,psychophysics,35,162872,0.0-3.0-0.16,"""",key,arrowleft,16.672999999999885,762.5,347,17,1,1,25,35,25,35,false,"2021-09-29 01:22:31",173.35.108.254,"Mozilla/5.0 (Windows NT 10.0; Win64; x64; rv:78.0) Gecko/20100101 Firefox/78.0",,Firefox,78.0,Windows,10.0,fe3c1d035a65c549f7011c5446f73ede
11,1,null,null,psychophysics,36,163893,0.0-3.0-1.16,"""",key,null,16.67311475409832,762.5,347,"""","""","""","""","""","""","""","""","2021-09-29 01:22:31",173.35.108.254,"Mozilla/5.0 (Windows NT 10.0; Win64; x64; rv:78.0) Gecko/20100101 Firefox/78.0",,Firefox,78.0,Windows,10.0,fe3c1d035a65c549f7011c5446f73ede
11,1,4302,arrowleft,psychophysics,37,168218,0.0-3.0-0.17,"""",key,arrowleft,16.673023255813895,762.5,347,18,1,1,23,35,25,35,false,"2021-09-29 01:22:31",173.35.108.254,"Mozilla/5.0 (Windows NT 10.0; Win64; x64; rv:78.0) Gecko/20100101 Firefox/78.0",,Firefox,78.0,Windows,10.0,fe3c1d035a65c549f7011c5446f73ede
11,1,null,null,psychophysics,38,169233,0.0-3.0-1.17,"""",key,null,16.673000000000076,762.5,347,"""","""","""","""","""","""","""","""","2021-09-29 01:22:31",173.35.108.254,"Mozilla/5.0 (Windows NT 10.0; Win64; x64; rv:78.0) Gecko/20100101 Firefox/78.0",,Firefox,78.0,Windows,10.0,fe3c1d035a65c549f7011c5446f73ede
11,1,1429,arrowleft,psychophysics,39,170670,0.0-3.0-0.18,"""",key,arrowleft,16.67294117647038,762.5,347,19,1,1,20,35,25,35,false,"2021-09-29 01:22:31",173.35.108.254,"Mozilla/5.0 (Windows NT 10.0; Win64; x64; rv:78.0) Gecko/20100101 Firefox/78.0",,Firefox,78.0,Windows,10.0,fe3c1d035a65c549f7011c5446f73ede
11,1,null,null,psychophysics,40,171679,0.0-3.0-1.18,"""",key,null,16.673000000000076,762.5,347,"""","""","""","""","""","""","""","""","2021-09-29 01:22:31",173.35.108.254,"Mozilla/5.0 (Windows NT 10.0; Win64; x64; rv:78.0) Gecko/20100101 Firefox/78.0",,Firefox,78.0,Windows,10.0,fe3c1d035a65c549f7011c5446f73ede
11,1,3439,arrowleft,psychophysics,41,175123,0.0-3.0-0.19,"""",key,arrowleft,16.673073170731758,762.5,347,20,1,1,23,35,25,35,false,"2021-09-29 01:22:31",173.35.108.254,"Mozilla/5.0 (Windows NT 10.0; Win64; x64; rv:78.0) Gecko/20100101 Firefox/78.0",,Firefox,78.0,Windows,10.0,fe3c1d035a65c549f7011c5446f73ede
11,1,null,null,psychophysics,42,176143,0.0-3.0-1.19,"""",key,null,16.672999999999593,762.5,347,"""","""","""","""","""","""","""","""","2021-09-29 01:22:31",173.35.108.254,"Mozilla/5.0 (Windows NT 10.0; Win64; x64; rv:78.0) Gecko/20100101 Firefox/78.0",,Firefox,78.0,Windows,10.0,fe3c1d035a65c549f7011c5446f73ede
11,1,2966,arrowright,psychophysics,43,179126,0.0-3.0-0.20,"""",key,arrowright,16.673033707865102,762.5,347,21,1,1,25,35,25,35,true,"2021-09-29 01:22:31",173.35.108.254,"Mozilla/5.0 (Windows NT 10.0; Win64; x64; rv:78.0) Gecko/20100101 Firefox/78.0",,Firefox,78.0,Windows,10.0,fe3c1d035a65c549f7011c5446f73ede
11,1,null,null,psychophysics,44,180135,0.0-3.0-1.20,"""",key,null,16.673000000000076,762.5,347,"""","""","""","""","""","""","""","""","2021-09-29 01:22:31",173.35.108.254,"Mozilla/5.0 (Windows NT 10.0; Win64; x64; rv:78.0) Gecko/20100101 Firefox/78.0",,Firefox,78.0,Windows,10.0,fe3c1d035a65c549f7011c5446f73ede
11,1,2974,arrowleft,psychophysics,45,183112,0.0-3.0-0.21,"""",key,arrowleft,16.67299435028246,762.5,347,22,1,1,23,15,25,35,false,"2021-09-29 01:22:31",173.35.108.254,"Mozilla/5.0 (Windows NT 10.0; Win64; x64; rv:78.0) Gecko/20100101 Firefox/78.0",,Firefox,78.0,Windows,10.0,fe3c1d035a65c549f7011c5446f73ede
11,1,null,null,psychophysics,46,184143,0.0-3.0-1.21,"""",key,null,16.951000000000445,762.5,347,"""","""","""","""","""","""","""","""","2021-09-29 01:22:31",173.35.108.254,"Mozilla/5.0 (Windows NT 10.0; Win64; x64; rv:78.0) Gecko/20100101 Firefox/78.0",,Firefox,78.0,Windows,10.0,fe3c1d035a65c549f7011c5446f73ede
11,1,973,arrowright,psychophysics,47,185129,0.0-3.0-0.22,"""",key,arrowright,16.673103448276002,762.5,347,23,1,-1,20,35,25,35,false,"2021-09-29 01:22:31",173.35.108.254,"Mozilla/5.0 (Windows NT 10.0; Win64; x64; rv:78.0) Gecko/20100101 Firefox/78.0",,Firefox,78.0,Windows,10.0,fe3c1d035a65c549f7011c5446f73ede
11,1,null,null,psychophysics,48,186143,0.0-3.0-1.22,"""",key,null,16.673000000000076,762.5,347,"""","""","""","""","""","""","""","""","2021-09-29 01:22:31",173.35.108.254,"Mozilla/5.0 (Windows NT 10.0; Win64; x64; rv:78.0) Gecko/20100101 Firefox/78.0",,Firefox,78.0,Windows,10.0,fe3c1d035a65c549f7011c5446f73ede
11,1,1042,arrowleft,psychophysics,49,187188,0.0-3.0-0.23,"""",key,arrowleft,16.672903225806472,762.5,347,24,1,-1,30,35,25,35,true,"2021-09-29 01:22:31",173.35.108.254,"Mozilla/5.0 (Windows NT 10.0; Win64; x64; rv:78.0) Gecko/20100101 Firefox/78.0",,Firefox,78.0,Windows,10.0,fe3c1d035a65c549f7011c5446f73ede
11,1,null,null,psychophysics,50,188203,0.0-3.0-1.23,"""",key,null,16.672999999999593,762.5,347,"""","""","""","""","""","""","""","""","2021-09-29 01:22:31",173.35.108.254,"Mozilla/5.0 (Windows NT 10.0; Win64; x64; rv:78.0) Gecko/20100101 Firefox/78.0",,Firefox,78.0,Windows,10.0,fe3c1d035a65c549f7011c5446f73ede
11,1,3304,arrowright,psychophysics,51,191511,0.0-3.0-0.24,"""",key,arrowright,16.67299492385795,762.5,347,25,1,-1,24,15,25,35,false,"2021-09-29 01:22:31",173.35.108.254,"Mozilla/5.0 (Windows NT 10.0; Win64; x64; rv:78.0) Gecko/20100101 Firefox/78.0",,Firefox,78.0,Windows,10.0,fe3c1d035a65c549f7011c5446f73ede
11,1,null,null,psychophysics,52,192533,0.0-3.0-1.24,"""",key,null,16.673000000000076,762.5,347,"""","""","""","""","""","""","""","""","2021-09-29 01:22:31",173.35.108.254,"Mozilla/5.0 (Windows NT 10.0; Win64; x64; rv:78.0) Gecko/20100101 Firefox/78.0",,Firefox,78.0,Windows,10.0,fe3c1d035a65c549f7011c5446f73ede
11,1,3497,arrowright,psychophysics,53,196047,0.0-3.0-0.25,"""",key,arrowright,16.752727272727306,762.5,347,26,1,1,27,35,25,35,true,"2021-09-29 01:22:31",173.35.108.254,"Mozilla/5.0 (Windows NT 10.0; Win64; x64; rv:78.0) Gecko/20100101 Firefox/78.0",,Firefox,78.0,Windows,10.0,fe3c1d035a65c549f7011c5446f73ede
11,1,null,null,psychophysics,54,197055,0.0-3.0-1.25,"""",key,null,16.673000000000076,762.5,347,"""","""","""","""","""","""","""","""","2021-09-29 01:22:31",173.35.108.254,"Mozilla/5.0 (Windows NT 10.0; Win64; x64; rv:78.0) Gecko/20100101 Firefox/78.0",,Firefox,78.0,Windows,10.0,fe3c1d035a65c549f7011c5446f73ede
11,1,1178,arrowright,psychophysics,55,198242,0.0-3.0-0.26,"""",key,arrowright,16.672857142857225,762.5,347,27,1,-1,23,35,25,35,false,"2021-09-29 01:22:31",173.35.108.254,"Mozilla/5.0 (Windows NT 10.0; Win64; x64; rv:78.0) Gecko/20100101 Firefox/78.0",,Firefox,78.0,Windows,10.0,fe3c1d035a65c549f7011c5446f73ede
11,1,null,null,psychophysics,56,199253,0.0-3.0-1.26,"""",key,null,16.673000000000076,762.5,347,"""","""","""","""","""","""","""","""","2021-09-29 01:22:31",173.35.108.254,"Mozilla/5.0 (Windows NT 10.0; Win64; x64; rv:78.0) Gecko/20100101 Firefox/78.0",,Firefox,78.0,Windows,10.0,fe3c1d035a65c549f7011c5446f73ede
11,1,1206,arrowleft,psychophysics,57,200464,0.0-3.0-0.27,"""",key,arrowleft,16.672957746478858,762.5,347,28,2,1,25,35,25,35,false,"2021-09-29 01:22:31",173.35.108.254,"Mozilla/5.0 (Windows NT 10.0; Win64; x64; rv:78.0) Gecko/20100101 Firefox/78.0",,Firefox,78.0,Windows,10.0,fe3c1d035a65c549f7011c5446f73ede
11,1,null,null,psychophysics,58,201483,0.0-3.0-1.27,"""",key,null,16.672999999999593,762.5,347,"""","""","""","""","""","""","""","""","2021-09-29 01:22:31",173.35.108.254,"Mozilla/5.0 (Windows NT 10.0; Win64; x64; rv:78.0) Gecko/20100101 Firefox/78.0",,Firefox,78.0,Windows,10.0,fe3c1d035a65c549f7011c5446f73ede
11,1,585341," ",html-keyboard-response,59,786825,0.0-3.0-2.27-0.27,"<div style=""color: white; text-align: center; vertical-align: top; display: inline-block; width: 800px; margin: auto""><p>You have completed 10% of the trials. You are on block 2 of 10. <br>Good job! Take a break if you need to.</p><p>Press any key to continue the experiment.</p></div>","""","""","""","""","""","""","""","""","""","""","""","""","""","2021-09-29 01:22:31",173.35.108.254,"Mozilla/5.0 (Windows NT 10.0; Win64; x64; rv:78.0) Gecko/20100101 Firefox/78.0",,Firefox,78.0,Windows,10.0,fe3c1d035a65c549f7011c5446f73ede
11,1,1310,arrowleft,psychophysics,60,789178,0.0-3.0-0.28,"""",key,arrowleft,16.474683544303797,762.5,347,29,2,1,20,35,25,35,false,"2021-09-29 01:22:31",173.35.108.254,"Mozilla/5.0 (Windows NT 10.0; Win64; x64; rv:78.0) Gecko/20100101 Firefox/78.0",,Firefox,78.0,Windows,10.0,fe3c1d035a65c549f7011c5446f73ede
11,1,null,null,psychophysics,61,790183,0.0-3.0-1.28,"""",key,null,16.673000000000076,762.5,347,"""","""","""","""","""","""","""","""","2021-09-29 01:22:31",173.35.108.254,"Mozilla/5.0 (Windows NT 10.0; Win64; x64; rv:78.0) Gecko/20100101 Firefox/78.0",,Firefox,78.0,Windows,10.0,fe3c1d035a65c549f7011c5446f73ede
11,1,2946,arrowleft,psychophysics,62,793133,0.0-3.0-0.29,"""",key,arrowleft,16.67295454545423,762.5,347,30,2,1,23,35,25,35,false,"2021-09-29 01:22:31",173.35.108.254,"Mozilla/5.0 (Windows NT 10.0; Win64; x64; rv:78.0) Gecko/20100101 Firefox/78.0",,Firefox,78.0,Windows,10.0,fe3c1d035a65c549f7011c5446f73ede
11,1,null,null,psychophysics,63,794142,0.0-3.0-1.29,"""",key,null,16.672881355931413,762.5,347,"""","""","""","""","""","""","""","""","2021-09-29 01:22:31",173.35.108.254,"Mozilla/5.0 (Windows NT 10.0; Win64; x64; rv:78.0) Gecko/20100101 Firefox/78.0",,Firefox,78.0,Windows,10.0,fe3c1d035a65c549f7011c5446f73ede
11,1,1527,arrowleft,psychophysics,64,795682,0.0-3.0-0.30,"""",key,arrowleft,16.673043478261324,762.5,347,31,2,-1,26,15,25,35,true,"2021-09-29 01:22:31",173.35.108.254,"Mozilla/5.0 (Windows NT 10.0; Win64; x64; rv:78.0) Gecko/20100101 Firefox/78.0",,Firefox,78.0,Windows,10.0,fe3c1d035a65c549f7011c5446f73ede
11,1,null,null,psychophysics,65,796692,0.0-3.0-1.30,"""",key,null,16.67322033898455,762.5,347,"""","""","""","""","""","""","""","""","2021-09-29 01:22:31",173.35.108.254,"Mozilla/5.0 (Windows NT 10.0; Win64; x64; rv:78.0) Gecko/20100101 Firefox/78.0",,Firefox,78.0,Windows,10.0,fe3c1d035a65c549f7011c5446f73ede
11,1,3357,arrowleft,psychophysics,66,800050,0.0-3.0-0.31,"""",key,arrowleft,16.673034825870786,762.5,347,32,2,1,24,15,25,35,false,"2021-09-29 01:22:31",173.35.108.254,"Mozilla/5.0 (Windows NT 10.0; Win64; x64; rv:78.0) Gecko/20100101 Firefox/78.0",,Firefox,78.0,Windows,10.0,fe3c1d035a65c549f7011c5446f73ede
11,1,null,null,psychophysics,67,801072,0.0-3.0-1.31,"""",key,null,16.673000000000076,762.5,347,"""","""","""","""","""","""","""","""","2021-09-29 01:22:31",173.35.108.254,"Mozilla/5.0 (Windows NT 10.0; Win64; x64; rv:78.0) Gecko/20100101 Firefox/78.0",,Firefox,78.0,Windows,10.0,fe3c1d035a65c549f7011c5446f73ede
11,1,1637,arrowright,psychophysics,68,802709,0.0-3.0-0.32,"""",key,arrowright,16.672989690721938,762.5,347,33,2,-1,23,15,25,35,false,"2021-09-29 01:22:31",173.35.108.254,"Mozilla/5.0 (Windows NT 10.0; Win64; x64; rv:78.0) Gecko/20100101 Firefox/78.0",,Firefox,78.0,Windows,10.0,fe3c1d035a65c549f7011c5446f73ede
11,1,null,null,psychophysics,69,803712,0.0-3.0-1.32,"""",key,null,16.673220338982578,762.5,347,"""","""","""","""","""","""","""","""","2021-09-29 01:22:31",173.35.108.254,"Mozilla/5.0 (Windows NT 10.0; Win64; x64; rv:78.0) Gecko/20100101 Firefox/78.0",,Firefox,78.0,Windows,10.0,fe3c1d035a65c549f7011c5446f73ede
11,1,1130,arrowleft,psychophysics,70,804854,0.0-3.0-0.33,"""",key,arrowleft,16.673235294116346,762.5,347,34,2,-1,25,15,25,35,true,"2021-09-29 01:22:31",173.35.108.254,"Mozilla/5.0 (Windows NT 10.0; Win64; x64; rv:78.0) Gecko/20100101 Firefox/78.0",,Firefox,78.0,Windows,10.0,fe3c1d035a65c549f7011c5446f73ede
11,1,null,null,psychophysics,71,805862,0.0-3.0-1.33,"""",key,null,16.673220338982578,762.5,347,"""","""","""","""","""","""","""","""","2021-09-29 01:22:31",173.35.108.254,"Mozilla/5.0 (Windows NT 10.0; Win64; x64; rv:78.0) Gecko/20100101 Firefox/78.0",,Firefox,78.0,Windows,10.0,fe3c1d035a65c549f7011c5446f73ede
11,1,1150,arrowleft,psychophysics,72,807023,0.0-3.0-0.34,"""",key,arrowleft,16.67304347826006,762.5,347,35,2,-1,26,15,25,35,true,"2021-09-29 01:22:31",173.35.108.254,"Mozilla/5.0 (Windows NT 10.0; Win64; x64; rv:78.0) Gecko/20100101 Firefox/78.0",,Firefox,78.0,Windows,10.0,fe3c1d035a65c549f7011c5446f73ede
11,1,null,null,psychophysics,73,808033,0.0-3.0-1.34,"""",key,null,16.672881355931413,762.5,347,"""","""","""","""","""","""","""","""","2021-09-29 01:22:31",173.35.108.254,"Mozilla/5.0 (Windows NT 10.0; Win64; x64; rv:78.0) Gecko/20100101 Firefox/78.0",,Firefox,78.0,Windows,10.0,fe3c1d035a65c549f7011c5446f73ede
11,1,2053,arrowleft,psychophysics,74,810102,0.0-3.0-0.35,"""",key,arrowleft,16.673008130081527,762.5,347,36,2,1,23,15,25,35,false,"2021-09-29 01:22:31",173.35.108.254,"Mozilla/5.0 (Windows NT 10.0; Win64; x64; rv:78.0) Gecko/20100101 Firefox/78.0",,Firefox,78.0,Windows,10.0,fe3c1d035a65c549f7011c5446f73ede
11,1,null,null,psychophysics,75,811123,0.0-3.0-1.35,"""",key,null,16.672786885246513,762.5,347,"""","""","""","""","""","""","""","""","2021-09-29 01:22:31",173.35.108.254,"Mozilla/5.0 (Windows NT 10.0; Win64; x64; rv:78.0) Gecko/20100101 Firefox/78.0",,Firefox,78.0,Windows,10.0,fe3c1d035a65c549f7011c5446f73ede
11,1,1011,arrowleft,psychophysics,76,812141,0.0-3.0-0.36,"""",key,arrowleft,16.672999999998137,762.5,347,37,2,-1,30,35,25,35,true,"2021-09-29 01:22:31",173.35.108.254,"Mozilla/5.0 (Windows NT 10.0; Win64; x64; rv:78.0) Gecko/20100101 Firefox/78.0",,Firefox,78.0,Windows,10.0,fe3c1d035a65c549f7011c5446f73ede
11,1,null,null,psychophysics,77,813162,0.0-3.0-1.36,"""",key,null,16.673000000000076,762.5,347,"""","""","""","""","""","""","""","""","2021-09-29 01:22:31",173.35.108.254,"Mozilla/5.0 (Windows NT 10.0; Win64; x64; rv:78.0) Gecko/20100101 Firefox/78.0",,Firefox,78.0,Windows,10.0,fe3c1d035a65c549f7011c5446f73ede
11,1,1392,arrowleft,psychophysics,78,814557,0.0-3.0-0.37,"""",key,arrowleft,16.673012048192604,762.5,347,38,2,1,20,35,25,35,false,"2021-09-29 01:22:31",173.35.108.254,"Mozilla/5.0 (Windows NT 10.0; Win64; x64; rv:78.0) Gecko/20100101 Firefox/78.0",,Firefox,78.0,Windows,10.0,fe3c1d035a65c549f7011c5446f73ede
11,1,null,null,psychophysics,79,815562,0.0-3.0-1.37,"""",key,null,16.672881355933388,762.5,347,"""","""","""","""","""","""","""","""","2021-09-29 01:22:31",173.35.108.254,"Mozilla/5.0 (Windows NT 10.0; Win64; x64; rv:78.0) Gecko/20100101 Firefox/78.0",,Firefox,78.0,Windows,10.0,fe3c1d035a65c549f7011c5446f73ede
11,1,1192,arrowleft,psychophysics,80,816762,0.0-3.0-0.38,"""",key,arrowleft,16.672957746479266,762.5,347,39,2,1,24,35,25,35,false,"2021-09-29 01:22:31",173.35.108.254,"Mozilla/5.0 (Windows NT 10.0; Win64; x64; rv:78.0) Gecko/20100101 Firefox/78.0",,Firefox,78.0,Windows,10.0,fe3c1d035a65c549f7011c5446f73ede
11,1,null,null,psychophysics,81,817772,0.0-3.0-1.38,"""",key,null,16.672881355931413,762.5,347,"""","""","""","""","""","""","""","""","2021-09-29 01:22:31",173.35.108.254,"Mozilla/5.0 (Windows NT 10.0; Win64; x64; rv:78.0) Gecko/20100101 Firefox/78.0",,Firefox,78.0,Windows,10.0,fe3c1d035a65c549f7011c5446f73ede
11,1,2399,arrowleft,psychophysics,82,820194,0.0-3.0-0.39,"""",key,arrowleft,16.78874999999971,762.5,347,40,2,-1,30,15,25,35,true,"2021-09-29 01:22:31",173.35.108.254,"Mozilla/5.0 (Windows NT 10.0; Win64; x64; rv:78.0) Gecko/20100101 Firefox/78.0",,Firefox,78.0,Windows,10.0,fe3c1d035a65c549f7011c5446f73ede
11,1,null,null,psychophysics,83,821212,0.0-3.0-1.39,"""",key,null,16.673000000000076,762.5,347,"""","""","""","""","""","""","""","""","2021-09-29 01:22:31",173.35.108.254,"Mozilla/5.0 (Windows NT 10.0; Win64; x64; rv:78.0) Gecko/20100101 Firefox/78.0",,Firefox,78.0,Windows,10.0,fe3c1d035a65c549f7011c5446f73ede
11,1,958,arrowleft,psychophysics,84,822172,0.0-3.0-0.40,"""",key,arrowleft,16.672857142858057,762.5,347,41,2,1,20,15,25,35,false,"2021-09-29 01:22:31",173.35.108.254,"Mozilla/5.0 (Windows NT 10.0; Win64; x64; rv:78.0) Gecko/20100101 Firefox/78.0",,Firefox,78.0,Windows,10.0,fe3c1d035a65c549f7011c5446f73ede
11,1,null,null,psychophysics,85,823193,0.0-3.0-1.40,"""",key,null,16.672786885246513,762.5,347,"""","""","""","""","""","""","""","""","2021-09-29 01:22:31",173.35.108.254,"Mozilla/5.0 (Windows NT 10.0; Win64; x64; rv:78.0) Gecko/20100101 Firefox/78.0",,Firefox,78.0,Windows,10.0,fe3c1d035a65c549f7011c5446f73ede
11,1,994,arrowright,psychophysics,86,824210,0.0-3.0-0.41,"""",key,arrowright,16.673000000000076,762.5,347,42,2,1,25,15,25,35,true,"2021-09-29 01:22:31",173.35.108.254,"Mozilla/5.0 (Windows NT 10.0; Win64; x64; rv:78.0) Gecko/20100101 Firefox/78.0",,Firefox,78.0,Windows,10.0,fe3c1d035a65c549f7011c5446f73ede
11,1,null,null,psychophysics,87,825232,0.0-3.0-1.41,"""",key,null,16.673000000000076,762.5,347,"""","""","""","""","""","""","""","""","2021-09-29 01:22:31",173.35.108.254,"Mozilla/5.0 (Windows NT 10.0; Win64; x64; rv:78.0) Gecko/20100101 Firefox/78.0",,Firefox,78.0,Windows,10.0,fe3c1d035a65c549f7011c5446f73ede
11,1,765,arrowleft,psychophysics,88,826002,0.0-3.0-0.42,"""",key,arrowleft,16.67288888888951,762.5,347,43,2,1,27,15,25,35,false,"2021-09-29 01:22:31",173.35.108.254,"Mozilla/5.0 (Windows NT 10.0; Win64; x64; rv:78.0) Gecko/20100101 Firefox/78.0",,Firefox,78.0,Windows,10.0,fe3c1d035a65c549f7011c5446f73ede
11,1,null,null,psychophysics,89,827011,0.0-3.0-1.42,"""",key,null,16.673333333333723,762.5,347,"""","""","""","""","""","""","""","""","2021-09-29 01:22:31",173.35.108.254,"Mozilla/5.0 (Windows NT 10.0; Win64; x64; rv:78.0) Gecko/20100101 Firefox/78.0",,Firefox,78.0,Windows,10.0,fe3c1d035a65c549f7011c5446f73ede
11,1,899,arrowright,psychophysics,90,827914,0.0-3.0-0.43,"""",key,arrowright,16.67320754717078,762.5,347,44,2,-1,23,35,25,35,false,"2021-09-29 01:22:31",173.35.108.254,"Mozilla/5.0 (Windows NT 10.0; Win64; x64; rv:78.0) Gecko/20100101 Firefox/78.0",,Firefox,78.0,Windows,10.0,fe3c1d035a65c549f7011c5446f73ede
11,1,null,null,psychophysics,91,828932,0.0-3.0-1.43,"""",key,null,16.673000000000076,762.5,347,"""","""","""","""","""","""","""","""","2021-09-29 01:22:31",173.35.108.254,"Mozilla/5.0 (Windows NT 10.0; Win64; x64; rv:78.0) Gecko/20100101 Firefox/78.0",,Firefox,78.0,Windows,10.0,fe3c1d035a65c549f7011c5446f73ede
11,1,1120,arrowleft,psychophysics,92,830056,0.0-3.0-0.44,"""",key,arrowleft,16.673030303030938,762.5,347,45,2,1,23,35,25,35,false,"2021-09-29 01:22:31",173.35.108.254,"Mozilla/5.0 (Windows NT 10.0; Win64; x64; rv:78.0) Gecko/20100101 Firefox/78.0",,Firefox,78.0,Windows,10.0,fe3c1d035a65c549f7011c5446f73ede
11,1,null,null,psychophysics,93,831062,0.0-3.0-1.44,"""",key,null,16.673000000000076,762.5,347,"""","""","""","""","""","""","""","""","2021-09-29 01:22:31",173.35.108.254,"Mozilla/5.0 (Windows NT 10.0; Win64; x64; rv:78.0) Gecko/20100101 Firefox/78.0",,Firefox,78.0,Windows,10.0,fe3c1d035a65c549f7011c5446f73ede
11,1,863,arrowright,psychophysics,94,831931,0.0-3.0-0.45,"""",key,arrowright,16.672941176471866,762.5,347,46,2,1,30,35,25,35,true,"2021-09-29 01:22:31",173.35.108.254,"Mozilla/5.0 (Windows NT 10.0; Win64; x64; rv:78.0) Gecko/20100101 Firefox/78.0",,Firefox,78.0,Windows,10.0,fe3c1d035a65c549f7011c5446f73ede
11,1,null,null,psychophysics,95,832942,0.0-3.0-1.45,"""",key,null,16.673220338982578,762.5,347,"""","""","""","""","""","""","""","""","2021-09-29 01:22:31",173.35.108.254,"Mozilla/5.0 (Windows NT 10.0; Win64; x64; rv:78.0) Gecko/20100101 Firefox/78.0",,Firefox,78.0,Windows,10.0,fe3c1d035a65c549f7011c5446f73ede
11,1,1268,arrowleft,psychophysics,96,834217,0.0-3.0-0.46,"""",key,arrowleft,16.673157894737272,762.5,347,47,2,-1,26,35,25,35,true,"2021-09-29 01:22:31",173.35.108.254,"Mozilla/5.0 (Windows NT 10.0; Win64; x64; rv:78.0) Gecko/20100101 Firefox/78.0",,Firefox,78.0,Windows,10.0,fe3c1d035a65c549f7011c5446f73ede
11,1,null,null,psychophysics,97,835232,0.0-3.0-1.46,"""",key,null,16.673000000000076,762.5,347,"""","""","""","""","""","""","""","""","2021-09-29 01:22:31",173.35.108.254,"Mozilla/5.0 (Windows NT 10.0; Win64; x64; rv:78.0) Gecko/20100101 Firefox/78.0",,Firefox,78.0,Windows,10.0,fe3c1d035a65c549f7011c5446f73ede
11,1,2208,arrowright,psychophysics,98,837444,0.0-3.0-0.47,"""",key,arrowright,16.67297709923689,762.5,347,48,2,-1,23,35,25,35,false,"2021-09-29 01:22:31",173.35.108.254,"Mozilla/5.0 (Windows NT 10.0; Win64; x64; rv:78.0) Gecko/20100101 Firefox/78.0",,Firefox,78.0,Windows,10.0,fe3c1d035a65c549f7011c5446f73ede
11,1,null,null,psychophysics,99,838452,0.0-3.0-1.47,"""",key,null,16.673000000000076,762.5,347,"""","""","""","""","""","""","""","""","2021-09-29 01:22:31",173.35.108.254,"Mozilla/5.0 (Windows NT 10.0; Win64; x64; rv:78.0) Gecko/20100101 Firefox/78.0",,Firefox,78.0,Windows,10.0,fe3c1d035a65c549f7011c5446f73ede
11,1,946,arrowright,psychophysics,100,839405,0.0-3.0-0.48,"""",key,arrowright,16.672857142855978,762.5,347,49,2,1,30,15,25,35,true,"2021-09-29 01:22:31",173.35.108.254,"Mozilla/5.0 (Windows NT 10.0; Win64; x64; rv:78.0) Gecko/20100101 Firefox/78.0",,Firefox,78.0,Windows,10.0,fe3c1d035a65c549f7011c5446f73ede
11,1,null,null,psychophysics,101,840412,0.0-3.0-1.48,"""",key,null,16.672881355931413,762.5,347,"""","""","""","""","""","""","""","""","2021-09-29 01:22:31",173.35.108.254,"Mozilla/5.0 (Windows NT 10.0; Win64; x64; rv:78.0) Gecko/20100101 Firefox/78.0",,Firefox,78.0,Windows,10.0,fe3c1d035a65c549f7011c5446f73ede
11,1,1104,arrowright,psychophysics,102,841522,0.0-3.0-0.49,"""",key,arrowright,16.673030303030938,762.5,347,50,2,-1,23,35,25,35,false,"2021-09-29 01:22:31",173.35.108.254,"Mozilla/5.0 (Windows NT 10.0; Win64; x64; rv:78.0) Gecko/20100101 Firefox/78.0",,Firefox,78.0,Windows,10.0,fe3c1d035a65c549f7011c5446f73ede
11,1,null,null,psychophysics,103,842542,0.0-3.0-1.49,"""",key,null,16.673000000000076,762.5,347,"""","""","""","""","""","""","""","""","2021-09-29 01:22:31",173.35.108.254,"Mozilla/5.0 (Windows NT 10.0; Win64; x64; rv:78.0) Gecko/20100101 Firefox/78.0",,Firefox,78.0,Windows,10.0,fe3c1d035a65c549f7011c5446f73ede
11,1,1782,arrowleft,psychophysics,104,844325,0.0-3.0-0.50,"""",key,arrowleft,16.67301886792422,762.5,347,51,2,1,24,15,25,35,false,"2021-09-29 01:22:31",173.35.108.254,"Mozilla/5.0 (Windows NT 10.0; Win64; x64; rv:78.0) Gecko/20100101 Firefox/78.0",,Firefox,78.0,Windows,10.0,fe3c1d035a65c549f7011c5446f73ede
11,1,null,null,psychophysics,105,845342,0.0-3.0-1.50,"""",key,null,16.673000000000076,762.5,347,"""","""","""","""","""","""","""","""","2021-09-29 01:22:31",173.35.108.254,"Mozilla/5.0 (Windows NT 10.0; Win64; x64; rv:78.0) Gecko/20100101 Firefox/78.0",,Firefox,78.0,Windows,10.0,fe3c1d035a65c549f7011c5446f73ede
11,1,993,arrowright,psychophysics,106,846339,0.0-3.0-0.51,"""",key,arrowright,16.67322033898455,762.5,347,52,2,1,30,35,25,35,true,"2021-09-29 01:22:31",173.35.108.254,"Mozilla/5.0 (Windows NT 10.0; Win64; x64; rv:78.0) Gecko/20100101 Firefox/78.0",,Firefox,78.0,Windows,10.0,fe3c1d035a65c549f7011c5446f73ede
11,1,null,null,psychophysics,107,847342,0.0-3.0-1.51,"""",key,null,16.67322033898455,762.5,347,"""","""","""","""","""","""","""","""","2021-09-29 01:22:31",173.35.108.254,"Mozilla/5.0 (Windows NT 10.0; Win64; x64; rv:78.0) Gecko/20100101 Firefox/78.0",,Firefox,78.0,Windows,10.0,fe3c1d035a65c549f7011c5446f73ede
11,1,848,arrowright,psychophysics,108,848213,0.0-3.0-0.52,"""",key,arrowright,16.673333333334977,762.5,347,53,2,1,30,15,25,35,true,"2021-09-29 01:22:31",173.35.108.254,"Mozilla/5.0 (Windows NT 10.0; Win64; x64; rv:78.0) Gecko/20100101 Firefox/78.0",,Firefox,78.0,Windows,10.0,fe3c1d035a65c549f7011c5446f73ede
11,1,null,null,psychophysics,109,849223,0.0-3.0-1.52,"""",key,null,16.673000000000076,762.5,347,"""","""","""","""","""","""","""","""","2021-09-29 01:22:31",173.35.108.254,"Mozilla/5.0 (Windows NT 10.0; Win64; x64; rv:78.0) Gecko/20100101 Firefox/78.0",,Firefox,78.0,Windows,10.0,fe3c1d035a65c549f7011c5446f73ede
11,1,1284,arrowleft,psychophysics,110,850508,0.0-3.0-0.53,"""",key,arrowleft,16.672894736842288,762.5,347,54,2,1,24,35,25,35,false,"2021-09-29 01:22:31",173.35.108.254,"Mozilla/5.0 (Windows NT 10.0; Win64; x64; rv:78.0) Gecko/20100101 Firefox/78.0",,Firefox,78.0,Windows,10.0,fe3c1d035a65c549f7011c5446f73ede
11,1,null,null,psychophysics,111,851512,0.0-3.0-1.53,"""",key,null,16.673220338982578,762.5,347,"""","""","""","""","""","""","""","""","2021-09-29 01:22:31",173.35.108.254,"Mozilla/5.0 (Windows NT 10.0; Win64; x64; rv:78.0) Gecko/20100101 Firefox/78.0",,Firefox,78.0,Windows,10.0,fe3c1d035a65c549f7011c5446f73ede
11,1,1151,arrowleft,psychophysics,112,852667,0.0-3.0-0.54,"""",key,arrowleft,16.672941176470726,762.5,347,55,2,-1,27,15,25,35,true,"2021-09-29 01:22:31",173.35.108.254,"Mozilla/5.0 (Windows NT 10.0; Win64; x64; rv:78.0) Gecko/20100101 Firefox/78.0",,Firefox,78.0,Windows,10.0,fe3c1d035a65c549f7011c5446f73ede
11,1,null,null,psychophysics,113,853682,0.0-3.0-1.54,"""",key,null,16.673000000000076,762.5,347,"""","""","""","""","""","""","""","""","2021-09-29 01:22:31",173.35.108.254,"Mozilla/5.0 (Windows NT 10.0; Win64; x64; rv:78.0) Gecko/20100101 Firefox/78.0",,Firefox,78.0,Windows,10.0,fe3c1d035a65c549f7011c5446f73ede
11,1,778,arrowright,psychophysics,114,854480,0.0-3.0-0.55,"""",key,arrowright,17.035217391304247,762.5,347,56,3,1,30,15,25,35,true,"2021-09-29 01:22:31",173.35.108.254,"Mozilla/5.0 (Windows NT 10.0; Win64; x64; rv:78.0) Gecko/20100101 Firefox/78.0",,Firefox,78.0,Windows,10.0,fe3c1d035a65c549f7011c5446f73ede
11,1,null,null,psychophysics,115,855482,0.0-3.0-1.55,"""",key,null,16.672881355931413,762.5,347,"""","""","""","""","""","""","""","""","2021-09-29 01:22:31",173.35.108.254,"Mozilla/5.0 (Windows NT 10.0; Win64; x64; rv:78.0) Gecko/20100101 Firefox/78.0",,Firefox,78.0,Windows,10.0,fe3c1d035a65c549f7011c5446f73ede
11,1,3171," ",html-keyboard-response,116,858655,0.0-3.0-2.55-0.55,"<div style=""color: white; text-align: center; vertical-align: top; display: inline-block; width: 800px; margin: auto""><p>You have completed 20% of the trials. You are on block 3 of 10. <br>Good job! Take a break if you need to.</p><p>Press any key to continue the experiment.</p></div>","""","""","""","""","""","""","""","""","""","""","""","""","""","2021-09-29 01:22:31",173.35.108.254,"Mozilla/5.0 (Windows NT 10.0; Win64; x64; rv:78.0) Gecko/20100101 Firefox/78.0",,Firefox,78.0,Windows,10.0,fe3c1d035a65c549f7011c5446f73ede
11,1,1069,arrowright,psychophysics,117,860739,0.0-3.0-0.56,"""",key,arrowright,16.531076923075418,762.5,347,57,3,-1,20,35,25,35,false,"2021-09-29 01:22:31",173.35.108.254,"Mozilla/5.0 (Windows NT 10.0; Win64; x64; rv:78.0) Gecko/20100101 Firefox/78.0",,Firefox,78.0,Windows,10.0,fe3c1d035a65c549f7011c5446f73ede
11,1,null,null,psychophysics,118,861762,0.0-3.0-1.56,"""",key,null,16.673000000000076,762.5,347,"""","""","""","""","""","""","""","""","2021-09-29 01:22:31",173.35.108.254,"Mozilla/5.0 (Windows NT 10.0; Win64; x64; rv:78.0) Gecko/20100101 Firefox/78.0",,Firefox,78.0,Windows,10.0,fe3c1d035a65c549f7011c5446f73ede
11,1,1092,arrowleft,psychophysics,119,862861,0.0-3.0-0.57,"""",key,arrowleft,16.673230769230912,762.5,347,58,3,1,25,35,25,35,false,"2021-09-29 01:22:31",173.35.108.254,"Mozilla/5.0 (Windows NT 10.0; Win64; x64; rv:78.0) Gecko/20100101 Firefox/78.0",,Firefox,78.0,Windows,10.0,fe3c1d035a65c549f7011c5446f73ede
11,1,null,null,psychophysics,120,863871,0.0-3.0-1.57,"""",key,null,16.67322033898455,762.5,347,"""","""","""","""","""","""","""","""","2021-09-29 01:22:31",173.35.108.254,"Mozilla/5.0 (Windows NT 10.0; Win64; x64; rv:78.0) Gecko/20100101 Firefox/78.0",,Firefox,78.0,Windows,10.0,fe3c1d035a65c549f7011c5446f73ede
11,1,882,arrowleft,psychophysics,121,864760,0.0-3.0-0.58,"""",key,arrowleft,16.67320754717078,762.5,347,59,3,-1,26,15,25,35,true,"2021-09-29 01:22:31",173.35.108.254,"Mozilla/5.0 (Windows NT 10.0; Win64; x64; rv:78.0) Gecko/20100101 Firefox/78.0",,Firefox,78.0,Windows,10.0,fe3c1d035a65c549f7011c5446f73ede
11,1,null,null,psychophysics,122,865772,0.0-3.0-1.58,"""",key,null,16.673220338982578,762.5,347,"""","""","""","""","""","""","""","""","2021-09-29 01:22:31",173.35.108.254,"Mozilla/5.0 (Windows NT 10.0; Win64; x64; rv:78.0) Gecko/20100101 Firefox/78.0",,Firefox,78.0,Windows,10.0,fe3c1d035a65c549f7011c5446f73ede
11,1,1132,arrowleft,psychophysics,123,866911,0.0-3.0-0.59,"""",key,arrowleft,16.672941176470726,762.5,347,60,3,1,24,35,25,35,false,"2021-09-29 01:22:31",173.35.108.254,"Mozilla/5.0 (Windows NT 10.0; Win64; x64; rv:78.0) Gecko/20100101 Firefox/78.0",,Firefox,78.0,Windows,10.0,fe3c1d035a65c549f7011c5446f73ede
11,1,null,null,psychophysics,124,867932,0.0-3.0-1.59,"""",key,null,16.673000000000076,762.5,347,"""","""","""","""","""","""","""","""","2021-09-29 01:22:31",173.35.108.254,"Mozilla/5.0 (Windows NT 10.0; Win64; x64; rv:78.0) Gecko/20100101 Firefox/78.0",,Firefox,78.0,Windows,10.0,fe3c1d035a65c549f7011c5446f73ede
11,1,1065,arrowleft,psychophysics,125,869001,0.0-3.0-0.60,"""",key,arrowleft,16.673015873014396,762.5,347,61,3,1,23,15,25,35,false,"2021-09-29 01:22:31",173.35.108.254,"Mozilla/5.0 (Windows NT 10.0; Win64; x64; rv:78.0) Gecko/20100101 Firefox/78.0",,Firefox,78.0,Windows,10.0,fe3c1d035a65c549f7011c5446f73ede
11,1,null,null,psychophysics,126,870013,0.0-3.0-1.60,"""",key,null,16.673000000000076,762.5,347,"""","""","""","""","""","""","""","""","2021-09-29 01:22:31",173.35.108.254,"Mozilla/5.0 (Windows NT 10.0; Win64; x64; rv:78.0) Gecko/20100101 Firefox/78.0",,Firefox,78.0,Windows,10.0,fe3c1d035a65c549f7011c5446f73ede
11,1,883,arrowleft,psychophysics,127,870900,0.0-3.0-0.61,"""",key,arrowleft,16.673076923076923,762.5,347,62,3,-1,27,15,25,35,true,"2021-09-29 01:22:31",173.35.108.254,"Mozilla/5.0 (Windows NT 10.0; Win64; x64; rv:78.0) Gecko/20100101 Firefox/78.0",,Firefox,78.0,Windows,10.0,fe3c1d035a65c549f7011c5446f73ede
11,1,null,null,psychophysics,128,871902,0.0-3.0-1.61,"""",key,null,16.672881355933388,762.5,347,"""","""","""","""","""","""","""","""","2021-09-29 01:22:31",173.35.108.254,"Mozilla/5.0 (Windows NT 10.0; Win64; x64; rv:78.0) Gecko/20100101 Firefox/78.0",,Firefox,78.0,Windows,10.0,fe3c1d035a65c549f7011c5446f73ede
11,1,837,arrowright,psychophysics,129,872745,0.0-3.0-0.62,"""",key,arrowright,16.67320000000065,762.5,347,63,3,1,27,15,25,35,true,"2021-09-29 01:22:31",173.35.108.254,"Mozilla/5.0 (Windows NT 10.0; Win64; x64; rv:78.0) Gecko/20100101 Firefox/78.0",,Firefox,78.0,Windows,10.0,fe3c1d035a65c549f7011c5446f73ede
11,1,null,null,psychophysics,130,873762,0.0-3.0-1.62,"""",key,null,16.672999999998137,762.5,347,"""","""","""","""","""","""","""","""","2021-09-29 01:22:31",173.35.108.254,"Mozilla/5.0 (Windows NT 10.0; Win64; x64; rv:78.0) Gecko/20100101 Firefox/78.0",,Firefox,78.0,Windows,10.0,fe3c1d035a65c549f7011c5446f73ede
11,1,1141,arrowleft,psychophysics,131,874905,0.0-3.0-0.63,"""",key,arrowleft,16.672835820894896,762.5,347,64,3,1,20,15,25,35,false,"2021-09-29 01:22:31",173.35.108.254,"Mozilla/5.0 (Windows NT 10.0; Win64; x64; rv:78.0) Gecko/20100101 Firefox/78.0",,Firefox,78.0,Windows,10.0,fe3c1d035a65c549f7011c5446f73ede
11,1,null,null,psychophysics,132,875912,0.0-3.0-1.63,"""",key,null,16.673000000000076,762.5,347,"""","""","""","""","""","""","""","""","2021-09-29 01:22:31",173.35.108.254,"Mozilla/5.0 (Windows NT 10.0; Win64; x64; rv:78.0) Gecko/20100101 Firefox/78.0",,Firefox,78.0,Windows,10.0,fe3c1d035a65c549f7011c5446f73ede
11,1,899,arrowleft,psychophysics,133,876812,0.0-3.0-0.64,"""",key,arrowleft,16.67283018867986,762.5,347,65,3,1,23,35,25,35,false,"2021-09-29 01:22:31",173.35.108.254,"Mozilla/5.0 (Windows NT 10.0; Win64; x64; rv:78.0) Gecko/20100101 Firefox/78.0",,Firefox,78.0,Windows,10.0,fe3c1d035a65c549f7011c5446f73ede
11,1,null,null,psychophysics,134,877822,0.0-3.0-1.64,"""",key,null,16.672881355931413,762.5,347,"""","""","""","""","""","""","""","""","2021-09-29 01:22:31",173.35.108.254,"Mozilla/5.0 (Windows NT 10.0; Win64; x64; rv:78.0) Gecko/20100101 Firefox/78.0",,Firefox,78.0,Windows,10.0,fe3c1d035a65c549f7011c5446f73ede
11,1,760,arrowright,psychophysics,135,878586,0.0-3.0-0.65,"""",key,arrowright,16.672888888886924,762.5,347,66,3,1,30,15,25,35,true,"2021-09-29 01:22:31",173.35.108.254,"Mozilla/5.0 (Windows NT 10.0; Win64; x64; rv:78.0) Gecko/20100101 Firefox/78.0",,Firefox,78.0,Windows,10.0,fe3c1d035a65c549f7011c5446f73ede
11,1,null,null,psychophysics,136,879592,0.0-3.0-1.65,"""",key,null,16.672881355931413,762.5,347,"""","""","""","""","""","""","""","""","2021-09-29 01:22:31",173.35.108.254,"Mozilla/5.0 (Windows NT 10.0; Win64; x64; rv:78.0) Gecko/20100101 Firefox/78.0",,Firefox,78.0,Windows,10.0,fe3c1d035a65c549f7011c5446f73ede
11,1,798,arrowleft,psychophysics,137,880404,0.0-3.0-0.66,"""",key,arrowleft,16.672916666667636,762.5,347,67,3,1,20,15,25,35,false,"2021-09-29 01:22:31",173.35.108.254,"Mozilla/5.0 (Windows NT 10.0; Win64; x64; rv:78.0) Gecko/20100101 Firefox/78.0",,Firefox,78.0,Windows,10.0,fe3c1d035a65c549f7011c5446f73ede
11,1,null,null,psychophysics,138,881412,0.0-3.0-1.66,"""",key,null,16.672881355933388,762.5,347,"""","""","""","""","""","""","""","""","2021-09-29 01:22:31",173.35.108.254,"Mozilla/5.0 (Windows NT 10.0; Win64; x64; rv:78.0) Gecko/20100101 Firefox/78.0",,Firefox,78.0,Windows,10.0,fe3c1d035a65c549f7011c5446f73ede
11,1,1059,arrowleft,psychophysics,139,882490,0.0-3.0-0.67,"""",key,arrowleft,16.93777777777711,762.5,347,68,3,-1,27,15,25,35,true,"2021-09-29 01:22:31",173.35.108.254,"Mozilla/5.0 (Windows NT 10.0; Win64; x64; rv:78.0) Gecko/20100101 Firefox/78.0",,Firefox,78.0,Windows,10.0,fe3c1d035a65c549f7011c5446f73ede
11,1,null,null,psychophysics,140,883492,0.0-3.0-1.67,"""",key,null,16.673220338982578,762.5,347,"""","""","""","""","""","""","""","""","2021-09-29 01:22:31",173.35.108.254,"Mozilla/5.0 (Windows NT 10.0; Win64; x64; rv:78.0) Gecko/20100101 Firefox/78.0",,Firefox,78.0,Windows,10.0,fe3c1d035a65c549f7011c5446f73ede
11,1,1132,arrowleft,psychophysics,141,884626,0.0-3.0-0.68,"""",key,arrowleft,16.67313432835786,762.5,347,69,3,-1,25,15,25,35,true,"2021-09-29 01:22:31",173.35.108.254,"Mozilla/5.0 (Windows NT 10.0; Win64; x64; rv:78.0) Gecko/20100101 Firefox/78.0",,Firefox,78.0,Windows,10.0,fe3c1d035a65c549f7011c5446f73ede
11,1,null,null,psychophysics,142,885633,0.0-3.0-1.68,"""",key,null,16.673000000000076,762.5,347,"""","""","""","""","""","""","""","""","2021-09-29 01:22:31",173.35.108.254,"Mozilla/5.0 (Windows NT 10.0; Win64; x64; rv:78.0) Gecko/20100101 Firefox/78.0",,Firefox,78.0,Windows,10.0,fe3c1d035a65c549f7011c5446f73ede
11,1,1062,arrowright,psychophysics,143,886699,0.0-3.0-0.69,"""",key,arrowright,16.673015873014396,762.5,347,70,3,-1,20,35,25,35,false,"2021-09-29 01:22:31",173.35.108.254,"Mozilla/5.0 (Windows NT 10.0; Win64; x64; rv:78.0) Gecko/20100101 Firefox/78.0",,Firefox,78.0,Windows,10.0,fe3c1d035a65c549f7011c5446f73ede
11,1,null,null,psychophysics,144,887722,0.0-3.0-1.69,"""",key,null,16.673000000000076,762.5,347,"""","""","""","""","""","""","""","""","2021-09-29 01:22:31",173.35.108.254,"Mozilla/5.0 (Windows NT 10.0; Win64; x64; rv:78.0) Gecko/20100101 Firefox/78.0",,Firefox,78.0,Windows,10.0,fe3c1d035a65c549f7011c5446f73ede
11,1,935,arrowleft,psychophysics,145,888659,0.0-3.0-0.70,"""",key,arrowleft,16.672727272727272,762.5,347,71,3,-1,30,35,25,35,true,"2021-09-29 01:22:31",173.35.108.254,"Mozilla/5.0 (Windows NT 10.0; Win64; x64; rv:78.0) Gecko/20100101 Firefox/78.0",,Firefox,78.0,Windows,10.0,fe3c1d035a65c549f7011c5446f73ede
11,1,null,null,psychophysics,146,889662,0.0-3.0-1.70,"""",key,null,16.672881355931413,762.5,347,"""","""","""","""","""","""","""","""","2021-09-29 01:22:31",173.35.108.254,"Mozilla/5.0 (Windows NT 10.0; Win64; x64; rv:78.0) Gecko/20100101 Firefox/78.0",,Firefox,78.0,Windows,10.0,fe3c1d035a65c549f7011c5446f73ede
11,1,1168,arrowleft,psychophysics,147,890840,0.0-3.0-0.71,"""",key,arrowleft,16.67314285714279,762.5,347,72,3,-1,24,15,25,35,true,"2021-09-29 01:22:31",173.35.108.254,"Mozilla/5.0 (Windows NT 10.0; Win64; x64; rv:78.0) Gecko/20100101 Firefox/78.0",,Firefox,78.0,Windows,10.0,fe3c1d035a65c549f7011c5446f73ede
11,1,null,null,psychophysics,148,891862,0.0-3.0-1.71,"""",key,null,16.673000000000076,762.5,347,"""","""","""","""","""","""","""","""","2021-09-29 01:22:31",173.35.108.254,"Mozilla/5.0 (Windows NT 10.0; Win64; x64; rv:78.0) Gecko/20100101 Firefox/78.0",,Firefox,78.0,Windows,10.0,fe3c1d035a65c549f7011c5446f73ede
11,1,842,arrowright,psychophysics,149,892711,0.0-3.0-0.72,"""",key,arrowright,16.67320000000065,762.5,347,73,3,1,30,15,25,35,true,"2021-09-29 01:22:31",173.35.108.254,"Mozilla/5.0 (Windows NT 10.0; Win64; x64; rv:78.0) Gecko/20100101 Firefox/78.0",,Firefox,78.0,Windows,10.0,fe3c1d035a65c549f7011c5446f73ede
11,1,null,null,psychophysics,150,893732,0.0-3.0-1.72,"""",key,null,16.673000000000076,762.5,347,"""","""","""","""","""","""","""","""","2021-09-29 01:22:31",173.35.108.254,"Mozilla/5.0 (Windows NT 10.0; Win64; x64; rv:78.0) Gecko/20100101 Firefox/78.0",,Firefox,78.0,Windows,10.0,fe3c1d035a65c549f7011c5446f73ede
11,1,912,arrowleft,psychophysics,151,894657,0.0-3.0-0.73,"""",key,arrowleft,16.673090909091247,762.5,347,74,3,-1,27,35,25,35,true,"2021-09-29 01:22:31",173.35.108.254,"Mozilla/5.0 (Windows NT 10.0; Win64; x64; rv:78.0) Gecko/20100101 Firefox/78.0",,Firefox,78.0,Windows,10.0,fe3c1d035a65c549f7011c5446f73ede
11,1,null,null,psychophysics,152,895664,0.0-3.0-1.73,"""",key,null,16.673220338982578,762.5,347,"""","""","""","""","""","""","""","""","2021-09-29 01:22:31",173.35.108.254,"Mozilla/5.0 (Windows NT 10.0; Win64; x64; rv:78.0) Gecko/20100101 Firefox/78.0",,Firefox,78.0,Windows,10.0,fe3c1d035a65c549f7011c5446f73ede
11,1,913,arrowright,psychophysics,153,896592,0.0-3.0-0.74,"""",key,arrowright,16.673090909091247,762.5,347,75,3,1,30,15,25,35,true,"2021-09-29 01:22:31",173.35.108.254,"Mozilla/5.0 (Windows NT 10.0; Win64; x64; rv:78.0) Gecko/20100101 Firefox/78.0",,Firefox,78.0,Windows,10.0,fe3c1d035a65c549f7011c5446f73ede
11,1,null,null,psychophysics,154,897602,0.0-3.0-1.74,"""",key,null,16.672881355933388,762.5,347,"""","""","""","""","""","""","""","""","2021-09-29 01:22:31",173.35.108.254,"Mozilla/5.0 (Windows NT 10.0; Win64; x64; rv:78.0) Gecko/20100101 Firefox/78.0",,Firefox,78.0,Windows,10.0,fe3c1d035a65c549f7011c5446f73ede
11,1,1308,arrowleft,psychophysics,155,898918,0.0-3.0-0.75,"""",key,arrowleft,16.673076923076923,762.5,347,76,3,-1,27,15,25,35,true,"2021-09-29 01:22:31",173.35.108.254,"Mozilla/5.0 (Windows NT 10.0; Win64; x64; rv:78.0) Gecko/20100101 Firefox/78.0",,Firefox,78.0,Windows,10.0,fe3c1d035a65c549f7011c5446f73ede
11,1,null,null,psychophysics,156,899922,0.0-3.0-1.75,"""",key,null,16.673000000000076,762.5,347,"""","""","""","""","""","""","""","""","2021-09-29 01:22:31",173.35.108.254,"Mozilla/5.0 (Windows NT 10.0; Win64; x64; rv:78.0) Gecko/20100101 Firefox/78.0",,Firefox,78.0,Windows,10.0,fe3c1d035a65c549f7011c5446f73ede
11,1,1424,arrowleft,psychophysics,157,901351,0.0-3.0-0.76,"""",key,arrowleft,16.67309523809568,762.5,347,77,3,-1,27,35,25,35,true,"2021-09-29 01:22:31",173.35.108.254,"Mozilla/5.0 (Windows NT 10.0; Win64; x64; rv:78.0) Gecko/20100101 Firefox/78.0",,Firefox,78.0,Windows,10.0,fe3c1d035a65c549f7011c5446f73ede
11,1,null,null,psychophysics,158,902363,0.0-3.0-1.76,"""",key,null,16.673000000000076,762.5,347,"""","""","""","""","""","""","""","""","2021-09-29 01:22:31",173.35.108.254,"Mozilla/5.0 (Windows NT 10.0; Win64; x64; rv:78.0) Gecko/20100101 Firefox/78.0",,Firefox,78.0,Windows,10.0,fe3c1d035a65c549f7011c5446f73ede
11,1,1289,arrowleft,psychophysics,159,903667,0.0-3.0-0.77,"""",key,arrowleft,16.67298701298786,762.5,347,78,3,-1,27,35,25,35,true,"2021-09-29 01:22:31",173.35.108.254,"Mozilla/5.0 (Windows NT 10.0; Win64; x64; rv:78.0) Gecko/20100101 Firefox/78.0",,Firefox,78.0,Windows,10.0,fe3c1d035a65c549f7011c5446f73ede
11,1,null,null,psychophysics,160,904672,0.0-3.0-1.77,"""",key,null,16.673000000000076,762.5,347,"""","""","""","""","""","""","""","""","2021-09-29 01:22:31",173.35.108.254,"Mozilla/5.0 (Windows NT 10.0; Win64; x64; rv:78.0) Gecko/20100101 Firefox/78.0",,Firefox,78.0,Windows,10.0,fe3c1d035a65c549f7011c5446f73ede
11,1,1256,arrowleft,psychophysics,161,905930,0.0-3.0-0.78,"""",key,arrowleft,16.673243243242553,762.5,347,79,3,1,25,35,25,35,false,"2021-09-29 01:22:31",173.35.108.254,"Mozilla/5.0 (Windows NT 10.0; Win64; x64; rv:78.0) Gecko/20100101 Firefox/78.0",,Firefox,78.0,Windows,10.0,fe3c1d035a65c549f7011c5446f73ede
11,1,null,null,psychophysics,162,906932,0.0-3.0-1.78,"""",key,null,16.673220338982578,762.5,347,"""","""","""","""","""","""","""","""","2021-09-29 01:22:31",173.35.108.254,"Mozilla/5.0 (Windows NT 10.0; Win64; x64; rv:78.0) Gecko/20100101 Firefox/78.0",,Firefox,78.0,Windows,10.0,fe3c1d035a65c549f7011c5446f73ede
11,1,666,arrowright,psychophysics,163,907601,0.0-3.0-0.79,"""",key,arrowright,16.673333333333574,762.5,347,80,3,-1,20,35,25,35,false,"2021-09-29 01:22:31",173.35.108.254,"Mozilla/5.0 (Windows NT 10.0; Win64; x64; rv:78.0) Gecko/20100101 Firefox/78.0",,Firefox,78.0,Windows,10.0,fe3c1d035a65c549f7011c5446f73ede
11,1,null,null,psychophysics,164,908612,0.0-3.0-1.79,"""",key,null,16.673000000000076,762.5,347,"""","""","""","""","""","""","""","""","2021-09-29 01:22:31",173.35.108.254,"Mozilla/5.0 (Windows NT 10.0; Win64; x64; rv:78.0) Gecko/20100101 Firefox/78.0",,Firefox,78.0,Windows,10.0,fe3c1d035a65c549f7011c5446f73ede
11,1,964,arrowleft,psychophysics,165,909597,0.0-3.0-0.80,"""",key,arrowleft,16.673103448276503,762.5,347,81,3,1,20,15,25,35,false,"2021-09-29 01:22:31",173.35.108.254,"Mozilla/5.0 (Windows NT 10.0; Win64; x64; rv:78.0) Gecko/20100101 Firefox/78.0",,Firefox,78.0,Windows,10.0,fe3c1d035a65c549f7011c5446f73ede
11,1,null,null,psychophysics,166,910612,0.0-3.0-1.80,"""",key,null,16.673000000000076,762.5,347,"""","""","""","""","""","""","""","""","2021-09-29 01:22:31",173.35.108.254,"Mozilla/5.0 (Windows NT 10.0; Win64; x64; rv:78.0) Gecko/20100101 Firefox/78.0",,Firefox,78.0,Windows,10.0,fe3c1d035a65c549f7011c5446f73ede
11,1,1169,arrowright,psychophysics,167,911785,0.0-3.0-0.81,"""",key,arrowright,16.673043478261746,762.5,347,82,3,-1,23,35,25,35,false,"2021-09-29 01:22:31",173.35.108.254,"Mozilla/5.0 (Windows NT 10.0; Win64; x64; rv:78.0) Gecko/20100101 Firefox/78.0",,Firefox,78.0,Windows,10.0,fe3c1d035a65c549f7011c5446f73ede
11,1,null,null,psychophysics,168,912794,0.0-3.0-1.81,"""",key,null,16.673000000000076,762.5,347,"""","""","""","""","""","""","""","""","2021-09-29 01:22:31",173.35.108.254,"Mozilla/5.0 (Windows NT 10.0; Win64; x64; rv:78.0) Gecko/20100101 Firefox/78.0",,Firefox,78.0,Windows,10.0,fe3c1d035a65c549f7011c5446f73ede
11,1,1510,arrowleft,psychophysics,169,914313,0.0-3.0-0.82,"""",key,arrowleft,16.673111111110646,762.5,347,83,3,-1,24,15,25,35,true,"2021-09-29 01:22:31",173.35.108.254,"Mozilla/5.0 (Windows NT 10.0; Win64; x64; rv:78.0) Gecko/20100101 Firefox/78.0",,Firefox,78.0,Windows,10.0,fe3c1d035a65c549f7011c5446f73ede
11,1,null,null,psychophysics,170,915332,0.0-3.0-1.82,"""",key,null,16.673000000000076,762.5,347,"""","""","""","""","""","""","""","""","2021-09-29 01:22:31",173.35.108.254,"Mozilla/5.0 (Windows NT 10.0; Win64; x64; rv:78.0) Gecko/20100101 Firefox/78.0",,Firefox,78.0,Windows,10.0,fe3c1d035a65c549f7011c5446f73ede
11,1,917,arrowleft,psychophysics,171,916256,0.0-3.0-0.83,"""",key,arrowleft,16.672962962964515,762.5,347,84,4,-1,30,15,25,35,true,"2021-09-29 01:22:31",173.35.108.254,"Mozilla/5.0 (Windows NT 10.0; Win64; x64; rv:78.0) Gecko/20100101 Firefox/78.0",,Firefox,78.0,Windows,10.0,fe3c1d035a65c549f7011c5446f73ede
11,1,null,null,psychophysics,172,917262,0.0-3.0-1.83,"""",key,null,16.673000000000076,762.5,347,"""","""","""","""","""","""","""","""","2021-09-29 01:22:31",173.35.108.254,"Mozilla/5.0 (Windows NT 10.0; Win64; x64; rv:78.0) Gecko/20100101 Firefox/78.0",,Firefox,78.0,Windows,10.0,fe3c1d035a65c549f7011c5446f73ede
11,1,6842,arrowleft,html-keyboard-response,173,924105,0.0-3.0-2.83-0.83,"<div style=""color: white; text-align: center; vertical-align: top; display: inline-block; width: 800px; margin: auto""><p>You have completed 30% of the trials. You are on block 4 of 10. <br>Good job! Take a break if you need to.</p><p>Press any key to continue the experiment.</p></div>","""","""","""","""","""","""","""","""","""","""","""","""","""","2021-09-29 01:22:31",173.35.108.254,"Mozilla/5.0 (Windows NT 10.0; Win64; x64; rv:78.0) Gecko/20100101 Firefox/78.0",,Firefox,78.0,Windows,10.0,fe3c1d035a65c549f7011c5446f73ede
11,1,927,arrowleft,psychophysics,174,926049,0.0-3.0-0.84,"""",key,arrowleft,16.648214285715117,762.5,347,85,4,-1,27,35,25,35,true,"2021-09-29 01:22:31",173.35.108.254,"Mozilla/5.0 (Windows NT 10.0; Win64; x64; rv:78.0) Gecko/20100101 Firefox/78.0",,Firefox,78.0,Windows,10.0,fe3c1d035a65c549f7011c5446f73ede
11,1,null,null,psychophysics,175,927072,0.0-3.0-1.84,"""",key,null,16.673000000000076,762.5,347,"""","""","""","""","""","""","""","""","2021-09-29 01:22:31",173.35.108.254,"Mozilla/5.0 (Windows NT 10.0; Win64; x64; rv:78.0) Gecko/20100101 Firefox/78.0",,Firefox,78.0,Windows,10.0,fe3c1d035a65c549f7011c5446f73ede
11,1,808,arrowleft,psychophysics,176,927887,0.0-3.0-0.85,"""",key,arrowleft,16.673333333332266,762.5,347,86,4,1,20,15,25,35,false,"2021-09-29 01:22:31",173.35.108.254,"Mozilla/5.0 (Windows NT 10.0; Win64; x64; rv:78.0) Gecko/20100101 Firefox/78.0",,Firefox,78.0,Windows,10.0,fe3c1d035a65c549f7011c5446f73ede
11,1,null,null,psychophysics,177,928892,0.0-3.0-1.85,"""",key,null,16.673220338982578,762.5,347,"""","""","""","""","""","""","""","""","2021-09-29 01:22:31",173.35.108.254,"Mozilla/5.0 (Windows NT 10.0; Win64; x64; rv:78.0) Gecko/20100101 Firefox/78.0",,Firefox,78.0,Windows,10.0,fe3c1d035a65c549f7011c5446f73ede
11,1,847,arrowright,psychophysics,178,929755,0.0-3.0-0.86,"""",key,arrowright,16.673333333332693,762.5,347,87,4,1,26,35,25,35,true,"2021-09-29 01:22:31",173.35.108.254,"Mozilla/5.0 (Windows NT 10.0; Win64; x64; rv:78.0) Gecko/20100101 Firefox/78.0",,Firefox,78.0,Windows,10.0,fe3c1d035a65c549f7011c5446f73ede
11,1,null,null,psychophysics,179,930772,0.0-3.0-1.86,"""",key,null,16.673000000000076,762.5,347,"""","""","""","""","""","""","""","""","2021-09-29 01:22:31",173.35.108.254,"Mozilla/5.0 (Windows NT 10.0; Win64; x64; rv:78.0) Gecko/20100101 Firefox/78.0",,Firefox,78.0,Windows,10.0,fe3c1d035a65c549f7011c5446f73ede
11,1,888,arrowleft,psychophysics,180,931664,0.0-3.0-0.87,"""",key,arrowleft,16.673076923076923,762.5,347,88,4,1,24,35,25,35,false,"2021-09-29 01:22:31",173.35.108.254,"Mozilla/5.0 (Windows NT 10.0; Win64; x64; rv:78.0) Gecko/20100101 Firefox/78.0",,Firefox,78.0,Windows,10.0,fe3c1d035a65c549f7011c5446f73ede
11,1,null,null,psychophysics,181,932682,0.0-3.0-1.87,"""",key,null,16.673000000000076,762.5,347,"""","""","""","""","""","""","""","""","2021-09-29 01:22:31",173.35.108.254,"Mozilla/5.0 (Windows NT 10.0; Win64; x64; rv:78.0) Gecko/20100101 Firefox/78.0",,Firefox,78.0,Windows,10.0,fe3c1d035a65c549f7011c5446f73ede
11,1,889,arrowleft,psychophysics,182,933578,0.0-3.0-0.88,"""",key,arrowleft,16.67320754716858,762.5,347,89,4,-1,23,15,25,35,true,"2021-09-29 01:22:31",173.35.108.254,"Mozilla/5.0 (Windows NT 10.0; Win64; x64; rv:78.0) Gecko/20100101 Firefox/78.0",,Firefox,78.0,Windows,10.0,fe3c1d035a65c549f7011c5446f73ede
11,1,null,null,psychophysics,183,934592,0.0-3.0-1.88,"""",key,null,16.673000000000076,762.5,347,"""","""","""","""","""","""","""","""","2021-09-29 01:22:31",173.35.108.254,"Mozilla/5.0 (Windows NT 10.0; Win64; x64; rv:78.0) Gecko/20100101 Firefox/78.0",,Firefox,78.0,Windows,10.0,fe3c1d035a65c549f7011c5446f73ede
11,1,650,arrowleft,psychophysics,184,935244,0.0-3.0-0.89,"""",key,arrowleft,16.673157894735738,762.5,347,90,4,-1,25,15,25,35,true,"2021-09-29 01:22:31",173.35.108.254,"Mozilla/5.0 (Windows NT 10.0; Win64; x64; rv:78.0) Gecko/20100101 Firefox/78.0",,Firefox,78.0,Windows,10.0,fe3c1d035a65c549f7011c5446f73ede
11,1,null,null,psychophysics,185,936253,0.0-3.0-1.89,"""",key,null,16.673000000000076,762.5,347,"""","""","""","""","""","""","""","""","2021-09-29 01:22:31",173.35.108.254,"Mozilla/5.0 (Windows NT 10.0; Win64; x64; rv:78.0) Gecko/20100101 Firefox/78.0",,Firefox,78.0,Windows,10.0,fe3c1d035a65c549f7011c5446f73ede
11,1,797,arrowleft,psychophysics,186,937056,0.0-3.0-0.90,"""",key,arrowleft,16.673191489362,762.5,347,91,4,1,20,15,25,35,false,"2021-09-29 01:22:31",173.35.108.254,"Mozilla/5.0 (Windows NT 10.0; Win64; x64; rv:78.0) Gecko/20100101 Firefox/78.0",,Firefox,78.0,Windows,10.0,fe3c1d035a65c549f7011c5446f73ede
11,1,null,null,psychophysics,187,938082,0.0-3.0-1.90,"""",key,null,16.673000000000076,762.5,347,"""","""","""","""","""","""","""","""","2021-09-29 01:22:31",173.35.108.254,"Mozilla/5.0 (Windows NT 10.0; Win64; x64; rv:78.0) Gecko/20100101 Firefox/78.0",,Firefox,78.0,Windows,10.0,fe3c1d035a65c549f7011c5446f73ede
11,1,1749,arrowleft,psychophysics,188,939841,0.0-3.0-0.91,"""",key,arrowleft,16.67295238095269,762.5,347,92,4,-1,26,35,25,35,true,"2021-09-29 01:22:31",173.35.108.254,"Mozilla/5.0 (Windows NT 10.0; Win64; x64; rv:78.0) Gecko/20100101 Firefox/78.0",,Firefox,78.0,Windows,10.0,fe3c1d035a65c549f7011c5446f73ede
11,1,null,null,psychophysics,189,940842,0.0-3.0-1.91,"""",key,null,16.672881355931413,762.5,347,"""","""","""","""","""","""","""","""","2021-09-29 01:22:31",173.35.108.254,"Mozilla/5.0 (Windows NT 10.0; Win64; x64; rv:78.0) Gecko/20100101 Firefox/78.0",,Firefox,78.0,Windows,10.0,fe3c1d035a65c549f7011c5446f73ede
11,1,964,arrowright,psychophysics,190,941813,0.0-3.0-0.92,"""",key,arrowright,16.672982456140105,762.5,347,93,4,1,24,15,25,35,true,"2021-09-29 01:22:31",173.35.108.254,"Mozilla/5.0 (Windows NT 10.0; Win64; x64; rv:78.0) Gecko/20100101 Firefox/78.0",,Firefox,78.0,Windows,10.0,fe3c1d035a65c549f7011c5446f73ede
11,1,null,null,psychophysics,191,942832,0.0-3.0-1.92,"""",key,null,16.673000000000076,762.5,347,"""","""","""","""","""","""","""","""","2021-09-29 01:22:31",173.35.108.254,"Mozilla/5.0 (Windows NT 10.0; Win64; x64; rv:78.0) Gecko/20100101 Firefox/78.0",,Firefox,78.0,Windows,10.0,fe3c1d035a65c549f7011c5446f73ede
11,1,862,arrowright,psychophysics,192,943698,0.0-3.0-0.93,"""",key,arrowright,16.673333333332693,762.5,347,94,4,-1,20,15,25,35,false,"2021-09-29 01:22:31",173.35.108.254,"Mozilla/5.0 (Windows NT 10.0; Win64; x64; rv:78.0) Gecko/20100101 Firefox/78.0",,Firefox,78.0,Windows,10.0,fe3c1d035a65c549f7011c5446f73ede
11,1,null,null,psychophysics,193,944712,0.0-3.0-1.93,"""",key,null,16.673000000000076,762.5,347,"""","""","""","""","""","""","""","""","2021-09-29 01:22:31",173.35.108.254,"Mozilla/5.0 (Windows NT 10.0; Win64; x64; rv:78.0) Gecko/20100101 Firefox/78.0",,Firefox,78.0,Windows,10.0,fe3c1d035a65c549f7011c5446f73ede
11,1,1314,arrowleft,psychophysics,194,946031,0.0-3.0-0.94,"""",key,arrowleft,16.673076923076923,762.5,347,95,4,1,26,35,25,35,false,"2021-09-29 01:22:31",173.35.108.254,"Mozilla/5.0 (Windows NT 10.0; Win64; x64; rv:78.0) Gecko/20100101 Firefox/78.0",,Firefox,78.0,Windows,10.0,fe3c1d035a65c549f7011c5446f73ede
11,1,null,null,psychophysics,195,947032,0.0-3.0-1.94,"""",key,null,16.673220338982578,762.5,347,"""","""","""","""","""","""","""","""","2021-09-29 01:22:31",173.35.108.254,"Mozilla/5.0 (Windows NT 10.0; Win64; x64; rv:78.0) Gecko/20100101 Firefox/78.0",,Firefox,78.0,Windows,10.0,fe3c1d035a65c549f7011c5446f73ede
11,1,1315,arrowleft,psychophysics,196,948374,0.0-3.0-0.95,"""",key,arrowleft,16.88405063291098,762.5,347,96,4,-1,26,35,25,35,true,"2021-09-29 01:22:31",173.35.108.254,"Mozilla/5.0 (Windows NT 10.0; Win64; x64; rv:78.0) Gecko/20100101 Firefox/78.0",,Firefox,78.0,Windows,10.0,fe3c1d035a65c549f7011c5446f73ede
11,1,null,null,psychophysics,197,949392,0.0-3.0-1.95,"""",key,null,16.673000000000076,762.5,347,"""","""","""","""","""","""","""","""","2021-09-29 01:22:31",173.35.108.254,"Mozilla/5.0 (Windows NT 10.0; Win64; x64; rv:78.0) Gecko/20100101 Firefox/78.0",,Firefox,78.0,Windows,10.0,fe3c1d035a65c549f7011c5446f73ede
11,1,1167,arrowright,psychophysics,198,950570,0.0-3.0-0.96,"""",key,arrowright,16.673043478261746,762.5,347,97,4,-1,23,15,25,35,false,"2021-09-29 01:22:31",173.35.108.254,"Mozilla/5.0 (Windows NT 10.0; Win64; x64; rv:78.0) Gecko/20100101 Firefox/78.0",,Firefox,78.0,Windows,10.0,fe3c1d035a65c549f7011c5446f73ede
11,1,null,null,psychophysics,199,951572,0.0-3.0-1.96,"""",key,null,16.673220338982578,762.5,347,"""","""","""","""","""","""","""","""","2021-09-29 01:22:31",173.35.108.254,"Mozilla/5.0 (Windows NT 10.0; Win64; x64; rv:78.0) Gecko/20100101 Firefox/78.0",,Firefox,78.0,Windows,10.0,fe3c1d035a65c549f7011c5446f73ede
11,1,1488,arrowright,psychophysics,200,953071,0.0-3.0-0.97,"""",key,arrowright,16.67303370786412,762.5,347,98,4,1,25,35,25,35,true,"2021-09-29 01:22:31",173.35.108.254,"Mozilla/5.0 (Windows NT 10.0; Win64; x64; rv:78.0) Gecko/20100101 Firefox/78.0",,Firefox,78.0,Windows,10.0,fe3c1d035a65c549f7011c5446f73ede
11,1,null,null,psychophysics,201,954082,0.0-3.0-1.97,"""",key,null,16.673000000000076,762.5,347,"""","""","""","""","""","""","""","""","2021-09-29 01:22:31",173.35.108.254,"Mozilla/5.0 (Windows NT 10.0; Win64; x64; rv:78.0) Gecko/20100101 Firefox/78.0",,Firefox,78.0,Windows,10.0,fe3c1d035a65c549f7011c5446f73ede
11,1,1719,arrowleft,psychophysics,202,955809,0.0-3.0-0.98,"""",key,arrowleft,16.673009708737368,762.5,347,99,4,-1,25,15,25,35,true,"2021-09-29 01:22:31",173.35.108.254,"Mozilla/5.0 (Windows NT 10.0; Win64; x64; rv:78.0) Gecko/20100101 Firefox/78.0",,Firefox,78.0,Windows,10.0,fe3c1d035a65c549f7011c5446f73ede
11,1,null,null,psychophysics,203,956812,0.0-3.0-1.98,"""",key,null,16.673220338982578,762.5,347,"""","""","""","""","""","""","""","""","2021-09-29 01:22:31",173.35.108.254,"Mozilla/5.0 (Windows NT 10.0; Win64; x64; rv:78.0) Gecko/20100101 Firefox/78.0",,Firefox,78.0,Windows,10.0,fe3c1d035a65c549f7011c5446f73ede
11,1,1043,arrowright,psychophysics,204,957857,0.0-3.0-0.99,"""",key,arrowright,16.67311475409737,762.5,347,100,4,1,24,15,25,35,true,"2021-09-29 01:22:31",173.35.108.254,"Mozilla/5.0 (Windows NT 10.0; Win64; x64; rv:78.0) Gecko/20100101 Firefox/78.0",,Firefox,78.0,Windows,10.0,fe3c1d035a65c549f7011c5446f73ede
11,1,null,null,psychophysics,205,958867,0.0-3.0-1.99,"""",key,null,16.673000000000076,762.5,347,"""","""","""","""","""","""","""","""","2021-09-29 01:22:31",173.35.108.254,"Mozilla/5.0 (Windows NT 10.0; Win64; x64; rv:78.0) Gecko/20100101 Firefox/78.0",,Firefox,78.0,Windows,10.0,fe3c1d035a65c549f7011c5446f73ede
11,1,1093,arrowright,psychophysics,206,959964,0.0-3.0-0.100,"""",key,arrowright,16.673230769230912,762.5,347,101,4,1,26,15,25,35,true,"2021-09-29 01:22:31",173.35.108.254,"Mozilla/5.0 (Windows NT 10.0; Win64; x64; rv:78.0) Gecko/20100101 Firefox/78.0",,Firefox,78.0,Windows,10.0,fe3c1d035a65c549f7011c5446f73ede
11,1,null,null,psychophysics,207,960972,0.0-3.0-1.100,"""",key,null,16.673220338982578,762.5,347,"""","""","""","""","""","""","""","""","2021-09-29 01:22:31",173.35.108.254,"Mozilla/5.0 (Windows NT 10.0; Win64; x64; rv:78.0) Gecko/20100101 Firefox/78.0",,Firefox,78.0,Windows,10.0,fe3c1d035a65c549f7011c5446f73ede
11,1,980,arrowleft,psychophysics,208,961968,0.0-3.0-0.101,"""",key,arrowleft,16.673220338982578,762.5,347,102,4,1,24,35,25,35,false,"2021-09-29 01:22:31",173.35.108.254,"Mozilla/5.0 (Windows NT 10.0; Win64; x64; rv:78.0) Gecko/20100101 Firefox/78.0",,Firefox,78.0,Windows,10.0,fe3c1d035a65c549f7011c5446f73ede
11,1,null,null,psychophysics,209,962972,0.0-3.0-1.101,"""",key,null,16.672881355931413,762.5,347,"""","""","""","""","""","""","""","""","2021-09-29 01:22:31",173.35.108.254,"Mozilla/5.0 (Windows NT 10.0; Win64; x64; rv:78.0) Gecko/20100101 Firefox/78.0",,Firefox,78.0,Windows,10.0,fe3c1d035a65c549f7011c5446f73ede
11,1,938,arrowleft,psychophysics,210,963914,0.0-3.0-0.102,"""",key,arrowleft,16.672857142855978,762.5,347,103,4,-1,30,15,25,35,true,"2021-09-29 01:22:31",173.35.108.254,"Mozilla/5.0 (Windows NT 10.0; Win64; x64; rv:78.0) Gecko/20100101 Firefox/78.0",,Firefox,78.0,Windows,10.0,fe3c1d035a65c549f7011c5446f73ede
11,1,null,null,psychophysics,211,964927,0.0-3.0-1.102,"""",key,null,16.672881355931413,762.5,347,"""","""","""","""","""","""","""","""","2021-09-29 01:22:31",173.35.108.254,"Mozilla/5.0 (Windows NT 10.0; Win64; x64; rv:78.0) Gecko/20100101 Firefox/78.0",,Firefox,78.0,Windows,10.0,fe3c1d035a65c549f7011c5446f73ede
11,1,1980,arrowright,psychophysics,212,966916,0.0-3.0-0.103,"""",key,arrowright,16.672941176470236,762.5,347,104,4,-1,25,15,25,35,false,"2021-09-29 01:22:31",173.35.108.254,"Mozilla/5.0 (Windows NT 10.0; Win64; x64; rv:78.0) Gecko/20100101 Firefox/78.0",,Firefox,78.0,Windows,10.0,fe3c1d035a65c549f7011c5446f73ede
11,1,null,null,psychophysics,213,967922,0.0-3.0-1.103,"""",key,null,16.672881355931413,762.5,347,"""","""","""","""","""","""","""","""","2021-09-29 01:22:31",173.35.108.254,"Mozilla/5.0 (Windows NT 10.0; Win64; x64; rv:78.0) Gecko/20100101 Firefox/78.0",,Firefox,78.0,Windows,10.0,fe3c1d035a65c549f7011c5446f73ede
11,1,2386,arrowright,psychophysics,214,970312,0.0-3.0-0.104,"""",key,arrowright,16.672957746478446,762.5,347,105,4,-1,25,15,25,35,false,"2021-09-29 01:22:31",173.35.108.254,"Mozilla/5.0 (Windows NT 10.0; Win64; x64; rv:78.0) Gecko/20100101 Firefox/78.0",,Firefox,78.0,Windows,10.0,fe3c1d035a65c549f7011c5446f73ede
11,1,null,null,psychophysics,215,971322,0.0-3.0-1.104,"""",key,null,16.673000000000076,762.5,347,"""","""","""","""","""","""","""","""","2021-09-29 01:22:31",173.35.108.254,"Mozilla/5.0 (Windows NT 10.0; Win64; x64; rv:78.0) Gecko/20100101 Firefox/78.0",,Firefox,78.0,Windows,10.0,fe3c1d035a65c549f7011c5446f73ede
11,1,1721,arrowright,psychophysics,216,973051,0.0-3.0-0.105,"""",key,arrowright,16.673009708738498,762.5,347,106,4,-1,25,35,25,35,false,"2021-09-29 01:22:31",173.35.108.254,"Mozilla/5.0 (Windows NT 10.0; Win64; x64; rv:78.0) Gecko/20100101 Firefox/78.0",,Firefox,78.0,Windows,10.0,fe3c1d035a65c549f7011c5446f73ede
11,1,null,null,psychophysics,217,974072,0.0-3.0-1.105,"""",key,null,16.673000000000076,762.5,347,"""","""","""","""","""","""","""","""","2021-09-29 01:22:31",173.35.108.254,"Mozilla/5.0 (Windows NT 10.0; Win64; x64; rv:78.0) Gecko/20100101 Firefox/78.0",,Firefox,78.0,Windows,10.0,fe3c1d035a65c549f7011c5446f73ede
11,1,1262,arrowleft,psychophysics,218,975339,0.0-3.0-0.106,"""",key,arrowleft,16.67306666666642,762.5,347,107,4,-1,25,35,25,35,true,"2021-09-29 01:22:31",173.35.108.254,"Mozilla/5.0 (Windows NT 10.0; Win64; x64; rv:78.0) Gecko/20100101 Firefox/78.0",,Firefox,78.0,Windows,10.0,fe3c1d035a65c549f7011c5446f73ede
11,1,null,null,psychophysics,219,976342,0.0-3.0-1.106,"""",key,null,16.673220338982578,762.5,347,"""","""","""","""","""","""","""","""","2021-09-29 01:22:31",173.35.108.254,"Mozilla/5.0 (Windows NT 10.0; Win64; x64; rv:78.0) Gecko/20100101 Firefox/78.0",,Firefox,78.0,Windows,10.0,fe3c1d035a65c549f7011c5446f73ede
11,1,928,arrowright,psychophysics,220,977273,0.0-3.0-0.107,"""",key,arrowright,16.673090909091247,762.5,347,108,4,1,27,15,25,35,true,"2021-09-29 01:22:31",173.35.108.254,"Mozilla/5.0 (Windows NT 10.0; Win64; x64; rv:78.0) Gecko/20100101 Firefox/78.0",,Firefox,78.0,Windows,10.0,fe3c1d035a65c549f7011c5446f73ede
11,1,null,null,psychophysics,221,978282,0.0-3.0-1.107,"""",key,null,16.672881355933388,762.5,347,"""","""","""","""","""","""","""","""","2021-09-29 01:22:31",173.35.108.254,"Mozilla/5.0 (Windows NT 10.0; Win64; x64; rv:78.0) Gecko/20100101 Firefox/78.0",,Firefox,78.0,Windows,10.0,fe3c1d035a65c549f7011c5446f73ede
11,1,1331,arrowright,psychophysics,222,979625,0.0-3.0-0.108,"""",key,arrowright,16.672999999999593,762.5,347,109,4,-1,20,15,25,35,false,"2021-09-29 01:22:31",173.35.108.254,"Mozilla/5.0 (Windows NT 10.0; Win64; x64; rv:78.0) Gecko/20100101 Firefox/78.0",,Firefox,78.0,Windows,10.0,fe3c1d035a65c549f7011c5446f73ede
11,1,null,null,psychophysics,223,980632,0.0-3.0-1.108,"""",key,null,16.672881355931413,762.5,347,"""","""","""","""","""","""","""","""","2021-09-29 01:22:31",173.35.108.254,"Mozilla/5.0 (Windows NT 10.0; Win64; x64; rv:78.0) Gecko/20100101 Firefox/78.0",,Firefox,78.0,Windows,10.0,fe3c1d035a65c549f7011c5446f73ede
11,1,2827,arrowright,psychophysics,224,983472,0.0-3.0-0.109,"""",key,arrowright,16.672941176470726,762.5,347,110,4,-1,24,15,25,35,false,"2021-09-29 01:22:31",173.35.108.254,"Mozilla/5.0 (Windows NT 10.0; Win64; x64; rv:78.0) Gecko/20100101 Firefox/78.0",,Firefox,78.0,Windows,10.0,fe3c1d035a65c549f7011c5446f73ede
11,1,null,null,psychophysics,225,984482,0.0-3.0-1.109,"""",key,null,16.672881355933388,762.5,347,"""","""","""","""","""","""","""","""","2021-09-29 01:22:31",173.35.108.254,"Mozilla/5.0 (Windows NT 10.0; Win64; x64; rv:78.0) Gecko/20100101 Firefox/78.0",,Firefox,78.0,Windows,10.0,fe3c1d035a65c549f7011c5446f73ede
11,1,2897,arrowright,psychophysics,226,987380,0.0-3.0-0.110,"""",key,arrowright,16.673063583815377,762.5,347,111,4,1,26,15,25,35,true,"2021-09-29 01:22:31",173.35.108.254,"Mozilla/5.0 (Windows NT 10.0; Win64; x64; rv:78.0) Gecko/20100101 Firefox/78.0",,Firefox,78.0,Windows,10.0,fe3c1d035a65c549f7011c5446f73ede
11,1,null,null,psychophysics,227,988392,0.0-3.0-1.110,"""",key,null,16.672999999998137,762.5,347,"""","""","""","""","""","""","""","""","2021-09-29 01:22:31",173.35.108.254,"Mozilla/5.0 (Windows NT 10.0; Win64; x64; rv:78.0) Gecko/20100101 Firefox/78.0",,Firefox,78.0,Windows,10.0,fe3c1d035a65c549f7011c5446f73ede
11,1,3218,arrowright,psychophysics,228,991616,0.0-3.0-0.111,"""",key,arrowright,16.673020833333187,762.5,347,112,5,-1,24,35,25,35,false,"2021-09-29 01:22:31",173.35.108.254,"Mozilla/5.0 (Windows NT 10.0; Win64; x64; rv:78.0) Gecko/20100101 Firefox/78.0",,Firefox,78.0,Windows,10.0,fe3c1d035a65c549f7011c5446f73ede
11,1,null,null,psychophysics,229,992622,0.0-3.0-1.111,"""",key,null,16.672881355931413,762.5,347,"""","""","""","""","""","""","""","""","2021-09-29 01:22:31",173.35.108.254,"Mozilla/5.0 (Windows NT 10.0; Win64; x64; rv:78.0) Gecko/20100101 Firefox/78.0",,Firefox,78.0,Windows,10.0,fe3c1d035a65c549f7011c5446f73ede
11,1,1963,arrowright,html-keyboard-response,230,994586,0.0-3.0-2.111-0.111,"<div style=""color: white; text-align: center; vertical-align: top; display: inline-block; width: 800px; margin: auto""><p>You have completed 40% of the trials. You are on block 5 of 10. <br>Good job! Take a break if you need to.</p><p>Press any key to continue the experiment.</p></div>","""","""","""","""","""","""","""","""","""","""","""","""","""","2021-09-29 01:22:31",173.35.108.254,"Mozilla/5.0 (Windows NT 10.0; Win64; x64; rv:78.0) Gecko/20100101 Firefox/78.0",,Firefox,78.0,Windows,10.0,fe3c1d035a65c549f7011c5446f73ede
11,1,1441,arrowleft,psychophysics,231,997046,0.0-3.0-0.112,"""",key,arrowleft,16.672558139534505,762.5,347,113,5,-1,24,15,25,35,true,"2021-09-29 01:22:31",173.35.108.254,"Mozilla/5.0 (Windows NT 10.0; Win64; x64; rv:78.0) Gecko/20100101 Firefox/78.0",,Firefox,78.0,Windows,10.0,fe3c1d035a65c549f7011c5446f73ede
11,1,null,null,psychophysics,232,998062,0.0-3.0-1.112,"""",key,null,16.673000000000076,762.5,347,"""","""","""","""","""","""","""","""","2021-09-29 01:22:31",173.35.108.254,"Mozilla/5.0 (Windows NT 10.0; Win64; x64; rv:78.0) Gecko/20100101 Firefox/78.0",,Firefox,78.0,Windows,10.0,fe3c1d035a65c549f7011c5446f73ede
11,1,922,arrowright,psychophysics,233,998988,0.0-3.0-0.113,"""",key,arrowright,16.67296296296236,762.5,347,114,5,-1,23,35,25,35,false,"2021-09-29 01:22:31",173.35.108.254,"Mozilla/5.0 (Windows NT 10.0; Win64; x64; rv:78.0) Gecko/20100101 Firefox/78.0",,Firefox,78.0,Windows,10.0,fe3c1d035a65c549f7011c5446f73ede
11,1,null,null,psychophysics,234,1000002,0.0-3.0-1.113,"""",key,null,16.672999999998137,762.5,347,"""","""","""","""","""","""","""","""","2021-09-29 01:22:31",173.35.108.254,"Mozilla/5.0 (Windows NT 10.0; Win64; x64; rv:78.0) Gecko/20100101 Firefox/78.0",,Firefox,78.0,Windows,10.0,fe3c1d035a65c549f7011c5446f73ede
11,1,912,arrowright,psychophysics,235,1000917,0.0-3.0-0.114,"""",key,arrowright,16.67296296296236,762.5,347,115,5,-1,27,35,25,35,false,"2021-09-29 01:22:31",173.35.108.254,"Mozilla/5.0 (Windows NT 10.0; Win64; x64; rv:78.0) Gecko/20100101 Firefox/78.0",,Firefox,78.0,Windows,10.0,fe3c1d035a65c549f7011c5446f73ede
11,1,null,null,psychophysics,236,1001931,0.0-3.0-1.114,"""",key,null,16.673000000000076,762.5,347,"""","""","""","""","""","""","""","""","2021-09-29 01:22:31",173.35.108.254,"Mozilla/5.0 (Windows NT 10.0; Win64; x64; rv:78.0) Gecko/20100101 Firefox/78.0",,Firefox,78.0,Windows,10.0,fe3c1d035a65c549f7011c5446f73ede
11,1,928,arrowright,psychophysics,237,1002861,0.0-3.0-0.115,"""",key,arrowright,16.67309090908913,762.5,347,116,5,-1,20,15,25,35,false,"2021-09-29 01:22:31",173.35.108.254,"Mozilla/5.0 (Windows NT 10.0; Win64; x64; rv:78.0) Gecko/20100101 Firefox/78.0",,Firefox,78.0,Windows,10.0,fe3c1d035a65c549f7011c5446f73ede
11,1,null,null,psychophysics,238,1003872,0.0-3.0-1.115,"""",key,null,16.672881355931413,762.5,347,"""","""","""","""","""","""","""","""","2021-09-29 01:22:31",173.35.108.254,"Mozilla/5.0 (Windows NT 10.0; Win64; x64; rv:78.0) Gecko/20100101 Firefox/78.0",,Firefox,78.0,Windows,10.0,fe3c1d035a65c549f7011c5446f73ede
11,1,798,arrowright,psychophysics,239,1004683,0.0-3.0-0.116,"""",key,arrowright,16.672916666667636,762.5,347,117,5,-1,25,35,25,35,false,"2021-09-29 01:22:31",173.35.108.254,"Mozilla/5.0 (Windows NT 10.0; Win64; x64; rv:78.0) Gecko/20100101 Firefox/78.0",,Firefox,78.0,Windows,10.0,fe3c1d035a65c549f7011c5446f73ede
11,1,null,null,psychophysics,240,1005693,0.0-3.0-1.116,"""",key,null,16.672881355931413,762.5,347,"""","""","""","""","""","""","""","""","2021-09-29 01:22:31",173.35.108.254,"Mozilla/5.0 (Windows NT 10.0; Win64; x64; rv:78.0) Gecko/20100101 Firefox/78.0",,Firefox,78.0,Windows,10.0,fe3c1d035a65c549f7011c5446f73ede
11,1,709,arrowright,psychophysics,241,1006415,0.0-3.0-0.117,"""",key,arrowright,16.673023255815362,762.5,347,118,5,1,30,35,25,35,true,"2021-09-29 01:22:31",173.35.108.254,"Mozilla/5.0 (Windows NT 10.0; Win64; x64; rv:78.0) Gecko/20100101 Firefox/78.0",,Firefox,78.0,Windows,10.0,fe3c1d035a65c549f7011c5446f73ede
11,1,null,null,psychophysics,242,1007433,0.0-3.0-1.117,"""",key,null,16.673000000000076,762.5,347,"""","""","""","""","""","""","""","""","2021-09-29 01:22:31",173.35.108.254,"Mozilla/5.0 (Windows NT 10.0; Win64; x64; rv:78.0) Gecko/20100101 Firefox/78.0",,Firefox,78.0,Windows,10.0,fe3c1d035a65c549f7011c5446f73ede
11,1,948,arrowleft,psychophysics,243,1008386,0.0-3.0-0.118,"""",key,arrowleft,16.672857142855978,762.5,347,119,5,1,25,15,25,35,false,"2021-09-29 01:22:31",173.35.108.254,"Mozilla/5.0 (Windows NT 10.0; Win64; x64; rv:78.0) Gecko/20100101 Firefox/78.0",,Firefox,78.0,Windows,10.0,fe3c1d035a65c549f7011c5446f73ede
11,1,null,null,psychophysics,244,1009392,0.0-3.0-1.118,"""",key,null,16.672881355931413,762.5,347,"""","""","""","""","""","""","""","""","2021-09-29 01:22:31",173.35.108.254,"Mozilla/5.0 (Windows NT 10.0; Win64; x64; rv:78.0) Gecko/20100101 Firefox/78.0",,Firefox,78.0,Windows,10.0,fe3c1d035a65c549f7011c5446f73ede
11,1,867,arrowleft,psychophysics,245,1010280,0.0-3.0-0.119,"""",key,arrowleft,16.9938461538449,762.5,347,120,5,1,23,15,25,35,false,"2021-09-29 01:22:31",173.35.108.254,"Mozilla/5.0 (Windows NT 10.0; Win64; x64; rv:78.0) Gecko/20100101 Firefox/78.0",,Firefox,78.0,Windows,10.0,fe3c1d035a65c549f7011c5446f73ede
11,1,null,null,psychophysics,246,1011291,0.0-3.0-1.119,"""",key,null,16.673220338982578,762.5,347,"""","""","""","""","""","""","""","""","2021-09-29 01:22:31",173.35.108.254,"Mozilla/5.0 (Windows NT 10.0; Win64; x64; rv:78.0) Gecko/20100101 Firefox/78.0",,Firefox,78.0,Windows,10.0,fe3c1d035a65c549f7011c5446f73ede
11,1,1051,arrowleft,psychophysics,247,1012346,0.0-3.0-0.120,"""",key,arrowleft,16.673225806451462,762.5,347,121,5,-1,27,35,25,35,true,"2021-09-29 01:22:31",173.35.108.254,"Mozilla/5.0 (Windows NT 10.0; Win64; x64; rv:78.0) Gecko/20100101 Firefox/78.0",,Firefox,78.0,Windows,10.0,fe3c1d035a65c549f7011c5446f73ede
11,1,null,null,psychophysics,248,1013352,0.0-3.0-1.120,"""",key,null,16.673000000000076,762.5,347,"""","""","""","""","""","""","""","""","2021-09-29 01:22:31",173.35.108.254,"Mozilla/5.0 (Windows NT 10.0; Win64; x64; rv:78.0) Gecko/20100101 Firefox/78.0",,Firefox,78.0,Windows,10.0,fe3c1d035a65c549f7011c5446f73ede
11,1,1054,arrowleft,psychophysics,249,1014409,0.0-3.0-0.121,"""",key,arrowleft,16.67290322580788,762.5,347,122,5,1,20,35,25,35,false,"2021-09-29 01:22:31",173.35.108.254,"Mozilla/5.0 (Windows NT 10.0; Win64; x64; rv:78.0) Gecko/20100101 Firefox/78.0",,Firefox,78.0,Windows,10.0,fe3c1d035a65c549f7011c5446f73ede
11,1,null,null,psychophysics,250,1015412,0.0-3.0-1.121,"""",key,null,16.672881355933388,762.5,347,"""","""","""","""","""","""","""","""","2021-09-29 01:22:31",173.35.108.254,"Mozilla/5.0 (Windows NT 10.0; Win64; x64; rv:78.0) Gecko/20100101 Firefox/78.0",,Firefox,78.0,Windows,10.0,fe3c1d035a65c549f7011c5446f73ede
11,1,1098,arrowleft,psychophysics,251,1016521,0.0-3.0-0.122,"""",key,arrowleft,16.673030303030938,762.5,347,123,5,-1,26,15,25,35,true,"2021-09-29 01:22:31",173.35.108.254,"Mozilla/5.0 (Windows NT 10.0; Win64; x64; rv:78.0) Gecko/20100101 Firefox/78.0",,Firefox,78.0,Windows,10.0,fe3c1d035a65c549f7011c5446f73ede
11,1,null,null,psychophysics,252,1017542,0.0-3.0-1.122,"""",key,null,16.673000000000076,762.5,347,"""","""","""","""","""","""","""","""","2021-09-29 01:22:31",173.35.108.254,"Mozilla/5.0 (Windows NT 10.0; Win64; x64; rv:78.0) Gecko/20100101 Firefox/78.0",,Firefox,78.0,Windows,10.0,fe3c1d035a65c549f7011c5446f73ede
11,1,958,arrowright,psychophysics,253,1018504,0.0-3.0-0.123,"""",key,arrowright,16.672982456140105,762.5,347,124,5,1,27,35,25,35,true,"2021-09-29 01:22:31",173.35.108.254,"Mozilla/5.0 (Windows NT 10.0; Win64; x64; rv:78.0) Gecko/20100101 Firefox/78.0",,Firefox,78.0,Windows,10.0,fe3c1d035a65c549f7011c5446f73ede
11,1,null,null,psychophysics,254,1019512,0.0-3.0-1.123,"""",key,null,16.673220338982578,762.5,347,"""","""","""","""","""","""","""","""","2021-09-29 01:22:31",173.35.108.254,"Mozilla/5.0 (Windows NT 10.0; Win64; x64; rv:78.0) Gecko/20100101 Firefox/78.0",,Firefox,78.0,Windows,10.0,fe3c1d035a65c549f7011c5446f73ede
11,1,1033,arrowright,psychophysics,255,1020559,0.0-3.0-0.124,"""",key,arrowright,16.673225806451462,762.5,347,125,5,-1,24,35,25,35,false,"2021-09-29 01:22:31",173.35.108.254,"Mozilla/5.0 (Windows NT 10.0; Win64; x64; rv:78.0) Gecko/20100101 Firefox/78.0",,Firefox,78.0,Windows,10.0,fe3c1d035a65c549f7011c5446f73ede
11,1,null,null,psychophysics,256,1021582,0.0-3.0-1.124,"""",key,null,16.673000000000076,762.5,347,"""","""","""","""","""","""","""","""","2021-09-29 01:22:31",173.35.108.254,"Mozilla/5.0 (Windows NT 10.0; Win64; x64; rv:78.0) Gecko/20100101 Firefox/78.0",,Firefox,78.0,Windows,10.0,fe3c1d035a65c549f7011c5446f73ede
11,1,772,arrowright,psychophysics,257,1022376,0.0-3.0-0.125,"""",key,arrowright,17.035217391304247,762.5,347,126,5,-1,23,35,25,35,false,"2021-09-29 01:22:31",173.35.108.254,"Mozilla/5.0 (Windows NT 10.0; Win64; x64; rv:78.0) Gecko/20100101 Firefox/78.0",,Firefox,78.0,Windows,10.0,fe3c1d035a65c549f7011c5446f73ede
11,1,null,null,psychophysics,258,1023382,0.0-3.0-1.125,"""",key,null,16.672881355931413,762.5,347,"""","""","""","""","""","""","""","""","2021-09-29 01:22:31",173.35.108.254,"Mozilla/5.0 (Windows NT 10.0; Win64; x64; rv:78.0) Gecko/20100101 Firefox/78.0",,Firefox,78.0,Windows,10.0,fe3c1d035a65c549f7011c5446f73ede
11,1,952,arrowleft,psychophysics,259,1024348,0.0-3.0-0.126,"""",key,arrowleft,16.672982456140105,762.5,347,127,5,-1,30,35,25,35,true,"2021-09-29 01:22:31",173.35.108.254,"Mozilla/5.0 (Windows NT 10.0; Win64; x64; rv:78.0) Gecko/20100101 Firefox/78.0",,Firefox,78.0,Windows,10.0,fe3c1d035a65c549f7011c5446f73ede
11,1,null,null,psychophysics,260,1025352,0.0-3.0-1.126,"""",key,null,16.673000000000076,762.5,347,"""","""","""","""","""","""","""","""","2021-09-29 01:22:31",173.35.108.254,"Mozilla/5.0 (Windows NT 10.0; Win64; x64; rv:78.0) Gecko/20100101 Firefox/78.0",,Firefox,78.0,Windows,10.0,fe3c1d035a65c549f7011c5446f73ede
11,1,1071,arrowright,psychophysics,261,1026425,0.0-3.0-0.127,"""",key,arrowright,16.673015873016244,762.5,347,128,5,-1,20,35,25,35,false,"2021-09-29 01:22:31",173.35.108.254,"Mozilla/5.0 (Windows NT 10.0; Win64; x64; rv:78.0) Gecko/20100101 Firefox/78.0",,Firefox,78.0,Windows,10.0,fe3c1d035a65c549f7011c5446f73ede
11,1,null,null,psychophysics,262,1027432,0.0-3.0-1.127,"""",key,null,16.67322033898455,762.5,347,"""","""","""","""","""","""","""","""","2021-09-29 01:22:31",173.35.108.254,"Mozilla/5.0 (Windows NT 10.0; Win64; x64; rv:78.0) Gecko/20100101 Firefox/78.0",,Firefox,78.0,Windows,10.0,fe3c1d035a65c549f7011c5446f73ede
11,1,2620,arrowleft,psychophysics,263,1030062,0.0-3.0-0.128,"""",key,arrowleft,16.672993630573455,762.5,347,129,5,1,24,15,25,35,false,"2021-09-29 01:22:31",173.35.108.254,"Mozilla/5.0 (Windows NT 10.0; Win64; x64; rv:78.0) Gecko/20100101 Firefox/78.0",,Firefox,78.0,Windows,10.0,fe3c1d035a65c549f7011c5446f73ede
11,1,null,null,psychophysics,264,1031072,0.0-3.0-1.128,"""",key,null,16.672999999998137,762.5,347,"""","""","""","""","""","""","""","""","2021-09-29 01:22:31",173.35.108.254,"Mozilla/5.0 (Windows NT 10.0; Win64; x64; rv:78.0) Gecko/20100101 Firefox/78.0",,Firefox,78.0,Windows,10.0,fe3c1d035a65c549f7011c5446f73ede
11,1,994,arrowleft,psychophysics,265,1032068,0.0-3.0-0.129,"""",key,arrowleft,16.673103448276503,762.5,347,130,5,-1,27,15,25,35,true,"2021-09-29 01:22:31",173.35.108.254,"Mozilla/5.0 (Windows NT 10.0; Win64; x64; rv:78.0) Gecko/20100101 Firefox/78.0",,Firefox,78.0,Windows,10.0,fe3c1d035a65c549f7011c5446f73ede
11,1,null,null,psychophysics,266,1033082,0.0-3.0-1.129,"""",key,null,16.673000000000076,762.5,347,"""","""","""","""","""","""","""","""","2021-09-29 01:22:31",173.35.108.254,"Mozilla/5.0 (Windows NT 10.0; Win64; x64; rv:78.0) Gecko/20100101 Firefox/78.0",,Firefox,78.0,Windows,10.0,fe3c1d035a65c549f7011c5446f73ede
11,1,1481,arrowleft,psychophysics,267,1034584,0.0-3.0-0.130,"""",key,arrowleft,16.862500000000264,762.5,347,131,5,-1,27,35,25,35,true,"2021-09-29 01:22:31",173.35.108.254,"Mozilla/5.0 (Windows NT 10.0; Win64; x64; rv:78.0) Gecko/20100101 Firefox/78.0",,Firefox,78.0,Windows,10.0,fe3c1d035a65c549f7011c5446f73ede
11,1,null,null,psychophysics,268,1035602,0.0-3.0-1.130,"""",key,null,16.673333333333723,762.5,347,"""","""","""","""","""","""","""","""","2021-09-29 01:22:31",173.35.108.254,"Mozilla/5.0 (Windows NT 10.0; Win64; x64; rv:78.0) Gecko/20100101 Firefox/78.0",,Firefox,78.0,Windows,10.0,fe3c1d035a65c549f7011c5446f73ede
11,1,1635,arrowright,psychophysics,269,1037246,0.0-3.0-0.131,"""",key,arrowright,16.673061224489416,762.5,347,132,5,1,30,35,25,35,true,"2021-09-29 01:22:31",173.35.108.254,"Mozilla/5.0 (Windows NT 10.0; Win64; x64; rv:78.0) Gecko/20100101 Firefox/78.0",,Firefox,78.0,Windows,10.0,fe3c1d035a65c549f7011c5446f73ede
11,1,null,null,psychophysics,270,1038262,0.0-3.0-1.131,"""",key,null,16.673000000000076,762.5,347,"""","""","""","""","""","""","""","""","2021-09-29 01:22:31",173.35.108.254,"Mozilla/5.0 (Windows NT 10.0; Win64; x64; rv:78.0) Gecko/20100101 Firefox/78.0",,Firefox,78.0,Windows,10.0,fe3c1d035a65c549f7011c5446f73ede
11,1,1736,arrowright,psychophysics,271,1040001,0.0-3.0-0.132,"""",key,arrowright,16.673009708737368,762.5,347,133,5,-1,23,15,25,35,false,"2021-09-29 01:22:31",173.35.108.254,"Mozilla/5.0 (Windows NT 10.0; Win64; x64; rv:78.0) Gecko/20100101 Firefox/78.0",,Firefox,78.0,Windows,10.0,fe3c1d035a65c549f7011c5446f73ede
11,1,null,null,psychophysics,272,1041012,0.0-3.0-1.132,"""",key,null,16.673000000000076,762.5,347,"""","""","""","""","""","""","""","""","2021-09-29 01:22:31",173.35.108.254,"Mozilla/5.0 (Windows NT 10.0; Win64; x64; rv:78.0) Gecko/20100101 Firefox/78.0",,Firefox,78.0,Windows,10.0,fe3c1d035a65c549f7011c5446f73ede
11,1,1166,arrowleft,psychophysics,273,1042182,0.0-3.0-0.133,"""",key,arrowleft,16.673043478261746,762.5,347,134,5,1,20,35,25,35,false,"2021-09-29 01:22:31",173.35.108.254,"Mozilla/5.0 (Windows NT 10.0; Win64; x64; rv:78.0) Gecko/20100101 Firefox/78.0",,Firefox,78.0,Windows,10.0,fe3c1d035a65c549f7011c5446f73ede
11,1,null,null,psychophysics,274,1043194,0.0-3.0-1.133,"""",key,null,16.673000000000076,762.5,347,"""","""","""","""","""","""","""","""","2021-09-29 01:22:31",173.35.108.254,"Mozilla/5.0 (Windows NT 10.0; Win64; x64; rv:78.0) Gecko/20100101 Firefox/78.0",,Firefox,78.0,Windows,10.0,fe3c1d035a65c549f7011c5446f73ede
11,1,879,arrowright,psychophysics,275,1044076,0.0-3.0-0.134,"""",key,arrowright,16.673076923076923,762.5,347,135,5,-1,20,15,25,35,false,"2021-09-29 01:22:31",173.35.108.254,"Mozilla/5.0 (Windows NT 10.0; Win64; x64; rv:78.0) Gecko/20100101 Firefox/78.0",,Firefox,78.0,Windows,10.0,fe3c1d035a65c549f7011c5446f73ede
11,1,null,null,psychophysics,276,1045082,0.0-3.0-1.134,"""",key,null,16.673220338982578,762.5,347,"""","""","""","""","""","""","""","""","2021-09-29 01:22:31",173.35.108.254,"Mozilla/5.0 (Windows NT 10.0; Win64; x64; rv:78.0) Gecko/20100101 Firefox/78.0",,Firefox,78.0,Windows,10.0,fe3c1d035a65c549f7011c5446f73ede
11,1,1921,arrowright,psychophysics,277,1047006,0.0-3.0-0.135,"""",key,arrowright,16.67315789473676,762.5,347,136,5,1,24,15,25,35,true,"2021-09-29 01:22:31",173.35.108.254,"Mozilla/5.0 (Windows NT 10.0; Win64; x64; rv:78.0) Gecko/20100101 Firefox/78.0",,Firefox,78.0,Windows,10.0,fe3c1d035a65c549f7011c5446f73ede
11,1,null,null,psychophysics,278,1048022,0.0-3.0-1.135,"""",key,null,16.672999999998137,762.5,347,"""","""","""","""","""","""","""","""","2021-09-29 01:22:31",173.35.108.254,"Mozilla/5.0 (Windows NT 10.0; Win64; x64; rv:78.0) Gecko/20100101 Firefox/78.0",,Firefox,78.0,Windows,10.0,fe3c1d035a65c549f7011c5446f73ede
11,1,1639,arrowright,psychophysics,279,1049664,0.0-3.0-0.136,"""",key,arrowright,16.673061224491793,762.5,347,137,5,-1,24,35,25,35,false,"2021-09-29 01:22:31",173.35.108.254,"Mozilla/5.0 (Windows NT 10.0; Win64; x64; rv:78.0) Gecko/20100101 Firefox/78.0",,Firefox,78.0,Windows,10.0,fe3c1d035a65c549f7011c5446f73ede
11,1,null,null,psychophysics,280,1050672,0.0-3.0-1.136,"""",key,null,16.673220338982578,762.5,347,"""","""","""","""","""","""","""","""","2021-09-29 01:22:31",173.35.108.254,"Mozilla/5.0 (Windows NT 10.0; Win64; x64; rv:78.0) Gecko/20100101 Firefox/78.0",,Firefox,78.0,Windows,10.0,fe3c1d035a65c549f7011c5446f73ede
11,1,2258,arrowright,psychophysics,281,1052942,0.0-3.0-0.137,"""",key,arrowright,16.673037037037798,762.5,347,138,5,1,25,15,25,35,true,"2021-09-29 01:22:31",173.35.108.254,"Mozilla/5.0 (Windows NT 10.0; Win64; x64; rv:78.0) Gecko/20100101 Firefox/78.0",,Firefox,78.0,Windows,10.0,fe3c1d035a65c549f7011c5446f73ede
11,1,null,null,psychophysics,282,1053962,0.0-3.0-1.137,"""",key,null,16.673000000002016,762.5,347,"""","""","""","""","""","""","""","""","2021-09-29 01:22:31",173.35.108.254,"Mozilla/5.0 (Windows NT 10.0; Win64; x64; rv:78.0) Gecko/20100101 Firefox/78.0",,Firefox,78.0,Windows,10.0,fe3c1d035a65c549f7011c5446f73ede
11,1,769,arrowright,psychophysics,283,1054736,0.0-3.0-0.138,"""",key,arrowright,16.67304347826006,762.5,347,139,5,-1,20,35,25,35,false,"2021-09-29 01:22:31",173.35.108.254,"Mozilla/5.0 (Windows NT 10.0; Win64; x64; rv:78.0) Gecko/20100101 Firefox/78.0",,Firefox,78.0,Windows,10.0,fe3c1d035a65c549f7011c5446f73ede
11,1,null,null,psychophysics,284,1055752,0.0-3.0-1.138,"""",key,null,16.672999999998137,762.5,347,"""","""","""","""","""","""","""","""","2021-09-29 01:22:31",173.35.108.254,"Mozilla/5.0 (Windows NT 10.0; Win64; x64; rv:78.0) Gecko/20100101 Firefox/78.0",,Firefox,78.0,Windows,10.0,fe3c1d035a65c549f7011c5446f73ede
11,1,1034,arrowleft,psychophysics,285,1056791,0.0-3.0-0.139,"""",key,arrowleft,16.673114754099277,762.5,347,140,6,-1,26,15,25,35,true,"2021-09-29 01:22:31",173.35.108.254,"Mozilla/5.0 (Windows NT 10.0; Win64; x64; rv:78.0) Gecko/20100101 Firefox/78.0",,Firefox,78.0,Windows,10.0,fe3c1d035a65c549f7011c5446f73ede
11,1,null,null,psychophysics,286,1057791,0.0-3.0-1.139,"""",key,null,16.673220338986525,762.5,347,"""","""","""","""","""","""","""","""","2021-09-29 01:22:31",173.35.108.254,"Mozilla/5.0 (Windows NT 10.0; Win64; x64; rv:78.0) Gecko/20100101 Firefox/78.0",,Firefox,78.0,Windows,10.0,fe3c1d035a65c549f7011c5446f73ede
11,1,2216,arrowright,html-keyboard-response,287,1060010,0.0-3.0-2.139-0.139,"<div style=""color: white; text-align: center; vertical-align: top; display: inline-block; width: 800px; margin: auto""><p>You have completed 50% of the trials. You are on block 6 of 10. <br>Good job! Take a break if you need to.</p><p>Press any key to continue the experiment.</p></div>","""","""","""","""","""","""","""","""","""","""","""","""","""","2021-09-29 01:22:31",173.35.108.254,"Mozilla/5.0 (Windows NT 10.0; Win64; x64; rv:78.0) Gecko/20100101 Firefox/78.0",,Firefox,78.0,Windows,10.0,fe3c1d035a65c549f7011c5446f73ede
11,1,5985,arrowright,psychophysics,288,1067014,0.0-3.0-0.140,"""",key,arrowright,16.672178770949433,762.5,347,141,6,-1,20,15,25,35,false,"2021-09-29 01:22:31",173.35.108.254,"Mozilla/5.0 (Windows NT 10.0; Win64; x64; rv:78.0) Gecko/20100101 Firefox/78.0",,Firefox,78.0,Windows,10.0,fe3c1d035a65c549f7011c5446f73ede
11,1,null,null,psychophysics,289,1068031,0.0-3.0-1.140,"""",key,null,16.673000000002016,762.5,347,"""","""","""","""","""","""","""","""","2021-09-29 01:22:31",173.35.108.254,"Mozilla/5.0 (Windows NT 10.0; Win64; x64; rv:78.0) Gecko/20100101 Firefox/78.0",,Firefox,78.0,Windows,10.0,fe3c1d035a65c549f7011c5446f73ede
11,1,950,arrowleft,psychophysics,290,1068994,0.0-3.0-0.141,"""",key,arrowleft,16.672982456142147,762.5,347,142,6,-1,30,15,25,35,true,"2021-09-29 01:22:31",173.35.108.254,"Mozilla/5.0 (Windows NT 10.0; Win64; x64; rv:78.0) Gecko/20100101 Firefox/78.0",,Firefox,78.0,Windows,10.0,fe3c1d035a65c549f7011c5446f73ede
11,1,null,null,psychophysics,291,1070012,0.0-3.0-1.141,"""",key,null,16.672999999998137,762.5,347,"""","""","""","""","""","""","""","""","2021-09-29 01:22:31",173.35.108.254,"Mozilla/5.0 (Windows NT 10.0; Win64; x64; rv:78.0) Gecko/20100101 Firefox/78.0",,Firefox,78.0,Windows,10.0,fe3c1d035a65c549f7011c5446f73ede
11,1,839,arrowright,psychophysics,292,1070854,0.0-3.0-0.142,"""",key,arrowright,16.673199999998324,762.5,347,143,6,1,27,35,25,35,true,"2021-09-29 01:22:31",173.35.108.254,"Mozilla/5.0 (Windows NT 10.0; Win64; x64; rv:78.0) Gecko/20100101 Firefox/78.0",,Firefox,78.0,Windows,10.0,fe3c1d035a65c549f7011c5446f73ede
11,1,null,null,psychophysics,293,1071855,0.0-3.0-1.142,"""",key,null,16.673220338986525,762.5,347,"""","""","""","""","""","""","""","""","2021-09-29 01:22:31",173.35.108.254,"Mozilla/5.0 (Windows NT 10.0; Win64; x64; rv:78.0) Gecko/20100101 Firefox/78.0",,Firefox,78.0,Windows,10.0,fe3c1d035a65c549f7011c5446f73ede
11,1,1772,arrowleft,psychophysics,294,1073632,0.0-3.0-0.143,"""",key,arrowleft,16.673142857142235,762.5,347,144,6,1,25,35,25,35,false,"2021-09-29 01:22:31",173.35.108.254,"Mozilla/5.0 (Windows NT 10.0; Win64; x64; rv:78.0) Gecko/20100101 Firefox/78.0",,Firefox,78.0,Windows,10.0,fe3c1d035a65c549f7011c5446f73ede
11,1,null,null,psychophysics,295,1074652,0.0-3.0-1.143,"""",key,null,16.672999999998137,762.5,347,"""","""","""","""","""","""","""","""","2021-09-29 01:22:31",173.35.108.254,"Mozilla/5.0 (Windows NT 10.0; Win64; x64; rv:78.0) Gecko/20100101 Firefox/78.0",,Firefox,78.0,Windows,10.0,fe3c1d035a65c549f7011c5446f73ede
11,1,898,arrowleft,psychophysics,296,1075563,0.0-3.0-0.144,"""",key,arrowleft,16.672962962964515,762.5,347,145,6,-1,26,15,25,35,true,"2021-09-29 01:22:31",173.35.108.254,"Mozilla/5.0 (Windows NT 10.0; Win64; x64; rv:78.0) Gecko/20100101 Firefox/78.0",,Firefox,78.0,Windows,10.0,fe3c1d035a65c549f7011c5446f73ede
11,1,null,null,psychophysics,297,1076574,0.0-3.0-1.144,"""",key,null,16.673000000002016,762.5,347,"""","""","""","""","""","""","""","""","2021-09-29 01:22:31",173.35.108.254,"Mozilla/5.0 (Windows NT 10.0; Win64; x64; rv:78.0) Gecko/20100101 Firefox/78.0",,Firefox,78.0,Windows,10.0,fe3c1d035a65c549f7011c5446f73ede
11,1,1627,arrowleft,psychophysics,298,1078209,0.0-3.0-0.145,"""",key,arrowleft,16.672989690721938,762.5,347,146,6,-1,26,35,25,35,true,"2021-09-29 01:22:31",173.35.108.254,"Mozilla/5.0 (Windows NT 10.0; Win64; x64; rv:78.0) Gecko/20100101 Firefox/78.0",,Firefox,78.0,Windows,10.0,fe3c1d035a65c549f7011c5446f73ede
11,1,null,null,psychophysics,299,1079212,0.0-3.0-1.145,"""",key,null,16.673220338982578,762.5,347,"""","""","""","""","""","""","""","""","2021-09-29 01:22:31",173.35.108.254,"Mozilla/5.0 (Windows NT 10.0; Win64; x64; rv:78.0) Gecko/20100101 Firefox/78.0",,Firefox,78.0,Windows,10.0,fe3c1d035a65c549f7011c5446f73ede
11,1,1310,arrowleft,psychophysics,300,1080545,0.0-3.0-0.146,"""",key,arrowleft,16.6731645569612,762.5,347,147,6,-1,26,35,25,35,true,"2021-09-29 01:22:31",173.35.108.254,"Mozilla/5.0 (Windows NT 10.0; Win64; x64; rv:78.0) Gecko/20100101 Firefox/78.0",,Firefox,78.0,Windows,10.0,fe3c1d035a65c549f7011c5446f73ede
11,1,null,null,psychophysics,301,1081552,0.0-3.0-1.146,"""",key,null,16.673220338982578,762.5,347,"""","""","""","""","""","""","""","""","2021-09-29 01:22:31",173.35.108.254,"Mozilla/5.0 (Windows NT 10.0; Win64; x64; rv:78.0) Gecko/20100101 Firefox/78.0",,Firefox,78.0,Windows,10.0,fe3c1d035a65c549f7011c5446f73ede
11,1,813,arrowleft,psychophysics,302,1082376,0.0-3.0-0.147,"""",key,arrowleft,16.673061224489416,762.5,347,148,6,-1,30,35,25,35,true,"2021-09-29 01:22:31",173.35.108.254,"Mozilla/5.0 (Windows NT 10.0; Win64; x64; rv:78.0) Gecko/20100101 Firefox/78.0",,Firefox,78.0,Windows,10.0,fe3c1d035a65c549f7011c5446f73ede
11,1,null,null,psychophysics,303,1083392,0.0-3.0-1.147,"""",key,null,16.673000000002016,762.5,347,"""","""","""","""","""","""","""","""","2021-09-29 01:22:31",173.35.108.254,"Mozilla/5.0 (Windows NT 10.0; Win64; x64; rv:78.0) Gecko/20100101 Firefox/78.0",,Firefox,78.0,Windows,10.0,fe3c1d035a65c549f7011c5446f73ede
11,1,970,arrowright,psychophysics,304,1084363,0.0-3.0-0.148,"""",key,arrowright,16.67298245613806,762.5,347,149,6,-1,23,15,25,35,false,"2021-09-29 01:22:31",173.35.108.254,"Mozilla/5.0 (Windows NT 10.0; Win64; x64; rv:78.0) Gecko/20100101 Firefox/78.0",,Firefox,78.0,Windows,10.0,fe3c1d035a65c549f7011c5446f73ede
11,1,null,null,psychophysics,305,1085378,0.0-3.0-1.148,"""",key,null,16.672999999998137,762.5,347,"""","""","""","""","""","""","""","""","2021-09-29 01:22:31",173.35.108.254,"Mozilla/5.0 (Windows NT 10.0; Win64; x64; rv:78.0) Gecko/20100101 Firefox/78.0",,Firefox,78.0,Windows,10.0,fe3c1d035a65c549f7011c5446f73ede
11,1,1031,arrowleft,psychophysics,306,1086414,0.0-3.0-0.149,"""",key,arrowleft,16.673114754095458,762.5,347,150,6,-1,24,15,25,35,true,"2021-09-29 01:22:31",173.35.108.254,"Mozilla/5.0 (Windows NT 10.0; Win64; x64; rv:78.0) Gecko/20100101 Firefox/78.0",,Firefox,78.0,Windows,10.0,fe3c1d035a65c549f7011c5446f73ede
11,1,null,null,psychophysics,307,1087430,0.0-3.0-1.149,"""",key,null,16.67333333333178,762.5,347,"""","""","""","""","""","""","""","""","2021-09-29 01:22:31",173.35.108.254,"Mozilla/5.0 (Windows NT 10.0; Win64; x64; rv:78.0) Gecko/20100101 Firefox/78.0",,Firefox,78.0,Windows,10.0,fe3c1d035a65c549f7011c5446f73ede
11,1,1760,arrowright,psychophysics,308,1089198,0.0-3.0-0.150,"""",key,arrowright,16.673142857144455,762.5,347,151,6,-1,25,35,25,35,false,"2021-09-29 01:22:31",173.35.108.254,"Mozilla/5.0 (Windows NT 10.0; Win64; x64; rv:78.0) Gecko/20100101 Firefox/78.0",,Firefox,78.0,Windows,10.0,fe3c1d035a65c549f7011c5446f73ede
11,1,null,null,psychophysics,309,1090212,0.0-3.0-1.150,"""",key,null,16.673000000002016,762.5,347,"""","""","""","""","""","""","""","""","2021-09-29 01:22:31",173.35.108.254,"Mozilla/5.0 (Windows NT 10.0; Win64; x64; rv:78.0) Gecko/20100101 Firefox/78.0",,Firefox,78.0,Windows,10.0,fe3c1d035a65c549f7011c5446f73ede
11,1,1369,arrowleft,psychophysics,310,1091586,0.0-3.0-0.151,"""",key,arrowleft,16.673086419753318,762.5,347,152,6,1,20,35,25,35,false,"2021-09-29 01:22:31",173.35.108.254,"Mozilla/5.0 (Windows NT 10.0; Win64; x64; rv:78.0) Gecko/20100101 Firefox/78.0",,Firefox,78.0,Windows,10.0,fe3c1d035a65c549f7011c5446f73ede
11,1,null,null,psychophysics,311,1092592,0.0-3.0-1.151,"""",key,null,16.673220338982578,762.5,347,"""","""","""","""","""","""","""","""","2021-09-29 01:22:31",173.35.108.254,"Mozilla/5.0 (Windows NT 10.0; Win64; x64; rv:78.0) Gecko/20100101 Firefox/78.0",,Firefox,78.0,Windows,10.0,fe3c1d035a65c549f7011c5446f73ede
11,1,1308,arrowright,psychophysics,312,1093909,0.0-3.0-0.152,"""",key,arrowright,16.673076923076923,762.5,347,153,6,1,26,35,25,35,true,"2021-09-29 01:22:31",173.35.108.254,"Mozilla/5.0 (Windows NT 10.0; Win64; x64; rv:78.0) Gecko/20100101 Firefox/78.0",,Firefox,78.0,Windows,10.0,fe3c1d035a65c549f7011c5446f73ede
