run_id,condition,rt,response,trial_type,trial_index,time_elapsed,internal_node_id,stimulus,response_type,key_press,avg_frame_time,center_x,center_y,trial,block,test_pos,test_inner_radius,test_outer_radius,ref_inner_radius,ref_outer_radius,test_bigger,recorded_at,ip,user_agent,device,browser,browser_version,platform,platform_version,source_code_version
12,1,13030,"{""p_id"":""2769"",""age"":""22"",""handedness"":""right"",""sex"":""female"",""other_sex"":""}",survey-html-form,0,13035,0.0-0.0,"""","""","""","""","""","""","""","""","""","""","""","""","""","""","2021-10-01 00:29:20",67.68.11.193,"Mozilla/5.0 (Macintosh; Intel Mac OS X 10_12_6) AppleWebKit/605.1.15 (KHTML, like Gecko) Version/12.1.2 Safari/605.1.15",Macintosh,Safari,12.1.2,"OS X",10_12_6,fe3c1d035a65c549f7011c5446f73ede
12,1,8516," ",html-keyboard-response,1,21561,0.0-1.0,"<p style=""color: white"">Welcome to the Size Judgment Experiment. <br>There will be 10 blocks in this experiment. <br>There will be 28 trials in each block. <br>You will be given a chance to take a break between blocks. <br>Press any key to start the experiment.</p>","""","""","""","""","""","""","""","""","""","""","""","""","""","2021-10-01 00:29:20",67.68.11.193,"Mozilla/5.0 (Macintosh; Intel Mac OS X 10_12_6) AppleWebKit/605.1.15 (KHTML, like Gecko) Version/12.1.2 Safari/605.1.15",Macintosh,Safari,12.1.2,"OS X",10_12_6,fe3c1d035a65c549f7011c5446f73ede
12,1,23215," ",psychophysics,2,44786,0.0-2.0,"""",key," ",16.677929547088425,715,354.5,"""","""","""","""","""","""","""","""","2021-10-01 00:29:20",67.68.11.193,"Mozilla/5.0 (Macintosh; Intel Mac OS X 10_12_6) AppleWebKit/605.1.15 (KHTML, like Gecko) Version/12.1.2 Safari/605.1.15",Macintosh,Safari,12.1.2,"OS X",10_12_6,fe3c1d035a65c549f7011c5446f73ede
12,1,3985,arrowright,psychophysics,3,48781,0.0-3.0-0.0,"""",key,arrowright,16.631799163179917,715,354.5,1,1,1,27,35,25,35,true,"2021-10-01 00:29:20",67.68.11.193,"Mozilla/5.0 (Macintosh; Intel Mac OS X 10_12_6) AppleWebKit/605.1.15 (KHTML, like Gecko) Version/12.1.2 Safari/605.1.15",Macintosh,Safari,12.1.2,"OS X",10_12_6,fe3c1d035a65c549f7011c5446f73ede
12,1,null,null,psychophysics,4,49785,0.0-3.0-1.0,"""",key,null,16.677966101694917,715,354.5,"""","""","""","""","""","""","""","""","2021-10-01 00:29:20",67.68.11.193,"Mozilla/5.0 (Macintosh; Intel Mac OS X 10_12_6) AppleWebKit/605.1.15 (KHTML, like Gecko) Version/12.1.2 Safari/605.1.15",Macintosh,Safari,12.1.2,"OS X",10_12_6,fe3c1d035a65c549f7011c5446f73ede
12,1,2738,arrowleft,psychophysics,5,52534,0.0-3.0-0.1,"""",key,arrowleft,16.676829268292682,715,354.5,2,1,1,30,15,25,35,false,"2021-10-01 00:29:20",67.68.11.193,"Mozilla/5.0 (Macintosh; Intel Mac OS X 10_12_6) AppleWebKit/605.1.15 (KHTML, like Gecko) Version/12.1.2 Safari/605.1.15",Macintosh,Safari,12.1.2,"OS X",10_12_6,fe3c1d035a65c549f7011c5446f73ede
12,1,null,null,psychophysics,6,53540,0.0-3.0-1.1,"""",key,null,16.661016949152543,715,354.5,"""","""","""","""","""","""","""","""","2021-10-01 00:29:20",67.68.11.193,"Mozilla/5.0 (Macintosh; Intel Mac OS X 10_12_6) AppleWebKit/605.1.15 (KHTML, like Gecko) Version/12.1.2 Safari/605.1.15",Macintosh,Safari,12.1.2,"OS X",10_12_6,fe3c1d035a65c549f7011c5446f73ede
12,1,7303.999999999993,arrowleft,psychophysics,7,60852,0.0-3.0-0.2,"""",key,arrowleft,16.666666666666668,715,354.5,3,1,1,25,35,25,35,false,"2021-10-01 00:29:20",67.68.11.193,"Mozilla/5.0 (Macintosh; Intel Mac OS X 10_12_6) AppleWebKit/605.1.15 (KHTML, like Gecko) Version/12.1.2 Safari/605.1.15",Macintosh,Safari,12.1.2,"OS X",10_12_6,fe3c1d035a65c549f7011c5446f73ede
12,1,null,null,psychophysics,8,61857,0.0-3.0-1.2,"""",key,null,16.677966101694917,715,354.5,"""","""","""","""","""","""","""","""","2021-10-01 00:29:20",67.68.11.193,"Mozilla/5.0 (Macintosh; Intel Mac OS X 10_12_6) AppleWebKit/605.1.15 (KHTML, like Gecko) Version/12.1.2 Safari/605.1.15",Macintosh,Safari,12.1.2,"OS X",10_12_6,fe3c1d035a65c549f7011c5446f73ede
12,1,1302,arrowleft,psychophysics,9,63169,0.0-3.0-0.3,"""",key,arrowleft,16.653846153846153,715,354.5,4,1,-1,30,35,25,35,true,"2021-10-01 00:29:20",67.68.11.193,"Mozilla/5.0 (Macintosh; Intel Mac OS X 10_12_6) AppleWebKit/605.1.15 (KHTML, like Gecko) Version/12.1.2 Safari/605.1.15",Macintosh,Safari,12.1.2,"OS X",10_12_6,fe3c1d035a65c549f7011c5446f73ede
12,1,null,null,psychophysics,10,64173,0.0-3.0-1.3,"""",key,null,16.677966101694917,715,354.5,"""","""","""","""","""","""","""","""","2021-10-01 00:29:20",67.68.11.193,"Mozilla/5.0 (Macintosh; Intel Mac OS X 10_12_6) AppleWebKit/605.1.15 (KHTML, like Gecko) Version/12.1.2 Safari/605.1.15",Macintosh,Safari,12.1.2,"OS X",10_12_6,fe3c1d035a65c549f7011c5446f73ede
12,1,1600,arrowright,psychophysics,11,65782,0.0-3.0-0.4,"""",key,arrowright,16.68421052631579,715,354.5,5,1,1,27,15,25,35,true,"2021-10-01 00:29:20",67.68.11.193,"Mozilla/5.0 (Macintosh; Intel Mac OS X 10_12_6) AppleWebKit/605.1.15 (KHTML, like Gecko) Version/12.1.2 Safari/605.1.15",Macintosh,Safari,12.1.2,"OS X",10_12_6,fe3c1d035a65c549f7011c5446f73ede
12,1,null,null,psychophysics,12,66785,0.0-3.0-1.4,"""",key,null,16.566666666666666,715,354.5,"""","""","""","""","""","""","""","""","2021-10-01 00:29:20",67.68.11.193,"Mozilla/5.0 (Macintosh; Intel Mac OS X 10_12_6) AppleWebKit/605.1.15 (KHTML, like Gecko) Version/12.1.2 Safari/605.1.15",Macintosh,Safari,12.1.2,"OS X",10_12_6,fe3c1d035a65c549f7011c5446f73ede
12,1,3476,arrowright,psychophysics,13,70273,0.0-3.0-0.5,"""",key,arrowright,16.673076923076923,715,354.5,6,1,-1,20,15,25,35,false,"2021-10-01 00:29:20",67.68.11.193,"Mozilla/5.0 (Macintosh; Intel Mac OS X 10_12_6) AppleWebKit/605.1.15 (KHTML, like Gecko) Version/12.1.2 Safari/605.1.15",Macintosh,Safari,12.1.2,"OS X",10_12_6,fe3c1d035a65c549f7011c5446f73ede
12,1,null,null,psychophysics,14,71275,0.0-3.0-1.5,"""",key,null,16.677966101694917,715,354.5,"""","""","""","""","""","""","""","""","2021-10-01 00:29:20",67.68.11.193,"Mozilla/5.0 (Macintosh; Intel Mac OS X 10_12_6) AppleWebKit/605.1.15 (KHTML, like Gecko) Version/12.1.2 Safari/605.1.15",Macintosh,Safari,12.1.2,"OS X",10_12_6,fe3c1d035a65c549f7011c5446f73ede
12,1,8330,arrowright,psychophysics,15,79613,0.0-3.0-0.6,"""",key,arrowright,16.673346693386772,715,354.5,7,1,1,27,35,25,35,true,"2021-10-01 00:29:20",67.68.11.193,"Mozilla/5.0 (Macintosh; Intel Mac OS X 10_12_6) AppleWebKit/605.1.15 (KHTML, like Gecko) Version/12.1.2 Safari/605.1.15",Macintosh,Safari,12.1.2,"OS X",10_12_6,fe3c1d035a65c549f7011c5446f73ede
12,1,null,null,psychophysics,16,80619,0.0-3.0-1.6,"""",key,null,16.610169491525422,715,354.5,"""","""","""","""","""","""","""","""","2021-10-01 00:29:20",67.68.11.193,"Mozilla/5.0 (Macintosh; Intel Mac OS X 10_12_6) AppleWebKit/605.1.15 (KHTML, like Gecko) Version/12.1.2 Safari/605.1.15",Macintosh,Safari,12.1.2,"OS X",10_12_6,fe3c1d035a65c549f7011c5446f73ede
12,1,2203,arrowright,psychophysics,17,82828,0.0-3.0-0.7,"""",key,arrowright,16.674242424242426,715,354.5,8,1,1,25,35,25,35,true,"2021-10-01 00:29:20",67.68.11.193,"Mozilla/5.0 (Macintosh; Intel Mac OS X 10_12_6) AppleWebKit/605.1.15 (KHTML, like Gecko) Version/12.1.2 Safari/605.1.15",Macintosh,Safari,12.1.2,"OS X",10_12_6,fe3c1d035a65c549f7011c5446f73ede
12,1,null,null,psychophysics,18,83831,0.0-3.0-1.7,"""",key,null,16.677966101694917,715,354.5,"""","""","""","""","""","""","""","""","2021-10-01 00:29:20",67.68.11.193,"Mozilla/5.0 (Macintosh; Intel Mac OS X 10_12_6) AppleWebKit/605.1.15 (KHTML, like Gecko) Version/12.1.2 Safari/605.1.15",Macintosh,Safari,12.1.2,"OS X",10_12_6,fe3c1d035a65c549f7011c5446f73ede
12,1,2184,arrowright,psychophysics,19,86024,0.0-3.0-0.8,"""",key,arrowright,16.676923076923078,715,354.5,9,1,1,23,15,25,35,true,"2021-10-01 00:29:20",67.68.11.193,"Mozilla/5.0 (Macintosh; Intel Mac OS X 10_12_6) AppleWebKit/605.1.15 (KHTML, like Gecko) Version/12.1.2 Safari/605.1.15",Macintosh,Safari,12.1.2,"OS X",10_12_6,fe3c1d035a65c549f7011c5446f73ede
12,1,null,null,psychophysics,20,87029,0.0-3.0-1.8,"""",key,null,16.5,715,354.5,"""","""","""","""","""","""","""","""","2021-10-01 00:29:20",67.68.11.193,"Mozilla/5.0 (Macintosh; Intel Mac OS X 10_12_6) AppleWebKit/605.1.15 (KHTML, like Gecko) Version/12.1.2 Safari/605.1.15",Macintosh,Safari,12.1.2,"OS X",10_12_6,fe3c1d035a65c549f7011c5446f73ede
12,1,1345,arrowleft,psychophysics,21,88383,0.0-3.0-0.9,"""",key,arrowleft,16.675,715,354.5,10,1,1,30,35,25,35,false,"2021-10-01 00:29:20",67.68.11.193,"Mozilla/5.0 (Macintosh; Intel Mac OS X 10_12_6) AppleWebKit/605.1.15 (KHTML, like Gecko) Version/12.1.2 Safari/605.1.15",Macintosh,Safari,12.1.2,"OS X",10_12_6,fe3c1d035a65c549f7011c5446f73ede
12,1,null,null,psychophysics,22,89385,0.0-3.0-1.9,"""",key,null,16.677966101694917,715,354.5,"""","""","""","""","""","""","""","""","2021-10-01 00:29:20",67.68.11.193,"Mozilla/5.0 (Macintosh; Intel Mac OS X 10_12_6) AppleWebKit/605.1.15 (KHTML, like Gecko) Version/12.1.2 Safari/605.1.15",Macintosh,Safari,12.1.2,"OS X",10_12_6,fe3c1d035a65c549f7011c5446f73ede
12,1,1478,arrowleft,psychophysics,23,90873,0.0-3.0-0.10,"""",key,arrowleft,16.647727272727273,715,354.5,11,1,-1,23,35,25,35,true,"2021-10-01 00:29:20",67.68.11.193,"Mozilla/5.0 (Macintosh; Intel Mac OS X 10_12_6) AppleWebKit/605.1.15 (KHTML, like Gecko) Version/12.1.2 Safari/605.1.15",Macintosh,Safari,12.1.2,"OS X",10_12_6,fe3c1d035a65c549f7011c5446f73ede
12,1,null,null,psychophysics,24,91877,0.0-3.0-1.10,"""",key,null,16.576271186440678,715,354.5,"""","""","""","""","""","""","""","""","2021-10-01 00:29:20",67.68.11.193,"Mozilla/5.0 (Macintosh; Intel Mac OS X 10_12_6) AppleWebKit/605.1.15 (KHTML, like Gecko) Version/12.1.2 Safari/605.1.15",Macintosh,Safari,12.1.2,"OS X",10_12_6,fe3c1d035a65c549f7011c5446f73ede
12,1,874,arrowleft,psychophysics,25,92766,0.0-3.0-0.11,"""",key,arrowleft,16.50943396226415,715,354.5,12,1,-1,26,35,25,35,true,"2021-10-01 00:29:20",67.68.11.193,"Mozilla/5.0 (Macintosh; Intel Mac OS X 10_12_6) AppleWebKit/605.1.15 (KHTML, like Gecko) Version/12.1.2 Safari/605.1.15",Macintosh,Safari,12.1.2,"OS X",10_12_6,fe3c1d035a65c549f7011c5446f73ede
12,1,null,null,psychophysics,26,93770,0.0-3.0-1.11,"""",key,null,16.677966101694917,715,354.5,"""","""","""","""","""","""","""","""","2021-10-01 00:29:20",67.68.11.193,"Mozilla/5.0 (Macintosh; Intel Mac OS X 10_12_6) AppleWebKit/605.1.15 (KHTML, like Gecko) Version/12.1.2 Safari/605.1.15",Macintosh,Safari,12.1.2,"OS X",10_12_6,fe3c1d035a65c549f7011c5446f73ede
12,1,4305.000000000015,arrowleft,psychophysics,27,98083,0.0-3.0-0.12,"""",key,arrowleft,16.670542635658915,715,354.5,13,1,1,23,15,25,35,false,"2021-10-01 00:29:20",67.68.11.193,"Mozilla/5.0 (Macintosh; Intel Mac OS X 10_12_6) AppleWebKit/605.1.15 (KHTML, like Gecko) Version/12.1.2 Safari/605.1.15",Macintosh,Safari,12.1.2,"OS X",10_12_6,fe3c1d035a65c549f7011c5446f73ede
12,1,null,null,psychophysics,28,99088,0.0-3.0-1.12,"""",key,null,16.661016949152543,715,354.5,"""","""","""","""","""","""","""","""","2021-10-01 00:29:20",67.68.11.193,"Mozilla/5.0 (Macintosh; Intel Mac OS X 10_12_6) AppleWebKit/605.1.15 (KHTML, like Gecko) Version/12.1.2 Safari/605.1.15",Macintosh,Safari,12.1.2,"OS X",10_12_6,fe3c1d035a65c549f7011c5446f73ede
12,1,1013.0000000000146,arrowright,psychophysics,29,100111,0.0-3.0-0.13,"""",key,arrowright,16.633333333333333,715,354.5,14,1,1,30,15,25,35,true,"2021-10-01 00:29:20",67.68.11.193,"Mozilla/5.0 (Macintosh; Intel Mac OS X 10_12_6) AppleWebKit/605.1.15 (KHTML, like Gecko) Version/12.1.2 Safari/605.1.15",Macintosh,Safari,12.1.2,"OS X",10_12_6,fe3c1d035a65c549f7011c5446f73ede
12,1,null,null,psychophysics,30,101117,0.0-3.0-1.13,"""",key,null,16.566666666666666,715,354.5,"""","""","""","""","""","""","""","""","2021-10-01 00:29:20",67.68.11.193,"Mozilla/5.0 (Macintosh; Intel Mac OS X 10_12_6) AppleWebKit/605.1.15 (KHTML, like Gecko) Version/12.1.2 Safari/605.1.15",Macintosh,Safari,12.1.2,"OS X",10_12_6,fe3c1d035a65c549f7011c5446f73ede
12,1,1485.0000000000146,arrowright,psychophysics,31,102611,0.0-3.0-0.14,"""",key,arrowright,16.670454545454547,715,354.5,15,1,1,25,35,25,35,true,"2021-10-01 00:29:20",67.68.11.193,"Mozilla/5.0 (Macintosh; Intel Mac OS X 10_12_6) AppleWebKit/605.1.15 (KHTML, like Gecko) Version/12.1.2 Safari/605.1.15",Macintosh,Safari,12.1.2,"OS X",10_12_6,fe3c1d035a65c549f7011c5446f73ede
12,1,null,null,psychophysics,32,103615,0.0-3.0-1.14,"""",key,null,16.566666666666666,715,354.5,"""","""","""","""","""","""","""","""","2021-10-01 00:29:20",67.68.11.193,"Mozilla/5.0 (Macintosh; Intel Mac OS X 10_12_6) AppleWebKit/605.1.15 (KHTML, like Gecko) Version/12.1.2 Safari/605.1.15",Macintosh,Safari,12.1.2,"OS X",10_12_6,fe3c1d035a65c549f7011c5446f73ede
12,1,744,arrowleft,psychophysics,33,104368,0.0-3.0-0.15,"""",key,arrowleft,16.65909090909091,715,354.5,16,1,1,20,35,25,35,false,"2021-10-01 00:29:20",67.68.11.193,"Mozilla/5.0 (Macintosh; Intel Mac OS X 10_12_6) AppleWebKit/605.1.15 (KHTML, like Gecko) Version/12.1.2 Safari/605.1.15",Macintosh,Safari,12.1.2,"OS X",10_12_6,fe3c1d035a65c549f7011c5446f73ede
12,1,null,null,psychophysics,34,105376,0.0-3.0-1.15,"""",key,null,16.677966101694917,715,354.5,"""","""","""","""","""","""","""","""","2021-10-01 00:29:20",67.68.11.193,"Mozilla/5.0 (Macintosh; Intel Mac OS X 10_12_6) AppleWebKit/605.1.15 (KHTML, like Gecko) Version/12.1.2 Safari/605.1.15",Macintosh,Safari,12.1.2,"OS X",10_12_6,fe3c1d035a65c549f7011c5446f73ede
12,1,949,arrowleft,psychophysics,35,106336,0.0-3.0-0.16,"""",key,arrowleft,16.596491228070175,715,354.5,17,1,1,23,35,25,35,false,"2021-10-01 00:29:20",67.68.11.193,"Mozilla/5.0 (Macintosh; Intel Mac OS X 10_12_6) AppleWebKit/605.1.15 (KHTML, like Gecko) Version/12.1.2 Safari/605.1.15",Macintosh,Safari,12.1.2,"OS X",10_12_6,fe3c1d035a65c549f7011c5446f73ede
12,1,null,null,psychophysics,36,107339,0.0-3.0-1.16,"""",key,null,16.661016949152543,715,354.5,"""","""","""","""","""","""","""","""","2021-10-01 00:29:20",67.68.11.193,"Mozilla/5.0 (Macintosh; Intel Mac OS X 10_12_6) AppleWebKit/605.1.15 (KHTML, like Gecko) Version/12.1.2 Safari/605.1.15",Macintosh,Safari,12.1.2,"OS X",10_12_6,fe3c1d035a65c549f7011c5446f73ede
12,1,915,arrowright,psychophysics,37,108262,0.0-3.0-0.17,"""",key,arrowright,16.666666666666668,715,354.5,18,1,1,27,35,25,35,true,"2021-10-01 00:29:20",67.68.11.193,"Mozilla/5.0 (Macintosh; Intel Mac OS X 10_12_6) AppleWebKit/605.1.15 (KHTML, like Gecko) Version/12.1.2 Safari/605.1.15",Macintosh,Safari,12.1.2,"OS X",10_12_6,fe3c1d035a65c549f7011c5446f73ede
12,1,null,null,psychophysics,38,109266,0.0-3.0-1.17,"""",key,null,16.610169491525422,715,354.5,"""","""","""","""","""","""","""","""","2021-10-01 00:29:20",67.68.11.193,"Mozilla/5.0 (Macintosh; Intel Mac OS X 10_12_6) AppleWebKit/605.1.15 (KHTML, like Gecko) Version/12.1.2 Safari/605.1.15",Macintosh,Safari,12.1.2,"OS X",10_12_6,fe3c1d035a65c549f7011c5446f73ede
12,1,2283,arrowright,psychophysics,39,111555,0.0-3.0-0.18,"""",key,arrowright,16.64963503649635,715,354.5,19,1,1,25,35,25,35,true,"2021-10-01 00:29:20",67.68.11.193,"Mozilla/5.0 (Macintosh; Intel Mac OS X 10_12_6) AppleWebKit/605.1.15 (KHTML, like Gecko) Version/12.1.2 Safari/605.1.15",Macintosh,Safari,12.1.2,"OS X",10_12_6,fe3c1d035a65c549f7011c5446f73ede
12,1,null,null,psychophysics,40,112561,0.0-3.0-1.18,"""",key,null,16.694915254237287,715,354.5,"""","""","""","""","""","""","""","""","2021-10-01 00:29:20",67.68.11.193,"Mozilla/5.0 (Macintosh; Intel Mac OS X 10_12_6) AppleWebKit/605.1.15 (KHTML, like Gecko) Version/12.1.2 Safari/605.1.15",Macintosh,Safari,12.1.2,"OS X",10_12_6,fe3c1d035a65c549f7011c5446f73ede
12,1,2162,arrowright,psychophysics,41,114732,0.0-3.0-0.19,"""",key,arrowright,16.65891472868217,715,354.5,20,1,1,24,35,25,35,true,"2021-10-01 00:29:20",67.68.11.193,"Mozilla/5.0 (Macintosh; Intel Mac OS X 10_12_6) AppleWebKit/605.1.15 (KHTML, like Gecko) Version/12.1.2 Safari/605.1.15",Macintosh,Safari,12.1.2,"OS X",10_12_6,fe3c1d035a65c549f7011c5446f73ede
12,1,null,null,psychophysics,42,115736,0.0-3.0-1.19,"""",key,null,16.627118644067796,715,354.5,"""","""","""","""","""","""","""","""","2021-10-01 00:29:20",67.68.11.193,"Mozilla/5.0 (Macintosh; Intel Mac OS X 10_12_6) AppleWebKit/605.1.15 (KHTML, like Gecko) Version/12.1.2 Safari/605.1.15",Macintosh,Safari,12.1.2,"OS X",10_12_6,fe3c1d035a65c549f7011c5446f73ede
12,1,3386,arrowleft,psychophysics,43,119126,0.0-3.0-0.20,"""",key,arrowleft,16.655172413793103,715,354.5,21,1,1,23,15,25,35,false,"2021-10-01 00:29:20",67.68.11.193,"Mozilla/5.0 (Macintosh; Intel Mac OS X 10_12_6) AppleWebKit/605.1.15 (KHTML, like Gecko) Version/12.1.2 Safari/605.1.15",Macintosh,Safari,12.1.2,"OS X",10_12_6,fe3c1d035a65c549f7011c5446f73ede
12,1,null,null,psychophysics,44,120135,0.0-3.0-1.20,"""",key,null,16.593220338983052,715,354.5,"""","""","""","""","""","""","""","""","2021-10-01 00:29:20",67.68.11.193,"Mozilla/5.0 (Macintosh; Intel Mac OS X 10_12_6) AppleWebKit/605.1.15 (KHTML, like Gecko) Version/12.1.2 Safari/605.1.15",Macintosh,Safari,12.1.2,"OS X",10_12_6,fe3c1d035a65c549f7011c5446f73ede
12,1,1738,arrowright,psychophysics,45,121879,0.0-3.0-0.21,"""",key,arrowright,16.653846153846153,715,354.5,22,1,-1,27,35,25,35,false,"2021-10-01 00:29:20",67.68.11.193,"Mozilla/5.0 (Macintosh; Intel Mac OS X 10_12_6) AppleWebKit/605.1.15 (KHTML, like Gecko) Version/12.1.2 Safari/605.1.15",Macintosh,Safari,12.1.2,"OS X",10_12_6,fe3c1d035a65c549f7011c5446f73ede
12,1,null,null,psychophysics,46,122882,0.0-3.0-1.21,"""",key,null,16.677966101694917,715,354.5,"""","""","""","""","""","""","""","""","2021-10-01 00:29:20",67.68.11.193,"Mozilla/5.0 (Macintosh; Intel Mac OS X 10_12_6) AppleWebKit/605.1.15 (KHTML, like Gecko) Version/12.1.2 Safari/605.1.15",Macintosh,Safari,12.1.2,"OS X",10_12_6,fe3c1d035a65c549f7011c5446f73ede
12,1,997,arrowleft,psychophysics,47,123889,0.0-3.0-0.22,"""",key,arrowleft,16.583333333333332,715,354.5,23,1,-1,27,15,25,35,true,"2021-10-01 00:29:20",67.68.11.193,"Mozilla/5.0 (Macintosh; Intel Mac OS X 10_12_6) AppleWebKit/605.1.15 (KHTML, like Gecko) Version/12.1.2 Safari/605.1.15",Macintosh,Safari,12.1.2,"OS X",10_12_6,fe3c1d035a65c549f7011c5446f73ede
12,1,null,null,psychophysics,48,124892,0.0-3.0-1.22,"""",key,null,16.661016949152543,715,354.5,"""","""","""","""","""","""","""","""","2021-10-01 00:29:20",67.68.11.193,"Mozilla/5.0 (Macintosh; Intel Mac OS X 10_12_6) AppleWebKit/605.1.15 (KHTML, like Gecko) Version/12.1.2 Safari/605.1.15",Macintosh,Safari,12.1.2,"OS X",10_12_6,fe3c1d035a65c549f7011c5446f73ede
12,1,941.0000000000146,arrowright,psychophysics,49,125846,0.0-3.0-0.23,"""",key,arrowright,16.678571428571427,715,354.5,24,1,1,27,35,25,35,true,"2021-10-01 00:29:20",67.68.11.193,"Mozilla/5.0 (Macintosh; Intel Mac OS X 10_12_6) AppleWebKit/605.1.15 (KHTML, like Gecko) Version/12.1.2 Safari/605.1.15",Macintosh,Safari,12.1.2,"OS X",10_12_6,fe3c1d035a65c549f7011c5446f73ede
12,1,null,null,psychophysics,50,126849,0.0-3.0-1.23,"""",key,null,16.677966101694917,715,354.5,"""","""","""","""","""","""","""","""","2021-10-01 00:29:20",67.68.11.193,"Mozilla/5.0 (Macintosh; Intel Mac OS X 10_12_6) AppleWebKit/605.1.15 (KHTML, like Gecko) Version/12.1.2 Safari/605.1.15",Macintosh,Safari,12.1.2,"OS X",10_12_6,fe3c1d035a65c549f7011c5446f73ede
12,1,1519.9999999999854,arrowleft,psychophysics,51,128378,0.0-3.0-0.24,"""",key,arrowleft,16.64835164835165,715,354.5,25,1,1,20,15,25,35,false,"2021-10-01 00:29:20",67.68.11.193,"Mozilla/5.0 (Macintosh; Intel Mac OS X 10_12_6) AppleWebKit/605.1.15 (KHTML, like Gecko) Version/12.1.2 Safari/605.1.15",Macintosh,Safari,12.1.2,"OS X",10_12_6,fe3c1d035a65c549f7011c5446f73ede
12,1,null,null,psychophysics,52,129380,0.0-3.0-1.24,"""",key,null,16.661016949152543,715,354.5,"""","""","""","""","""","""","""","""","2021-10-01 00:29:20",67.68.11.193,"Mozilla/5.0 (Macintosh; Intel Mac OS X 10_12_6) AppleWebKit/605.1.15 (KHTML, like Gecko) Version/12.1.2 Safari/605.1.15",Macintosh,Safari,12.1.2,"OS X",10_12_6,fe3c1d035a65c549f7011c5446f73ede
12,1,2817,arrowright,psychophysics,53,132205,0.0-3.0-0.25,"""",key,arrowright,16.672619047619047,715,354.5,26,1,1,20,15,25,35,true,"2021-10-01 00:29:20",67.68.11.193,"Mozilla/5.0 (Macintosh; Intel Mac OS X 10_12_6) AppleWebKit/605.1.15 (KHTML, like Gecko) Version/12.1.2 Safari/605.1.15",Macintosh,Safari,12.1.2,"OS X",10_12_6,fe3c1d035a65c549f7011c5446f73ede
12,1,null,null,psychophysics,54,133213,0.0-3.0-1.25,"""",key,null,16.516666666666666,715,354.5,"""","""","""","""","""","""","""","""","2021-10-01 00:29:20",67.68.11.193,"Mozilla/5.0 (Macintosh; Intel Mac OS X 10_12_6) AppleWebKit/605.1.15 (KHTML, like Gecko) Version/12.1.2 Safari/605.1.15",Macintosh,Safari,12.1.2,"OS X",10_12_6,fe3c1d035a65c549f7011c5446f73ede
12,1,933,arrowright,psychophysics,55,134155,0.0-3.0-0.26,"""",key,arrowright,16.672727272727272,715,354.5,27,1,-1,26,35,25,35,false,"2021-10-01 00:29:20",67.68.11.193,"Mozilla/5.0 (Macintosh; Intel Mac OS X 10_12_6) AppleWebKit/605.1.15 (KHTML, like Gecko) Version/12.1.2 Safari/605.1.15",Macintosh,Safari,12.1.2,"OS X",10_12_6,fe3c1d035a65c549f7011c5446f73ede
12,1,null,null,psychophysics,56,135159,0.0-3.0-1.26,"""",key,null,16.593220338983052,715,354.5,"""","""","""","""","""","""","""","""","2021-10-01 00:29:20",67.68.11.193,"Mozilla/5.0 (Macintosh; Intel Mac OS X 10_12_6) AppleWebKit/605.1.15 (KHTML, like Gecko) Version/12.1.2 Safari/605.1.15",Macintosh,Safari,12.1.2,"OS X",10_12_6,fe3c1d035a65c549f7011c5446f73ede
12,1,803,arrowleft,psychophysics,57,135967,0.0-3.0-0.27,"""",key,arrowleft,16.604166666666668,715,354.5,28,2,-1,30,15,25,35,true,"2021-10-01 00:29:20",67.68.11.193,"Mozilla/5.0 (Macintosh; Intel Mac OS X 10_12_6) AppleWebKit/605.1.15 (KHTML, like Gecko) Version/12.1.2 Safari/605.1.15",Macintosh,Safari,12.1.2,"OS X",10_12_6,fe3c1d035a65c549f7011c5446f73ede
12,1,null,null,psychophysics,58,136970,0.0-3.0-1.27,"""",key,null,16.661016949152543,715,354.5,"""","""","""","""","""","""","""","""","2021-10-01 00:29:20",67.68.11.193,"Mozilla/5.0 (Macintosh; Intel Mac OS X 10_12_6) AppleWebKit/605.1.15 (KHTML, like Gecko) Version/12.1.2 Safari/605.1.15",Macintosh,Safari,12.1.2,"OS X",10_12_6,fe3c1d035a65c549f7011c5446f73ede
12,1,35359," ",html-keyboard-response,59,172332,0.0-3.0-2.27-0.27,"<div style=""color: white; text-align: center; vertical-align: top; display: inline-block; width: 800px; margin: auto""><p>You have completed 10% of the trials. You are on block 2 of 10. <br>Good job! Take a break if you need to.</p><p>Press any key to continue the experiment.</p></div>","""","""","""","""","""","""","""","""","""","""","""","""","""","2021-10-01 00:29:20",67.68.11.193,"Mozilla/5.0 (Macintosh; Intel Mac OS X 10_12_6) AppleWebKit/605.1.15 (KHTML, like Gecko) Version/12.1.2 Safari/605.1.15",Macintosh,Safari,12.1.2,"OS X",10_12_6,fe3c1d035a65c549f7011c5446f73ede
12,1,4211,arrowright,psychophysics,60,177550,0.0-3.0-0.28,"""",key,arrowright,16.693227091633467,715,354.5,29,2,-1,23,15,25,35,false,"2021-10-01 00:29:20",67.68.11.193,"Mozilla/5.0 (Macintosh; Intel Mac OS X 10_12_6) AppleWebKit/605.1.15 (KHTML, like Gecko) Version/12.1.2 Safari/605.1.15",Macintosh,Safari,12.1.2,"OS X",10_12_6,fe3c1d035a65c549f7011c5446f73ede
12,1,null,null,psychophysics,61,178553,0.0-3.0-1.28,"""",key,null,16.661016949152543,715,354.5,"""","""","""","""","""","""","""","""","2021-10-01 00:29:20",67.68.11.193,"Mozilla/5.0 (Macintosh; Intel Mac OS X 10_12_6) AppleWebKit/605.1.15 (KHTML, like Gecko) Version/12.1.2 Safari/605.1.15",Macintosh,Safari,12.1.2,"OS X",10_12_6,fe3c1d035a65c549f7011c5446f73ede
12,1,960,arrowright,psychophysics,62,179527,0.0-3.0-0.29,"""",key,arrowright,16.63157894736842,715,354.5,30,2,-1,20,35,25,35,false,"2021-10-01 00:29:20",67.68.11.193,"Mozilla/5.0 (Macintosh; Intel Mac OS X 10_12_6) AppleWebKit/605.1.15 (KHTML, like Gecko) Version/12.1.2 Safari/605.1.15",Macintosh,Safari,12.1.2,"OS X",10_12_6,fe3c1d035a65c549f7011c5446f73ede
12,1,null,null,psychophysics,63,180532,0.0-3.0-1.29,"""",key,null,16.64406779661017,715,354.5,"""","""","""","""","""","""","""","""","2021-10-01 00:29:20",67.68.11.193,"Mozilla/5.0 (Macintosh; Intel Mac OS X 10_12_6) AppleWebKit/605.1.15 (KHTML, like Gecko) Version/12.1.2 Safari/605.1.15",Macintosh,Safari,12.1.2,"OS X",10_12_6,fe3c1d035a65c549f7011c5446f73ede
12,1,1313,arrowleft,psychophysics,64,181850,0.0-3.0-0.30,"""",key,arrowleft,16.641025641025642,715,354.5,31,2,1,20,15,25,35,false,"2021-10-01 00:29:20",67.68.11.193,"Mozilla/5.0 (Macintosh; Intel Mac OS X 10_12_6) AppleWebKit/605.1.15 (KHTML, like Gecko) Version/12.1.2 Safari/605.1.15",Macintosh,Safari,12.1.2,"OS X",10_12_6,fe3c1d035a65c549f7011c5446f73ede
12,1,null,null,psychophysics,65,182852,0.0-3.0-1.30,"""",key,null,16.6,715,354.5,"""","""","""","""","""","""","""","""","2021-10-01 00:29:20",67.68.11.193,"Mozilla/5.0 (Macintosh; Intel Mac OS X 10_12_6) AppleWebKit/605.1.15 (KHTML, like Gecko) Version/12.1.2 Safari/605.1.15",Macintosh,Safari,12.1.2,"OS X",10_12_6,fe3c1d035a65c549f7011c5446f73ede
12,1,716.0000000000291,arrowleft,psychophysics,66,183574,0.0-3.0-0.31,"""",key,arrowleft,16.69047619047619,715,354.5,32,2,-1,25,15,25,35,true,"2021-10-01 00:29:20",67.68.11.193,"Mozilla/5.0 (Macintosh; Intel Mac OS X 10_12_6) AppleWebKit/605.1.15 (KHTML, like Gecko) Version/12.1.2 Safari/605.1.15",Macintosh,Safari,12.1.2,"OS X",10_12_6,fe3c1d035a65c549f7011c5446f73ede
12,1,null,null,psychophysics,67,184577,0.0-3.0-1.31,"""",key,null,16.677966101694917,715,354.5,"""","""","""","""","""","""","""","""","2021-10-01 00:29:20",67.68.11.193,"Mozilla/5.0 (Macintosh; Intel Mac OS X 10_12_6) AppleWebKit/605.1.15 (KHTML, like Gecko) Version/12.1.2 Safari/605.1.15",Macintosh,Safari,12.1.2,"OS X",10_12_6,fe3c1d035a65c549f7011c5446f73ede
12,1,679.9999999999709,arrowleft,psychophysics,68,185266,0.0-3.0-0.32,"""",key,arrowleft,16.65,715,354.5,33,2,-1,30,35,25,35,true,"2021-10-01 00:29:20",67.68.11.193,"Mozilla/5.0 (Macintosh; Intel Mac OS X 10_12_6) AppleWebKit/605.1.15 (KHTML, like Gecko) Version/12.1.2 Safari/605.1.15",Macintosh,Safari,12.1.2,"OS X",10_12_6,fe3c1d035a65c549f7011c5446f73ede
12,1,null,null,psychophysics,69,186270,0.0-3.0-1.32,"""",key,null,16.583333333333332,715,354.5,"""","""","""","""","""","""","""","""","2021-10-01 00:29:20",67.68.11.193,"Mozilla/5.0 (Macintosh; Intel Mac OS X 10_12_6) AppleWebKit/605.1.15 (KHTML, like Gecko) Version/12.1.2 Safari/605.1.15",Macintosh,Safari,12.1.2,"OS X",10_12_6,fe3c1d035a65c549f7011c5446f73ede
12,1,1236,arrowright,psychophysics,70,187513,0.0-3.0-0.33,"""",key,arrowright,16.671232876712327,715,354.5,34,2,-1,26,15,25,35,false,"2021-10-01 00:29:20",67.68.11.193,"Mozilla/5.0 (Macintosh; Intel Mac OS X 10_12_6) AppleWebKit/605.1.15 (KHTML, like Gecko) Version/12.1.2 Safari/605.1.15",Macintosh,Safari,12.1.2,"OS X",10_12_6,fe3c1d035a65c549f7011c5446f73ede
12,1,null,null,psychophysics,71,188516,0.0-3.0-1.33,"""",key,null,16.610169491525422,715,354.5,"""","""","""","""","""","""","""","""","2021-10-01 00:29:20",67.68.11.193,"Mozilla/5.0 (Macintosh; Intel Mac OS X 10_12_6) AppleWebKit/605.1.15 (KHTML, like Gecko) Version/12.1.2 Safari/605.1.15",Macintosh,Safari,12.1.2,"OS X",10_12_6,fe3c1d035a65c549f7011c5446f73ede
12,1,1042.999999999971,arrowright,psychophysics,72,189569,0.0-3.0-0.34,"""",key,arrowright,16.677419354838708,715,354.5,35,2,-1,23,15,25,35,false,"2021-10-01 00:29:20",67.68.11.193,"Mozilla/5.0 (Macintosh; Intel Mac OS X 10_12_6) AppleWebKit/605.1.15 (KHTML, like Gecko) Version/12.1.2 Safari/605.1.15",Macintosh,Safari,12.1.2,"OS X",10_12_6,fe3c1d035a65c549f7011c5446f73ede
12,1,null,null,psychophysics,73,190571,0.0-3.0-1.34,"""",key,null,16.566666666666666,715,354.5,"""","""","""","""","""","""","""","""","2021-10-01 00:29:20",67.68.11.193,"Mozilla/5.0 (Macintosh; Intel Mac OS X 10_12_6) AppleWebKit/605.1.15 (KHTML, like Gecko) Version/12.1.2 Safari/605.1.15",Macintosh,Safari,12.1.2,"OS X",10_12_6,fe3c1d035a65c549f7011c5446f73ede
12,1,817,arrowright,psychophysics,74,191400,0.0-3.0-0.35,"""",key,arrowright,16.6875,715,354.5,36,2,1,30,15,25,35,true,"2021-10-01 00:29:20",67.68.11.193,"Mozilla/5.0 (Macintosh; Intel Mac OS X 10_12_6) AppleWebKit/605.1.15 (KHTML, like Gecko) Version/12.1.2 Safari/605.1.15",Macintosh,Safari,12.1.2,"OS X",10_12_6,fe3c1d035a65c549f7011c5446f73ede
12,1,null,null,psychophysics,75,192403,0.0-3.0-1.35,"""",key,null,16.610169491525422,715,354.5,"""","""","""","""","""","""","""","""","2021-10-01 00:29:20",67.68.11.193,"Mozilla/5.0 (Macintosh; Intel Mac OS X 10_12_6) AppleWebKit/605.1.15 (KHTML, like Gecko) Version/12.1.2 Safari/605.1.15",Macintosh,Safari,12.1.2,"OS X",10_12_6,fe3c1d035a65c549f7011c5446f73ede
12,1,739.0000000000291,arrowleft,psychophysics,76,193145,0.0-3.0-0.36,"""",key,arrowleft,16.65909090909091,715,354.5,37,2,-1,27,15,25,35,true,"2021-10-01 00:29:20",67.68.11.193,"Mozilla/5.0 (Macintosh; Intel Mac OS X 10_12_6) AppleWebKit/605.1.15 (KHTML, like Gecko) Version/12.1.2 Safari/605.1.15",Macintosh,Safari,12.1.2,"OS X",10_12_6,fe3c1d035a65c549f7011c5446f73ede
12,1,null,null,psychophysics,77,194147,0.0-3.0-1.36,"""",key,null,16.661016949152543,715,354.5,"""","""","""","""","""","""","""","""","2021-10-01 00:29:20",67.68.11.193,"Mozilla/5.0 (Macintosh; Intel Mac OS X 10_12_6) AppleWebKit/605.1.15 (KHTML, like Gecko) Version/12.1.2 Safari/605.1.15",Macintosh,Safari,12.1.2,"OS X",10_12_6,fe3c1d035a65c549f7011c5446f73ede
12,1,2655,arrowright,psychophysics,78,196810,0.0-3.0-0.37,"""",key,arrowright,16.67295597484277,715,354.5,38,2,-1,25,35,25,35,false,"2021-10-01 00:29:20",67.68.11.193,"Mozilla/5.0 (Macintosh; Intel Mac OS X 10_12_6) AppleWebKit/605.1.15 (KHTML, like Gecko) Version/12.1.2 Safari/605.1.15",Macintosh,Safari,12.1.2,"OS X",10_12_6,fe3c1d035a65c549f7011c5446f73ede
12,1,null,null,psychophysics,79,197812,0.0-3.0-1.37,"""",key,null,16.661016949152543,715,354.5,"""","""","""","""","""","""","""","""","2021-10-01 00:29:20",67.68.11.193,"Mozilla/5.0 (Macintosh; Intel Mac OS X 10_12_6) AppleWebKit/605.1.15 (KHTML, like Gecko) Version/12.1.2 Safari/605.1.15",Macintosh,Safari,12.1.2,"OS X",10_12_6,fe3c1d035a65c549f7011c5446f73ede
12,1,1221,arrowleft,psychophysics,80,199041,0.0-3.0-0.38,"""",key,arrowleft,16.671232876712327,715,354.5,39,2,1,24,35,25,35,false,"2021-10-01 00:29:20",67.68.11.193,"Mozilla/5.0 (Macintosh; Intel Mac OS X 10_12_6) AppleWebKit/605.1.15 (KHTML, like Gecko) Version/12.1.2 Safari/605.1.15",Macintosh,Safari,12.1.2,"OS X",10_12_6,fe3c1d035a65c549f7011c5446f73ede
12,1,null,null,psychophysics,81,200045,0.0-3.0-1.38,"""",key,null,16.677966101694917,715,354.5,"""","""","""","""","""","""","""","""","2021-10-01 00:29:20",67.68.11.193,"Mozilla/5.0 (Macintosh; Intel Mac OS X 10_12_6) AppleWebKit/605.1.15 (KHTML, like Gecko) Version/12.1.2 Safari/605.1.15",Macintosh,Safari,12.1.2,"OS X",10_12_6,fe3c1d035a65c549f7011c5446f73ede
12,1,703,arrowright,psychophysics,82,200758,0.0-3.0-0.39,"""",key,arrowright,16.73170731707317,715,354.5,40,2,-1,23,35,25,35,false,"2021-10-01 00:29:20",67.68.11.193,"Mozilla/5.0 (Macintosh; Intel Mac OS X 10_12_6) AppleWebKit/605.1.15 (KHTML, like Gecko) Version/12.1.2 Safari/605.1.15",Macintosh,Safari,12.1.2,"OS X",10_12_6,fe3c1d035a65c549f7011c5446f73ede
12,1,null,null,psychophysics,83,201767,0.0-3.0-1.39,"""",key,null,16.433333333333334,715,354.5,"""","""","""","""","""","""","""","""","2021-10-01 00:29:20",67.68.11.193,"Mozilla/5.0 (Macintosh; Intel Mac OS X 10_12_6) AppleWebKit/605.1.15 (KHTML, like Gecko) Version/12.1.2 Safari/605.1.15",Macintosh,Safari,12.1.2,"OS X",10_12_6,fe3c1d035a65c549f7011c5446f73ede
12,1,777.9999999999709,arrowleft,psychophysics,84,202554,0.0-3.0-0.40,"""",key,arrowleft,16.608695652173914,715,354.5,41,2,-1,27,15,25,35,true,"2021-10-01 00:29:20",67.68.11.193,"Mozilla/5.0 (Macintosh; Intel Mac OS X 10_12_6) AppleWebKit/605.1.15 (KHTML, like Gecko) Version/12.1.2 Safari/605.1.15",Macintosh,Safari,12.1.2,"OS X",10_12_6,fe3c1d035a65c549f7011c5446f73ede
12,1,null,null,psychophysics,85,203558,0.0-3.0-1.40,"""",key,null,16.593220338983052,715,354.5,"""","""","""","""","""","""","""","""","2021-10-01 00:29:20",67.68.11.193,"Mozilla/5.0 (Macintosh; Intel Mac OS X 10_12_6) AppleWebKit/605.1.15 (KHTML, like Gecko) Version/12.1.2 Safari/605.1.15",Macintosh,Safari,12.1.2,"OS X",10_12_6,fe3c1d035a65c549f7011c5446f73ede
12,1,1543,arrowright,psychophysics,86,205107,0.0-3.0-0.41,"""",key,arrowright,16.630434782608695,715,354.5,42,2,1,25,15,25,35,true,"2021-10-01 00:29:20",67.68.11.193,"Mozilla/5.0 (Macintosh; Intel Mac OS X 10_12_6) AppleWebKit/605.1.15 (KHTML, like Gecko) Version/12.1.2 Safari/605.1.15",Macintosh,Safari,12.1.2,"OS X",10_12_6,fe3c1d035a65c549f7011c5446f73ede
12,1,null,null,psychophysics,87,206112,0.0-3.0-1.41,"""",key,null,16.533333333333335,715,354.5,"""","""","""","""","""","""","""","""","2021-10-01 00:29:20",67.68.11.193,"Mozilla/5.0 (Macintosh; Intel Mac OS X 10_12_6) AppleWebKit/605.1.15 (KHTML, like Gecko) Version/12.1.2 Safari/605.1.15",Macintosh,Safari,12.1.2,"OS X",10_12_6,fe3c1d035a65c549f7011c5446f73ede
12,1,1054.000000000029,arrowleft,psychophysics,88,207175,0.0-3.0-0.42,"""",key,arrowleft,16.677419354838708,715,354.5,43,2,1,20,35,25,35,false,"2021-10-01 00:29:20",67.68.11.193,"Mozilla/5.0 (Macintosh; Intel Mac OS X 10_12_6) AppleWebKit/605.1.15 (KHTML, like Gecko) Version/12.1.2 Safari/605.1.15",Macintosh,Safari,12.1.2,"OS X",10_12_6,fe3c1d035a65c549f7011c5446f73ede
12,1,null,null,psychophysics,89,208183,0.0-3.0-1.42,"""",key,null,16.466666666666665,715,354.5,"""","""","""","""","""","""","""","""","2021-10-01 00:29:20",67.68.11.193,"Mozilla/5.0 (Macintosh; Intel Mac OS X 10_12_6) AppleWebKit/605.1.15 (KHTML, like Gecko) Version/12.1.2 Safari/605.1.15",Macintosh,Safari,12.1.2,"OS X",10_12_6,fe3c1d035a65c549f7011c5446f73ede
12,1,2833,arrowright,psychophysics,90,211024,0.0-3.0-0.43,"""",key,arrowright,16.674556213017752,715,354.5,44,2,-1,20,15,25,35,false,"2021-10-01 00:29:20",67.68.11.193,"Mozilla/5.0 (Macintosh; Intel Mac OS X 10_12_6) AppleWebKit/605.1.15 (KHTML, like Gecko) Version/12.1.2 Safari/605.1.15",Macintosh,Safari,12.1.2,"OS X",10_12_6,fe3c1d035a65c549f7011c5446f73ede
12,1,null,null,psychophysics,91,212028,0.0-3.0-1.43,"""",key,null,16.559322033898304,715,354.5,"""","""","""","""","""","""","""","""","2021-10-01 00:29:20",67.68.11.193,"Mozilla/5.0 (Macintosh; Intel Mac OS X 10_12_6) AppleWebKit/605.1.15 (KHTML, like Gecko) Version/12.1.2 Safari/605.1.15",Macintosh,Safari,12.1.2,"OS X",10_12_6,fe3c1d035a65c549f7011c5446f73ede
12,1,786,arrowright,psychophysics,92,212818,0.0-3.0-0.44,"""",key,arrowright,16.617021276595743,715,354.5,45,2,1,26,35,25,35,true,"2021-10-01 00:29:20",67.68.11.193,"Mozilla/5.0 (Macintosh; Intel Mac OS X 10_12_6) AppleWebKit/605.1.15 (KHTML, like Gecko) Version/12.1.2 Safari/605.1.15",Macintosh,Safari,12.1.2,"OS X",10_12_6,fe3c1d035a65c549f7011c5446f73ede
12,1,null,null,psychophysics,93,213832,0.0-3.0-1.44,"""",key,null,16.6,715,354.5,"""","""","""","""","""","""","""","""","2021-10-01 00:29:20",67.68.11.193,"Mozilla/5.0 (Macintosh; Intel Mac OS X 10_12_6) AppleWebKit/605.1.15 (KHTML, like Gecko) Version/12.1.2 Safari/605.1.15",Macintosh,Safari,12.1.2,"OS X",10_12_6,fe3c1d035a65c549f7011c5446f73ede
12,1,886,arrowright,psychophysics,94,214727,0.0-3.0-0.45,"""",key,arrowright,16.673076923076923,715,354.5,46,2,1,27,15,25,35,true,"2021-10-01 00:29:20",67.68.11.193,"Mozilla/5.0 (Macintosh; Intel Mac OS X 10_12_6) AppleWebKit/605.1.15 (KHTML, like Gecko) Version/12.1.2 Safari/605.1.15",Macintosh,Safari,12.1.2,"OS X",10_12_6,fe3c1d035a65c549f7011c5446f73ede
12,1,null,null,psychophysics,95,215733,0.0-3.0-1.45,"""",key,null,16.566666666666666,715,354.5,"""","""","""","""","""","""","""","""","2021-10-01 00:29:20",67.68.11.193,"Mozilla/5.0 (Macintosh; Intel Mac OS X 10_12_6) AppleWebKit/605.1.15 (KHTML, like Gecko) Version/12.1.2 Safari/605.1.15",Macintosh,Safari,12.1.2,"OS X",10_12_6,fe3c1d035a65c549f7011c5446f73ede
12,1,852,arrowright,psychophysics,96,216593,0.0-3.0-0.46,"""",key,arrowright,16.68,715,354.5,47,2,-1,23,35,25,35,false,"2021-10-01 00:29:20",67.68.11.193,"Mozilla/5.0 (Macintosh; Intel Mac OS X 10_12_6) AppleWebKit/605.1.15 (KHTML, like Gecko) Version/12.1.2 Safari/605.1.15",Macintosh,Safari,12.1.2,"OS X",10_12_6,fe3c1d035a65c549f7011c5446f73ede
12,1,null,null,psychophysics,97,217600,0.0-3.0-1.46,"""",key,null,16.583333333333332,715,354.5,"""","""","""","""","""","""","""","""","2021-10-01 00:29:20",67.68.11.193,"Mozilla/5.0 (Macintosh; Intel Mac OS X 10_12_6) AppleWebKit/605.1.15 (KHTML, like Gecko) Version/12.1.2 Safari/605.1.15",Macintosh,Safari,12.1.2,"OS X",10_12_6,fe3c1d035a65c549f7011c5446f73ede
12,1,827,arrowright,psychophysics,98,218436,0.0-3.0-0.47,"""",key,arrowright,16.6734693877551,715,354.5,48,2,1,24,15,25,35,true,"2021-10-01 00:29:20",67.68.11.193,"Mozilla/5.0 (Macintosh; Intel Mac OS X 10_12_6) AppleWebKit/605.1.15 (KHTML, like Gecko) Version/12.1.2 Safari/605.1.15",Macintosh,Safari,12.1.2,"OS X",10_12_6,fe3c1d035a65c549f7011c5446f73ede
12,1,null,null,psychophysics,99,219445,0.0-3.0-1.47,"""",key,null,16.64406779661017,715,354.5,"""","""","""","""","""","""","""","""","2021-10-01 00:29:20",67.68.11.193,"Mozilla/5.0 (Macintosh; Intel Mac OS X 10_12_6) AppleWebKit/605.1.15 (KHTML, like Gecko) Version/12.1.2 Safari/605.1.15",Macintosh,Safari,12.1.2,"OS X",10_12_6,fe3c1d035a65c549f7011c5446f73ede
12,1,577,arrowleft,psychophysics,100,220027,0.0-3.0-0.48,"""",key,arrowleft,16.61764705882353,715,354.5,49,2,-1,30,35,25,35,true,"2021-10-01 00:29:20",67.68.11.193,"Mozilla/5.0 (Macintosh; Intel Mac OS X 10_12_6) AppleWebKit/605.1.15 (KHTML, like Gecko) Version/12.1.2 Safari/605.1.15",Macintosh,Safari,12.1.2,"OS X",10_12_6,fe3c1d035a65c549f7011c5446f73ede
12,1,null,null,psychophysics,101,221031,0.0-3.0-1.48,"""",key,null,16.576271186440678,715,354.5,"""","""","""","""","""","""","""","""","2021-10-01 00:29:20",67.68.11.193,"Mozilla/5.0 (Macintosh; Intel Mac OS X 10_12_6) AppleWebKit/605.1.15 (KHTML, like Gecko) Version/12.1.2 Safari/605.1.15",Macintosh,Safari,12.1.2,"OS X",10_12_6,fe3c1d035a65c549f7011c5446f73ede
12,1,671,arrowright,psychophysics,102,221706,0.0-3.0-0.49,"""",key,arrowright,16.6,715,354.5,50,2,-1,20,35,25,35,false,"2021-10-01 00:29:20",67.68.11.193,"Mozilla/5.0 (Macintosh; Intel Mac OS X 10_12_6) AppleWebKit/605.1.15 (KHTML, like Gecko) Version/12.1.2 Safari/605.1.15",Macintosh,Safari,12.1.2,"OS X",10_12_6,fe3c1d035a65c549f7011c5446f73ede
12,1,null,null,psychophysics,103,222709,0.0-3.0-1.49,"""",key,null,16.677966101694917,715,354.5,"""","""","""","""","""","""","""","""","2021-10-01 00:29:20",67.68.11.193,"Mozilla/5.0 (Macintosh; Intel Mac OS X 10_12_6) AppleWebKit/605.1.15 (KHTML, like Gecko) Version/12.1.2 Safari/605.1.15",Macintosh,Safari,12.1.2,"OS X",10_12_6,fe3c1d035a65c549f7011c5446f73ede
12,1,649,arrowleft,psychophysics,104,223369,0.0-3.0-0.50,"""",key,arrowleft,16.564102564102566,715,354.5,51,2,-1,24,15,25,35,true,"2021-10-01 00:29:20",67.68.11.193,"Mozilla/5.0 (Macintosh; Intel Mac OS X 10_12_6) AppleWebKit/605.1.15 (KHTML, like Gecko) Version/12.1.2 Safari/605.1.15",Macintosh,Safari,12.1.2,"OS X",10_12_6,fe3c1d035a65c549f7011c5446f73ede
12,1,null,null,psychophysics,105,224372,0.0-3.0-1.50,"""",key,null,16.677966101694917,715,354.5,"""","""","""","""","""","""","""","""","2021-10-01 00:29:20",67.68.11.193,"Mozilla/5.0 (Macintosh; Intel Mac OS X 10_12_6) AppleWebKit/605.1.15 (KHTML, like Gecko) Version/12.1.2 Safari/605.1.15",Macintosh,Safari,12.1.2,"OS X",10_12_6,fe3c1d035a65c549f7011c5446f73ede
12,1,1116,arrowright,psychophysics,106,225495,0.0-3.0-0.51,"""",key,arrowright,16.681818181818183,715,354.5,52,2,-1,23,35,25,35,false,"2021-10-01 00:29:20",67.68.11.193,"Mozilla/5.0 (Macintosh; Intel Mac OS X 10_12_6) AppleWebKit/605.1.15 (KHTML, like Gecko) Version/12.1.2 Safari/605.1.15",Macintosh,Safari,12.1.2,"OS X",10_12_6,fe3c1d035a65c549f7011c5446f73ede
12,1,null,null,psychophysics,107,226505,0.0-3.0-1.51,"""",key,null,16.466666666666665,715,354.5,"""","""","""","""","""","""","""","""","2021-10-01 00:29:20",67.68.11.193,"Mozilla/5.0 (Macintosh; Intel Mac OS X 10_12_6) AppleWebKit/605.1.15 (KHTML, like Gecko) Version/12.1.2 Safari/605.1.15",Macintosh,Safari,12.1.2,"OS X",10_12_6,fe3c1d035a65c549f7011c5446f73ede
12,1,4280,arrowright,psychophysics,108,230793,0.0-3.0-0.52,"""",key,arrowright,16.671875,715,354.5,53,2,1,26,35,25,35,true,"2021-10-01 00:29:20",67.68.11.193,"Mozilla/5.0 (Macintosh; Intel Mac OS X 10_12_6) AppleWebKit/605.1.15 (KHTML, like Gecko) Version/12.1.2 Safari/605.1.15",Macintosh,Safari,12.1.2,"OS X",10_12_6,fe3c1d035a65c549f7011c5446f73ede
12,1,null,null,psychophysics,109,231797,0.0-3.0-1.52,"""",key,null,16.64406779661017,715,354.5,"""","""","""","""","""","""","""","""","2021-10-01 00:29:20",67.68.11.193,"Mozilla/5.0 (Macintosh; Intel Mac OS X 10_12_6) AppleWebKit/605.1.15 (KHTML, like Gecko) Version/12.1.2 Safari/605.1.15",Macintosh,Safari,12.1.2,"OS X",10_12_6,fe3c1d035a65c549f7011c5446f73ede
12,1,713,arrowright,psychophysics,110,232522,0.0-3.0-0.53,"""",key,arrowright,16.53488372093023,715,354.5,54,2,1,27,15,25,35,true,"2021-10-01 00:29:20",67.68.11.193,"Mozilla/5.0 (Macintosh; Intel Mac OS X 10_12_6) AppleWebKit/605.1.15 (KHTML, like Gecko) Version/12.1.2 Safari/605.1.15",Macintosh,Safari,12.1.2,"OS X",10_12_6,fe3c1d035a65c549f7011c5446f73ede
12,1,null,null,psychophysics,111,233525,0.0-3.0-1.53,"""",key,null,16.661016949152543,715,354.5,"""","""","""","""","""","""","""","""","2021-10-01 00:29:20",67.68.11.193,"Mozilla/5.0 (Macintosh; Intel Mac OS X 10_12_6) AppleWebKit/605.1.15 (KHTML, like Gecko) Version/12.1.2 Safari/605.1.15",Macintosh,Safari,12.1.2,"OS X",10_12_6,fe3c1d035a65c549f7011c5446f73ede
12,1,841.9999999999709,arrowright,psychophysics,112,234374,0.0-3.0-0.54,"""",key,arrowright,16.68,715,354.5,55,2,1,24,35,25,35,true,"2021-10-01 00:29:20",67.68.11.193,"Mozilla/5.0 (Macintosh; Intel Mac OS X 10_12_6) AppleWebKit/605.1.15 (KHTML, like Gecko) Version/12.1.2 Safari/605.1.15",Macintosh,Safari,12.1.2,"OS X",10_12_6,fe3c1d035a65c549f7011c5446f73ede
12,1,null,null,psychophysics,113,235377,0.0-3.0-1.54,"""",key,null,16.661016949152543,715,354.5,"""","""","""","""","""","""","""","""","2021-10-01 00:29:20",67.68.11.193,"Mozilla/5.0 (Macintosh; Intel Mac OS X 10_12_6) AppleWebKit/605.1.15 (KHTML, like Gecko) Version/12.1.2 Safari/605.1.15",Macintosh,Safari,12.1.2,"OS X",10_12_6,fe3c1d035a65c549f7011c5446f73ede
12,1,1216,arrowleft,psychophysics,114,236601,0.0-3.0-0.55,"""",key,arrowleft,16.666666666666668,715,354.5,56,3,1,20,15,25,35,false,"2021-10-01 00:29:20",67.68.11.193,"Mozilla/5.0 (Macintosh; Intel Mac OS X 10_12_6) AppleWebKit/605.1.15 (KHTML, like Gecko) Version/12.1.2 Safari/605.1.15",Macintosh,Safari,12.1.2,"OS X",10_12_6,fe3c1d035a65c549f7011c5446f73ede
12,1,null,null,psychophysics,115,237607,0.0-3.0-1.55,"""",key,null,16.566666666666666,715,354.5,"""","""","""","""","""","""","""","""","2021-10-01 00:29:20",67.68.11.193,"Mozilla/5.0 (Macintosh; Intel Mac OS X 10_12_6) AppleWebKit/605.1.15 (KHTML, like Gecko) Version/12.1.2 Safari/605.1.15",Macintosh,Safari,12.1.2,"OS X",10_12_6,fe3c1d035a65c549f7011c5446f73ede
12,1,4924," ",html-keyboard-response,116,242533,0.0-3.0-2.55-0.55,"<div style=""color: white; text-align: center; vertical-align: top; display: inline-block; width: 800px; margin: auto""><p>You have completed 20% of the trials. You are on block 3 of 10. <br>Good job! Take a break if you need to.</p><p>Press any key to continue the experiment.</p></div>","""","""","""","""","""","""","""","""","""","""","""","""","""","2021-10-01 00:29:20",67.68.11.193,"Mozilla/5.0 (Macintosh; Intel Mac OS X 10_12_6) AppleWebKit/605.1.15 (KHTML, like Gecko) Version/12.1.2 Safari/605.1.15",Macintosh,Safari,12.1.2,"OS X",10_12_6,fe3c1d035a65c549f7011c5446f73ede
12,1,1624,arrowleft,psychophysics,117,245168,0.0-3.0-0.56,"""",key,arrowleft,16.666666666666668,715,354.5,57,3,-1,25,15,25,35,true,"2021-10-01 00:29:20",67.68.11.193,"Mozilla/5.0 (Macintosh; Intel Mac OS X 10_12_6) AppleWebKit/605.1.15 (KHTML, like Gecko) Version/12.1.2 Safari/605.1.15",Macintosh,Safari,12.1.2,"OS X",10_12_6,fe3c1d035a65c549f7011c5446f73ede
12,1,null,null,psychophysics,118,246171,0.0-3.0-1.56,"""",key,null,16.627118644067796,715,354.5,"""","""","""","""","""","""","""","""","2021-10-01 00:29:20",67.68.11.193,"Mozilla/5.0 (Macintosh; Intel Mac OS X 10_12_6) AppleWebKit/605.1.15 (KHTML, like Gecko) Version/12.1.2 Safari/605.1.15",Macintosh,Safari,12.1.2,"OS X",10_12_6,fe3c1d035a65c549f7011c5446f73ede
12,1,2329,arrowright,psychophysics,119,248509,0.0-3.0-0.57,"""",key,arrowright,16.6,715,354.5,58,3,-1,23,15,25,35,false,"2021-10-01 00:29:20",67.68.11.193,"Mozilla/5.0 (Macintosh; Intel Mac OS X 10_12_6) AppleWebKit/605.1.15 (KHTML, like Gecko) Version/12.1.2 Safari/605.1.15",Macintosh,Safari,12.1.2,"OS X",10_12_6,fe3c1d035a65c549f7011c5446f73ede
12,1,null,null,psychophysics,120,249512,0.0-3.0-1.57,"""",key,null,16.677966101694917,715,354.5,"""","""","""","""","""","""","""","""","2021-10-01 00:29:20",67.68.11.193,"Mozilla/5.0 (Macintosh; Intel Mac OS X 10_12_6) AppleWebKit/605.1.15 (KHTML, like Gecko) Version/12.1.2 Safari/605.1.15",Macintosh,Safari,12.1.2,"OS X",10_12_6,fe3c1d035a65c549f7011c5446f73ede
12,1,677,arrowleft,psychophysics,121,250202,0.0-3.0-0.58,"""",key,arrowleft,16.625,715,354.5,59,3,1,20,35,25,35,false,"2021-10-01 00:29:20",67.68.11.193,"Mozilla/5.0 (Macintosh; Intel Mac OS X 10_12_6) AppleWebKit/605.1.15 (KHTML, like Gecko) Version/12.1.2 Safari/605.1.15",Macintosh,Safari,12.1.2,"OS X",10_12_6,fe3c1d035a65c549f7011c5446f73ede
12,1,null,null,psychophysics,122,251208,0.0-3.0-1.58,"""",key,null,16.583333333333332,715,354.5,"""","""","""","""","""","""","""","""","2021-10-01 00:29:20",67.68.11.193,"Mozilla/5.0 (Macintosh; Intel Mac OS X 10_12_6) AppleWebKit/605.1.15 (KHTML, like Gecko) Version/12.1.2 Safari/605.1.15",Macintosh,Safari,12.1.2,"OS X",10_12_6,fe3c1d035a65c549f7011c5446f73ede
12,1,640.9999999999709,arrowleft,psychophysics,123,251859,0.0-3.0-0.59,"""",key,arrowleft,16.657894736842106,715,354.5,60,3,-1,30,35,25,35,true,"2021-10-01 00:29:20",67.68.11.193,"Mozilla/5.0 (Macintosh; Intel Mac OS X 10_12_6) AppleWebKit/605.1.15 (KHTML, like Gecko) Version/12.1.2 Safari/605.1.15",Macintosh,Safari,12.1.2,"OS X",10_12_6,fe3c1d035a65c549f7011c5446f73ede
12,1,null,null,psychophysics,124,252862,0.0-3.0-1.59,"""",key,null,16.677966101694917,715,354.5,"""","""","""","""","""","""","""","""","2021-10-01 00:29:20",67.68.11.193,"Mozilla/5.0 (Macintosh; Intel Mac OS X 10_12_6) AppleWebKit/605.1.15 (KHTML, like Gecko) Version/12.1.2 Safari/605.1.15",Macintosh,Safari,12.1.2,"OS X",10_12_6,fe3c1d035a65c549f7011c5446f73ede
12,1,584,arrowright,psychophysics,125,253453,0.0-3.0-0.60,"""",key,arrowright,16.676470588235293,715,354.5,61,3,-1,20,35,25,35,false,"2021-10-01 00:29:20",67.68.11.193,"Mozilla/5.0 (Macintosh; Intel Mac OS X 10_12_6) AppleWebKit/605.1.15 (KHTML, like Gecko) Version/12.1.2 Safari/605.1.15",Macintosh,Safari,12.1.2,"OS X",10_12_6,fe3c1d035a65c549f7011c5446f73ede
12,1,null,null,psychophysics,126,254457,0.0-3.0-1.60,"""",key,null,16.576271186440678,715,354.5,"""","""","""","""","""","""","""","""","2021-10-01 00:29:20",67.68.11.193,"Mozilla/5.0 (Macintosh; Intel Mac OS X 10_12_6) AppleWebKit/605.1.15 (KHTML, like Gecko) Version/12.1.2 Safari/605.1.15",Macintosh,Safari,12.1.2,"OS X",10_12_6,fe3c1d035a65c549f7011c5446f73ede
12,1,1406.999999999971,arrowright,psychophysics,127,255877,0.0-3.0-0.61,"""",key,arrowright,16.611764705882354,715,354.5,62,3,1,24,15,25,35,true,"2021-10-01 00:29:20",67.68.11.193,"Mozilla/5.0 (Macintosh; Intel Mac OS X 10_12_6) AppleWebKit/605.1.15 (KHTML, like Gecko) Version/12.1.2 Safari/605.1.15",Macintosh,Safari,12.1.2,"OS X",10_12_6,fe3c1d035a65c549f7011c5446f73ede
12,1,null,null,psychophysics,128,256886,0.0-3.0-1.61,"""",key,null,16.576271186440678,715,354.5,"""","""","""","""","""","""","""","""","2021-10-01 00:29:20",67.68.11.193,"Mozilla/5.0 (Macintosh; Intel Mac OS X 10_12_6) AppleWebKit/605.1.15 (KHTML, like Gecko) Version/12.1.2 Safari/605.1.15",Macintosh,Safari,12.1.2,"OS X",10_12_6,fe3c1d035a65c549f7011c5446f73ede
12,1,634.9999999999709,arrowright,psychophysics,129,257536,0.0-3.0-0.62,"""",key,arrowright,16.68421052631579,715,354.5,63,3,1,30,15,25,35,true,"2021-10-01 00:29:20",67.68.11.193,"Mozilla/5.0 (Macintosh; Intel Mac OS X 10_12_6) AppleWebKit/605.1.15 (KHTML, like Gecko) Version/12.1.2 Safari/605.1.15",Macintosh,Safari,12.1.2,"OS X",10_12_6,fe3c1d035a65c549f7011c5446f73ede
12,1,null,null,psychophysics,130,258540,0.0-3.0-1.62,"""",key,null,16.610169491525422,715,354.5,"""","""","""","""","""","""","""","""","2021-10-01 00:29:20",67.68.11.193,"Mozilla/5.0 (Macintosh; Intel Mac OS X 10_12_6) AppleWebKit/605.1.15 (KHTML, like Gecko) Version/12.1.2 Safari/605.1.15",Macintosh,Safari,12.1.2,"OS X",10_12_6,fe3c1d035a65c549f7011c5446f73ede
12,1,666,arrowright,psychophysics,131,259211,0.0-3.0-0.63,"""",key,arrowright,16.575,715,354.5,64,3,1,27,35,25,35,true,"2021-10-01 00:29:20",67.68.11.193,"Mozilla/5.0 (Macintosh; Intel Mac OS X 10_12_6) AppleWebKit/605.1.15 (KHTML, like Gecko) Version/12.1.2 Safari/605.1.15",Macintosh,Safari,12.1.2,"OS X",10_12_6,fe3c1d035a65c549f7011c5446f73ede
12,1,null,null,psychophysics,132,260215,0.0-3.0-1.63,"""",key,null,16.677966101694917,715,354.5,"""","""","""","""","""","""","""","""","2021-10-01 00:29:20",67.68.11.193,"Mozilla/5.0 (Macintosh; Intel Mac OS X 10_12_6) AppleWebKit/605.1.15 (KHTML, like Gecko) Version/12.1.2 Safari/605.1.15",Macintosh,Safari,12.1.2,"OS X",10_12_6,fe3c1d035a65c549f7011c5446f73ede
12,1,806,arrowright,psychophysics,133,261029,0.0-3.0-0.64,"""",key,arrowright,16.645833333333332,715,354.5,65,3,1,26,15,25,35,true,"2021-10-01 00:29:20",67.68.11.193,"Mozilla/5.0 (Macintosh; Intel Mac OS X 10_12_6) AppleWebKit/605.1.15 (KHTML, like Gecko) Version/12.1.2 Safari/605.1.15",Macintosh,Safari,12.1.2,"OS X",10_12_6,fe3c1d035a65c549f7011c5446f73ede
12,1,null,null,psychophysics,134,262032,0.0-3.0-1.64,"""",key,null,16.661016949152543,715,354.5,"""","""","""","""","""","""","""","""","2021-10-01 00:29:20",67.68.11.193,"Mozilla/5.0 (Macintosh; Intel Mac OS X 10_12_6) AppleWebKit/605.1.15 (KHTML, like Gecko) Version/12.1.2 Safari/605.1.15",Macintosh,Safari,12.1.2,"OS X",10_12_6,fe3c1d035a65c549f7011c5446f73ede
12,1,1195,arrowright,psychophysics,135,263241,0.0-3.0-0.65,"""",key,arrowright,16.633802816901408,715,354.5,66,3,-1,24,35,25,35,false,"2021-10-01 00:29:20",67.68.11.193,"Mozilla/5.0 (Macintosh; Intel Mac OS X 10_12_6) AppleWebKit/605.1.15 (KHTML, like Gecko) Version/12.1.2 Safari/605.1.15",Macintosh,Safari,12.1.2,"OS X",10_12_6,fe3c1d035a65c549f7011c5446f73ede
12,1,null,null,psychophysics,136,264245,0.0-3.0-1.65,"""",key,null,16.533333333333335,715,354.5,"""","""","""","""","""","""","""","""","2021-10-01 00:29:20",67.68.11.193,"Mozilla/5.0 (Macintosh; Intel Mac OS X 10_12_6) AppleWebKit/605.1.15 (KHTML, like Gecko) Version/12.1.2 Safari/605.1.15",Macintosh,Safari,12.1.2,"OS X",10_12_6,fe3c1d035a65c549f7011c5446f73ede
12,1,1082.0000000000582,arrowright,psychophysics,137,265333,0.0-3.0-0.66,"""",key,arrowright,16.6875,715,354.5,67,3,1,23,15,25,35,true,"2021-10-01 00:29:20",67.68.11.193,"Mozilla/5.0 (Macintosh; Intel Mac OS X 10_12_6) AppleWebKit/605.1.15 (KHTML, like Gecko) Version/12.1.2 Safari/605.1.15",Macintosh,Safari,12.1.2,"OS X",10_12_6,fe3c1d035a65c549f7011c5446f73ede
12,1,null,null,psychophysics,138,266336,0.0-3.0-1.66,"""",key,null,16.677966101694917,715,354.5,"""","""","""","""","""","""","""","""","2021-10-01 00:29:20",67.68.11.193,"Mozilla/5.0 (Macintosh; Intel Mac OS X 10_12_6) AppleWebKit/605.1.15 (KHTML, like Gecko) Version/12.1.2 Safari/605.1.15",Macintosh,Safari,12.1.2,"OS X",10_12_6,fe3c1d035a65c549f7011c5446f73ede
12,1,1693.9999999999418,arrowleft,psychophysics,139,268040,0.0-3.0-0.67,"""",key,arrowleft,16.663366336633665,715,354.5,68,3,-1,26,35,25,35,true,"2021-10-01 00:29:20",67.68.11.193,"Mozilla/5.0 (Macintosh; Intel Mac OS X 10_12_6) AppleWebKit/605.1.15 (KHTML, like Gecko) Version/12.1.2 Safari/605.1.15",Macintosh,Safari,12.1.2,"OS X",10_12_6,fe3c1d035a65c549f7011c5446f73ede
12,1,null,null,psychophysics,140,269049,0.0-3.0-1.67,"""",key,null,16.5,715,354.5,"""","""","""","""","""","""","""","""","2021-10-01 00:29:20",67.68.11.193,"Mozilla/5.0 (Macintosh; Intel Mac OS X 10_12_6) AppleWebKit/605.1.15 (KHTML, like Gecko) Version/12.1.2 Safari/605.1.15",Macintosh,Safari,12.1.2,"OS X",10_12_6,fe3c1d035a65c549f7011c5446f73ede
12,1,1503,arrowleft,psychophysics,141,270561,0.0-3.0-0.68,"""",key,arrowleft,16.685393258426966,715,354.5,69,3,-1,26,15,25,35,true,"2021-10-01 00:29:20",67.68.11.193,"Mozilla/5.0 (Macintosh; Intel Mac OS X 10_12_6) AppleWebKit/605.1.15 (KHTML, like Gecko) Version/12.1.2 Safari/605.1.15",Macintosh,Safari,12.1.2,"OS X",10_12_6,fe3c1d035a65c549f7011c5446f73ede
12,1,null,null,psychophysics,142,271566,0.0-3.0-1.68,"""",key,null,16.533333333333335,715,354.5,"""","""","""","""","""","""","""","""","2021-10-01 00:29:20",67.68.11.193,"Mozilla/5.0 (Macintosh; Intel Mac OS X 10_12_6) AppleWebKit/605.1.15 (KHTML, like Gecko) Version/12.1.2 Safari/605.1.15",Macintosh,Safari,12.1.2,"OS X",10_12_6,fe3c1d035a65c549f7011c5446f73ede
12,1,2117,arrowleft,psychophysics,143,273692,0.0-3.0-0.69,"""",key,arrowleft,16.674603174603174,715,354.5,70,3,1,23,15,25,35,false,"2021-10-01 00:29:20",67.68.11.193,"Mozilla/5.0 (Macintosh; Intel Mac OS X 10_12_6) AppleWebKit/605.1.15 (KHTML, like Gecko) Version/12.1.2 Safari/605.1.15",Macintosh,Safari,12.1.2,"OS X",10_12_6,fe3c1d035a65c549f7011c5446f73ede
12,1,null,null,psychophysics,144,274696,0.0-3.0-1.69,"""",key,null,16.593220338983052,715,354.5,"""","""","""","""","""","""","""","""","2021-10-01 00:29:20",67.68.11.193,"Mozilla/5.0 (Macintosh; Intel Mac OS X 10_12_6) AppleWebKit/605.1.15 (KHTML, like Gecko) Version/12.1.2 Safari/605.1.15",Macintosh,Safari,12.1.2,"OS X",10_12_6,fe3c1d035a65c549f7011c5446f73ede
12,1,884,arrowright,psychophysics,145,275589,0.0-3.0-0.70,"""",key,arrowright,16.547169811320753,715,354.5,71,3,1,24,15,25,35,true,"2021-10-01 00:29:20",67.68.11.193,"Mozilla/5.0 (Macintosh; Intel Mac OS X 10_12_6) AppleWebKit/605.1.15 (KHTML, like Gecko) Version/12.1.2 Safari/605.1.15",Macintosh,Safari,12.1.2,"OS X",10_12_6,fe3c1d035a65c549f7011c5446f73ede
12,1,null,null,psychophysics,146,276592,0.0-3.0-1.70,"""",key,null,16.677966101694917,715,354.5,"""","""","""","""","""","""","""","""","2021-10-01 00:29:20",67.68.11.193,"Mozilla/5.0 (Macintosh; Intel Mac OS X 10_12_6) AppleWebKit/605.1.15 (KHTML, like Gecko) Version/12.1.2 Safari/605.1.15",Macintosh,Safari,12.1.2,"OS X",10_12_6,fe3c1d035a65c549f7011c5446f73ede
12,1,915,arrowright,psychophysics,147,277518,0.0-3.0-0.71,"""",key,arrowright,16.563636363636363,715,354.5,72,3,-1,20,35,25,35,false,"2021-10-01 00:29:20",67.68.11.193,"Mozilla/5.0 (Macintosh; Intel Mac OS X 10_12_6) AppleWebKit/605.1.15 (KHTML, like Gecko) Version/12.1.2 Safari/605.1.15",Macintosh,Safari,12.1.2,"OS X",10_12_6,fe3c1d035a65c549f7011c5446f73ede
12,1,null,null,psychophysics,148,278521,0.0-3.0-1.71,"""",key,null,16.677966101694917,715,354.5,"""","""","""","""","""","""","""","""","2021-10-01 00:29:20",67.68.11.193,"Mozilla/5.0 (Macintosh; Intel Mac OS X 10_12_6) AppleWebKit/605.1.15 (KHTML, like Gecko) Version/12.1.2 Safari/605.1.15",Macintosh,Safari,12.1.2,"OS X",10_12_6,fe3c1d035a65c549f7011c5446f73ede
12,1,3860,arrowleft,psychophysics,149,282389,0.0-3.0-0.72,"""",key,arrowleft,16.67965367965368,715,354.5,73,3,1,23,35,25,35,false,"2021-10-01 00:29:20",67.68.11.193,"Mozilla/5.0 (Macintosh; Intel Mac OS X 10_12_6) AppleWebKit/605.1.15 (KHTML, like Gecko) Version/12.1.2 Safari/605.1.15",Macintosh,Safari,12.1.2,"OS X",10_12_6,fe3c1d035a65c549f7011c5446f73ede
12,1,null,null,psychophysics,150,283399,0.0-3.0-1.72,"""",key,null,16.593220338983052,715,354.5,"""","""","""","""","""","""","""","""","2021-10-01 00:29:20",67.68.11.193,"Mozilla/5.0 (Macintosh; Intel Mac OS X 10_12_6) AppleWebKit/605.1.15 (KHTML, like Gecko) Version/12.1.2 Safari/605.1.15",Macintosh,Safari,12.1.2,"OS X",10_12_6,fe3c1d035a65c549f7011c5446f73ede
12,1,2912,arrowright,psychophysics,151,286323,0.0-3.0-0.73,"""",key,arrowright,16.65714285714286,715,354.5,74,3,1,24,35,25,35,true,"2021-10-01 00:29:20",67.68.11.193,"Mozilla/5.0 (Macintosh; Intel Mac OS X 10_12_6) AppleWebKit/605.1.15 (KHTML, like Gecko) Version/12.1.2 Safari/605.1.15",Macintosh,Safari,12.1.2,"OS X",10_12_6,fe3c1d035a65c549f7011c5446f73ede
12,1,null,null,psychophysics,152,287325,0.0-3.0-1.73,"""",key,null,16.661016949152543,715,354.5,"""","""","""","""","""","""","""","""","2021-10-01 00:29:20",67.68.11.193,"Mozilla/5.0 (Macintosh; Intel Mac OS X 10_12_6) AppleWebKit/605.1.15 (KHTML, like Gecko) Version/12.1.2 Safari/605.1.15",Macintosh,Safari,12.1.2,"OS X",10_12_6,fe3c1d035a65c549f7011c5446f73ede
12,1,1331,arrowright,psychophysics,153,288666,0.0-3.0-0.74,"""",key,arrowright,16.658227848101266,715,354.5,75,3,-1,24,35,25,35,false,"2021-10-01 00:29:20",67.68.11.193,"Mozilla/5.0 (Macintosh; Intel Mac OS X 10_12_6) AppleWebKit/605.1.15 (KHTML, like Gecko) Version/12.1.2 Safari/605.1.15",Macintosh,Safari,12.1.2,"OS X",10_12_6,fe3c1d035a65c549f7011c5446f73ede
12,1,null,null,psychophysics,154,289669,0.0-3.0-1.74,"""",key,null,16.559322033898304,715,354.5,"""","""","""","""","""","""","""","""","2021-10-01 00:29:20",67.68.11.193,"Mozilla/5.0 (Macintosh; Intel Mac OS X 10_12_6) AppleWebKit/605.1.15 (KHTML, like Gecko) Version/12.1.2 Safari/605.1.15",Macintosh,Safari,12.1.2,"OS X",10_12_6,fe3c1d035a65c549f7011c5446f73ede
12,1,1044,arrowleft,psychophysics,155,290723,0.0-3.0-0.75,"""",key,arrowleft,16.523809523809526,715,354.5,76,3,1,23,35,25,35,false,"2021-10-01 00:29:20",67.68.11.193,"Mozilla/5.0 (Macintosh; Intel Mac OS X 10_12_6) AppleWebKit/605.1.15 (KHTML, like Gecko) Version/12.1.2 Safari/605.1.15",Macintosh,Safari,12.1.2,"OS X",10_12_6,fe3c1d035a65c549f7011c5446f73ede
12,1,null,null,psychophysics,156,291726,0.0-3.0-1.75,"""",key,null,16.677966101694917,715,354.5,"""","""","""","""","""","""","""","""","2021-10-01 00:29:20",67.68.11.193,"Mozilla/5.0 (Macintosh; Intel Mac OS X 10_12_6) AppleWebKit/605.1.15 (KHTML, like Gecko) Version/12.1.2 Safari/605.1.15",Macintosh,Safari,12.1.2,"OS X",10_12_6,fe3c1d035a65c549f7011c5446f73ede
12,1,689.0000000000582,arrowleft,psychophysics,157,292423,0.0-3.0-0.76,"""",key,arrowleft,16.658536585365855,715,354.5,77,3,-1,27,35,25,35,true,"2021-10-01 00:29:20",67.68.11.193,"Mozilla/5.0 (Macintosh; Intel Mac OS X 10_12_6) AppleWebKit/605.1.15 (KHTML, like Gecko) Version/12.1.2 Safari/605.1.15",Macintosh,Safari,12.1.2,"OS X",10_12_6,fe3c1d035a65c549f7011c5446f73ede
12,1,null,null,psychophysics,158,293426,0.0-3.0-1.76,"""",key,null,16.677966101694917,715,354.5,"""","""","""","""","""","""","""","""","2021-10-01 00:29:20",67.68.11.193,"Mozilla/5.0 (Macintosh; Intel Mac OS X 10_12_6) AppleWebKit/605.1.15 (KHTML, like Gecko) Version/12.1.2 Safari/605.1.15",Macintosh,Safari,12.1.2,"OS X",10_12_6,fe3c1d035a65c549f7011c5446f73ede
12,1,579,arrowright,psychophysics,159,294012,0.0-3.0-0.77,"""",key,arrowright,16.676470588235293,715,354.5,78,3,1,27,15,25,35,true,"2021-10-01 00:29:20",67.68.11.193,"Mozilla/5.0 (Macintosh; Intel Mac OS X 10_12_6) AppleWebKit/605.1.15 (KHTML, like Gecko) Version/12.1.2 Safari/605.1.15",Macintosh,Safari,12.1.2,"OS X",10_12_6,fe3c1d035a65c549f7011c5446f73ede
12,1,null,null,psychophysics,160,295017,0.0-3.0-1.77,"""",key,null,16.661016949152543,715,354.5,"""","""","""","""","""","""","""","""","2021-10-01 00:29:20",67.68.11.193,"Mozilla/5.0 (Macintosh; Intel Mac OS X 10_12_6) AppleWebKit/605.1.15 (KHTML, like Gecko) Version/12.1.2 Safari/605.1.15",Macintosh,Safari,12.1.2,"OS X",10_12_6,fe3c1d035a65c549f7011c5446f73ede
12,1,720,arrowright,psychophysics,161,295758,0.0-3.0-0.78,"""",key,arrowright,16.613636363636363,715,354.5,79,3,-1,25,35,25,35,false,"2021-10-01 00:29:20",67.68.11.193,"Mozilla/5.0 (Macintosh; Intel Mac OS X 10_12_6) AppleWebKit/605.1.15 (KHTML, like Gecko) Version/12.1.2 Safari/605.1.15",Macintosh,Safari,12.1.2,"OS X",10_12_6,fe3c1d035a65c549f7011c5446f73ede
12,1,null,null,psychophysics,162,296762,0.0-3.0-1.78,"""",key,null,16.64406779661017,715,354.5,"""","""","""","""","""","""","""","""","2021-10-01 00:29:20",67.68.11.193,"Mozilla/5.0 (Macintosh; Intel Mac OS X 10_12_6) AppleWebKit/605.1.15 (KHTML, like Gecko) Version/12.1.2 Safari/605.1.15",Macintosh,Safari,12.1.2,"OS X",10_12_6,fe3c1d035a65c549f7011c5446f73ede
12,1,637,arrowleft,psychophysics,163,297408,0.0-3.0-0.79,"""",key,arrowleft,16.68421052631579,715,354.5,80,3,-1,30,35,25,35,true,"2021-10-01 00:29:20",67.68.11.193,"Mozilla/5.0 (Macintosh; Intel Mac OS X 10_12_6) AppleWebKit/605.1.15 (KHTML, like Gecko) Version/12.1.2 Safari/605.1.15",Macintosh,Safari,12.1.2,"OS X",10_12_6,fe3c1d035a65c549f7011c5446f73ede
12,1,null,null,psychophysics,164,298411,0.0-3.0-1.79,"""",key,null,16.661016949152543,715,354.5,"""","""","""","""","""","""","""","""","2021-10-01 00:29:20",67.68.11.193,"Mozilla/5.0 (Macintosh; Intel Mac OS X 10_12_6) AppleWebKit/605.1.15 (KHTML, like Gecko) Version/12.1.2 Safari/605.1.15",Macintosh,Safari,12.1.2,"OS X",10_12_6,fe3c1d035a65c549f7011c5446f73ede
12,1,572,arrowright,psychophysics,165,298996,0.0-3.0-0.80,"""",key,arrowright,16.647058823529413,715,354.5,81,3,1,26,15,25,35,true,"2021-10-01 00:29:20",67.68.11.193,"Mozilla/5.0 (Macintosh; Intel Mac OS X 10_12_6) AppleWebKit/605.1.15 (KHTML, like Gecko) Version/12.1.2 Safari/605.1.15",Macintosh,Safari,12.1.2,"OS X",10_12_6,fe3c1d035a65c549f7011c5446f73ede
12,1,null,null,psychophysics,166,300000,0.0-3.0-1.80,"""",key,null,16.677966101694917,715,354.5,"""","""","""","""","""","""","""","""","2021-10-01 00:29:20",67.68.11.193,"Mozilla/5.0 (Macintosh; Intel Mac OS X 10_12_6) AppleWebKit/605.1.15 (KHTML, like Gecko) Version/12.1.2 Safari/605.1.15",Macintosh,Safari,12.1.2,"OS X",10_12_6,fe3c1d035a65c549f7011c5446f73ede
12,1,592,arrowright,psychophysics,167,300603,0.0-3.0-0.81,"""",key,arrowright,16.542857142857144,715,354.5,82,3,1,30,15,25,35,true,"2021-10-01 00:29:20",67.68.11.193,"Mozilla/5.0 (Macintosh; Intel Mac OS X 10_12_6) AppleWebKit/605.1.15 (KHTML, like Gecko) Version/12.1.2 Safari/605.1.15",Macintosh,Safari,12.1.2,"OS X",10_12_6,fe3c1d035a65c549f7011c5446f73ede
12,1,null,null,psychophysics,168,301607,0.0-3.0-1.81,"""",key,null,16.576271186440678,715,354.5,"""","""","""","""","""","""","""","""","2021-10-01 00:29:20",67.68.11.193,"Mozilla/5.0 (Macintosh; Intel Mac OS X 10_12_6) AppleWebKit/605.1.15 (KHTML, like Gecko) Version/12.1.2 Safari/605.1.15",Macintosh,Safari,12.1.2,"OS X",10_12_6,fe3c1d035a65c549f7011c5446f73ede
12,1,599,arrowleft,psychophysics,169,302210,0.0-3.0-0.82,"""",key,arrowleft,16.555555555555557,715,354.5,83,3,-1,25,15,25,35,true,"2021-10-01 00:29:20",67.68.11.193,"Mozilla/5.0 (Macintosh; Intel Mac OS X 10_12_6) AppleWebKit/605.1.15 (KHTML, like Gecko) Version/12.1.2 Safari/605.1.15",Macintosh,Safari,12.1.2,"OS X",10_12_6,fe3c1d035a65c549f7011c5446f73ede
12,1,null,null,psychophysics,170,303213,0.0-3.0-1.82,"""",key,null,16.677966101694917,715,354.5,"""","""","""","""","""","""","""","""","2021-10-01 00:29:20",67.68.11.193,"Mozilla/5.0 (Macintosh; Intel Mac OS X 10_12_6) AppleWebKit/605.1.15 (KHTML, like Gecko) Version/12.1.2 Safari/605.1.15",Macintosh,Safari,12.1.2,"OS X",10_12_6,fe3c1d035a65c549f7011c5446f73ede
12,1,750.9999999999418,arrowright,psychophysics,171,303972,0.0-3.0-0.83,"""",key,arrowright,16.681818181818183,715,354.5,84,4,1,24,15,25,35,true,"2021-10-01 00:29:20",67.68.11.193,"Mozilla/5.0 (Macintosh; Intel Mac OS X 10_12_6) AppleWebKit/605.1.15 (KHTML, like Gecko) Version/12.1.2 Safari/605.1.15",Macintosh,Safari,12.1.2,"OS X",10_12_6,fe3c1d035a65c549f7011c5446f73ede
12,1,null,null,psychophysics,172,304978,0.0-3.0-1.83,"""",key,null,16.566666666666666,715,354.5,"""","""","""","""","""","""","""","""","2021-10-01 00:29:20",67.68.11.193,"Mozilla/5.0 (Macintosh; Intel Mac OS X 10_12_6) AppleWebKit/605.1.15 (KHTML, like Gecko) Version/12.1.2 Safari/605.1.15",Macintosh,Safari,12.1.2,"OS X",10_12_6,fe3c1d035a65c549f7011c5446f73ede
12,1,15010," ",html-keyboard-response,173,319996,0.0-3.0-2.83-0.83,"<div style=""color: white; text-align: center; vertical-align: top; display: inline-block; width: 800px; margin: auto""><p>You have completed 30% of the trials. You are on block 4 of 10. <br>Good job! Take a break if you need to.</p><p>Press any key to continue the experiment.</p></div>","""","""","""","""","""","""","""","""","""","""","""","""","""","2021-10-01 00:29:20",67.68.11.193,"Mozilla/5.0 (Macintosh; Intel Mac OS X 10_12_6) AppleWebKit/605.1.15 (KHTML, like Gecko) Version/12.1.2 Safari/605.1.15",Macintosh,Safari,12.1.2,"OS X",10_12_6,fe3c1d035a65c549f7011c5446f73ede
12,1,905,arrowleft,psychophysics,174,321908,0.0-3.0-0.84,"""",key,arrowleft,16.660377358490567,715,354.5,85,4,-1,30,15,25,35,true,"2021-10-01 00:29:20",67.68.11.193,"Mozilla/5.0 (Macintosh; Intel Mac OS X 10_12_6) AppleWebKit/605.1.15 (KHTML, like Gecko) Version/12.1.2 Safari/605.1.15",Macintosh,Safari,12.1.2,"OS X",10_12_6,fe3c1d035a65c549f7011c5446f73ede
12,1,null,null,psychophysics,175,322920,0.0-3.0-1.84,"""",key,null,16.74576271186441,715,354.5,"""","""","""","""","""","""","""","""","2021-10-01 00:29:20",67.68.11.193,"Mozilla/5.0 (Macintosh; Intel Mac OS X 10_12_6) AppleWebKit/605.1.15 (KHTML, like Gecko) Version/12.1.2 Safari/605.1.15",Macintosh,Safari,12.1.2,"OS X",10_12_6,fe3c1d035a65c549f7011c5446f73ede
12,1,1063,arrowleft,psychophysics,176,323993,0.0-3.0-0.85,"""",key,arrowleft,16.634920634920636,715,354.5,86,4,1,23,35,25,35,false,"2021-10-01 00:29:20",67.68.11.193,"Mozilla/5.0 (Macintosh; Intel Mac OS X 10_12_6) AppleWebKit/605.1.15 (KHTML, like Gecko) Version/12.1.2 Safari/605.1.15",Macintosh,Safari,12.1.2,"OS X",10_12_6,fe3c1d035a65c549f7011c5446f73ede
12,1,null,null,psychophysics,177,324999,0.0-3.0-1.85,"""",key,null,16.55,715,354.5,"""","""","""","""","""","""","""","""","2021-10-01 00:29:20",67.68.11.193,"Mozilla/5.0 (Macintosh; Intel Mac OS X 10_12_6) AppleWebKit/605.1.15 (KHTML, like Gecko) Version/12.1.2 Safari/605.1.15",Macintosh,Safari,12.1.2,"OS X",10_12_6,fe3c1d035a65c549f7011c5446f73ede
12,1,662,arrowleft,psychophysics,178,325670,0.0-3.0-0.86,"""",key,arrowleft,16.692307692307693,715,354.5,87,4,-1,23,15,25,35,true,"2021-10-01 00:29:20",67.68.11.193,"Mozilla/5.0 (Macintosh; Intel Mac OS X 10_12_6) AppleWebKit/605.1.15 (KHTML, like Gecko) Version/12.1.2 Safari/605.1.15",Macintosh,Safari,12.1.2,"OS X",10_12_6,fe3c1d035a65c549f7011c5446f73ede
12,1,null,null,psychophysics,179,326673,0.0-3.0-1.86,"""",key,null,16.677966101694917,715,354.5,"""","""","""","""","""","""","""","""","2021-10-01 00:29:20",67.68.11.193,"Mozilla/5.0 (Macintosh; Intel Mac OS X 10_12_6) AppleWebKit/605.1.15 (KHTML, like Gecko) Version/12.1.2 Safari/605.1.15",Macintosh,Safari,12.1.2,"OS X",10_12_6,fe3c1d035a65c549f7011c5446f73ede
12,1,623,arrowleft,psychophysics,180,327305,0.0-3.0-0.87,"""",key,arrowleft,16.64864864864865,715,354.5,88,4,-1,25,15,25,35,true,"2021-10-01 00:29:20",67.68.11.193,"Mozilla/5.0 (Macintosh; Intel Mac OS X 10_12_6) AppleWebKit/605.1.15 (KHTML, like Gecko) Version/12.1.2 Safari/605.1.15",Macintosh,Safari,12.1.2,"OS X",10_12_6,fe3c1d035a65c549f7011c5446f73ede
12,1,null,null,psychophysics,181,328308,0.0-3.0-1.87,"""",key,null,16.677966101694917,715,354.5,"""","""","""","""","""","""","""","""","2021-10-01 00:29:20",67.68.11.193,"Mozilla/5.0 (Macintosh; Intel Mac OS X 10_12_6) AppleWebKit/605.1.15 (KHTML, like Gecko) Version/12.1.2 Safari/605.1.15",Macintosh,Safari,12.1.2,"OS X",10_12_6,fe3c1d035a65c549f7011c5446f73ede
12,1,534,arrowleft,psychophysics,182,328852,0.0-3.0-0.88,"""",key,arrowleft,16.59375,715,354.5,89,4,-1,30,15,25,35,true,"2021-10-01 00:29:20",67.68.11.193,"Mozilla/5.0 (Macintosh; Intel Mac OS X 10_12_6) AppleWebKit/605.1.15 (KHTML, like Gecko) Version/12.1.2 Safari/605.1.15",Macintosh,Safari,12.1.2,"OS X",10_12_6,fe3c1d035a65c549f7011c5446f73ede
12,1,null,null,psychophysics,183,329855,0.0-3.0-1.88,"""",key,null,16.661016949152543,715,354.5,"""","""","""","""","""","""","""","""","2021-10-01 00:29:20",67.68.11.193,"Mozilla/5.0 (Macintosh; Intel Mac OS X 10_12_6) AppleWebKit/605.1.15 (KHTML, like Gecko) Version/12.1.2 Safari/605.1.15",Macintosh,Safari,12.1.2,"OS X",10_12_6,fe3c1d035a65c549f7011c5446f73ede
12,1,773,arrowright,psychophysics,184,330636,0.0-3.0-0.89,"""",key,arrowright,16.67391304347826,715,354.5,90,4,-1,25,35,25,35,false,"2021-10-01 00:29:20",67.68.11.193,"Mozilla/5.0 (Macintosh; Intel Mac OS X 10_12_6) AppleWebKit/605.1.15 (KHTML, like Gecko) Version/12.1.2 Safari/605.1.15",Macintosh,Safari,12.1.2,"OS X",10_12_6,fe3c1d035a65c549f7011c5446f73ede
12,1,null,null,psychophysics,185,331639,0.0-3.0-1.89,"""",key,null,16.661016949152543,715,354.5,"""","""","""","""","""","""","""","""","2021-10-01 00:29:20",67.68.11.193,"Mozilla/5.0 (Macintosh; Intel Mac OS X 10_12_6) AppleWebKit/605.1.15 (KHTML, like Gecko) Version/12.1.2 Safari/605.1.15",Macintosh,Safari,12.1.2,"OS X",10_12_6,fe3c1d035a65c549f7011c5446f73ede
12,1,1453.9999999999418,arrowright,psychophysics,186,333103,0.0-3.0-0.90,"""",key,arrowright,16.666666666666668,715,354.5,91,4,1,26,35,25,35,true,"2021-10-01 00:29:20",67.68.11.193,"Mozilla/5.0 (Macintosh; Intel Mac OS X 10_12_6) AppleWebKit/605.1.15 (KHTML, like Gecko) Version/12.1.2 Safari/605.1.15",Macintosh,Safari,12.1.2,"OS X",10_12_6,fe3c1d035a65c549f7011c5446f73ede
12,1,null,null,psychophysics,187,334107,0.0-3.0-1.90,"""",key,null,16.677966101694917,715,354.5,"""","""","""","""","""","""","""","""","2021-10-01 00:29:20",67.68.11.193,"Mozilla/5.0 (Macintosh; Intel Mac OS X 10_12_6) AppleWebKit/605.1.15 (KHTML, like Gecko) Version/12.1.2 Safari/605.1.15",Macintosh,Safari,12.1.2,"OS X",10_12_6,fe3c1d035a65c549f7011c5446f73ede
12,1,859,arrowleft,psychophysics,188,334980,0.0-3.0-0.91,"""",key,arrowleft,16.627450980392158,715,354.5,92,4,-1,26,35,25,35,true,"2021-10-01 00:29:20",67.68.11.193,"Mozilla/5.0 (Macintosh; Intel Mac OS X 10_12_6) AppleWebKit/605.1.15 (KHTML, like Gecko) Version/12.1.2 Safari/605.1.15",Macintosh,Safari,12.1.2,"OS X",10_12_6,fe3c1d035a65c549f7011c5446f73ede
12,1,null,null,psychophysics,189,335984,0.0-3.0-1.91,"""",key,null,16.593220338983052,715,354.5,"""","""","""","""","""","""","""","""","2021-10-01 00:29:20",67.68.11.193,"Mozilla/5.0 (Macintosh; Intel Mac OS X 10_12_6) AppleWebKit/605.1.15 (KHTML, like Gecko) Version/12.1.2 Safari/605.1.15",Macintosh,Safari,12.1.2,"OS X",10_12_6,fe3c1d035a65c549f7011c5446f73ede
12,1,1198,arrowleft,psychophysics,190,337187,0.0-3.0-0.92,"""",key,arrowleft,16.61111111111111,715,354.5,93,4,1,20,15,25,35,false,"2021-10-01 00:29:20",67.68.11.193,"Mozilla/5.0 (Macintosh; Intel Mac OS X 10_12_6) AppleWebKit/605.1.15 (KHTML, like Gecko) Version/12.1.2 Safari/605.1.15",Macintosh,Safari,12.1.2,"OS X",10_12_6,fe3c1d035a65c549f7011c5446f73ede
12,1,null,null,psychophysics,191,338191,0.0-3.0-1.92,"""",key,null,16.677966101694917,715,354.5,"""","""","""","""","""","""","""","""","2021-10-01 00:29:20",67.68.11.193,"Mozilla/5.0 (Macintosh; Intel Mac OS X 10_12_6) AppleWebKit/605.1.15 (KHTML, like Gecko) Version/12.1.2 Safari/605.1.15",Macintosh,Safari,12.1.2,"OS X",10_12_6,fe3c1d035a65c549f7011c5446f73ede
12,1,1540,arrowleft,psychophysics,192,339739,0.0-3.0-0.93,"""",key,arrowleft,16.67391304347826,715,354.5,94,4,1,20,15,25,35,false,"2021-10-01 00:29:20",67.68.11.193,"Mozilla/5.0 (Macintosh; Intel Mac OS X 10_12_6) AppleWebKit/605.1.15 (KHTML, like Gecko) Version/12.1.2 Safari/605.1.15",Macintosh,Safari,12.1.2,"OS X",10_12_6,fe3c1d035a65c549f7011c5446f73ede
12,1,null,null,psychophysics,193,340747,0.0-3.0-1.93,"""",key,null,16.661016949152543,715,354.5,"""","""","""","""","""","""","""","""","2021-10-01 00:29:20",67.68.11.193,"Mozilla/5.0 (Macintosh; Intel Mac OS X 10_12_6) AppleWebKit/605.1.15 (KHTML, like Gecko) Version/12.1.2 Safari/605.1.15",Macintosh,Safari,12.1.2,"OS X",10_12_6,fe3c1d035a65c549f7011c5446f73ede
12,1,742,arrowleft,psychophysics,194,341498,0.0-3.0-0.94,"""",key,arrowleft,16.59090909090909,715,354.5,95,4,-1,26,15,25,35,true,"2021-10-01 00:29:20",67.68.11.193,"Mozilla/5.0 (Macintosh; Intel Mac OS X 10_12_6) AppleWebKit/605.1.15 (KHTML, like Gecko) Version/12.1.2 Safari/605.1.15",Macintosh,Safari,12.1.2,"OS X",10_12_6,fe3c1d035a65c549f7011c5446f73ede
12,1,null,null,psychophysics,195,342503,0.0-3.0-1.94,"""",key,null,16.593220338983052,715,354.5,"""","""","""","""","""","""","""","""","2021-10-01 00:29:20",67.68.11.193,"Mozilla/5.0 (Macintosh; Intel Mac OS X 10_12_6) AppleWebKit/605.1.15 (KHTML, like Gecko) Version/12.1.2 Safari/605.1.15",Macintosh,Safari,12.1.2,"OS X",10_12_6,fe3c1d035a65c549f7011c5446f73ede
12,1,531.9999999999418,arrowright,psychophysics,196,343040,0.0-3.0-0.95,"""",key,arrowright,16.53125,715,354.5,96,4,1,27,15,25,35,true,"2021-10-01 00:29:20",67.68.11.193,"Mozilla/5.0 (Macintosh; Intel Mac OS X 10_12_6) AppleWebKit/605.1.15 (KHTML, like Gecko) Version/12.1.2 Safari/605.1.15",Macintosh,Safari,12.1.2,"OS X",10_12_6,fe3c1d035a65c549f7011c5446f73ede
12,1,null,null,psychophysics,197,344043,0.0-3.0-1.95,"""",key,null,16.677966101694917,715,354.5,"""","""","""","""","""","""","""","""","2021-10-01 00:29:20",67.68.11.193,"Mozilla/5.0 (Macintosh; Intel Mac OS X 10_12_6) AppleWebKit/605.1.15 (KHTML, like Gecko) Version/12.1.2 Safari/605.1.15",Macintosh,Safari,12.1.2,"OS X",10_12_6,fe3c1d035a65c549f7011c5446f73ede
12,1,1190,arrowright,psychophysics,198,345240,0.0-3.0-0.96,"""",key,arrowright,16.661971830985916,715,354.5,97,4,1,26,15,25,35,true,"2021-10-01 00:29:20",67.68.11.193,"Mozilla/5.0 (Macintosh; Intel Mac OS X 10_12_6) AppleWebKit/605.1.15 (KHTML, like Gecko) Version/12.1.2 Safari/605.1.15",Macintosh,Safari,12.1.2,"OS X",10_12_6,fe3c1d035a65c549f7011c5446f73ede
12,1,null,null,psychophysics,199,346249,0.0-3.0-1.96,"""",key,null,16.593220338983052,715,354.5,"""","""","""","""","""","""","""","""","2021-10-01 00:29:20",67.68.11.193,"Mozilla/5.0 (Macintosh; Intel Mac OS X 10_12_6) AppleWebKit/605.1.15 (KHTML, like Gecko) Version/12.1.2 Safari/605.1.15",Macintosh,Safari,12.1.2,"OS X",10_12_6,fe3c1d035a65c549f7011c5446f73ede
12,1,787.0000000000582,arrowleft,psychophysics,200,347043,0.0-3.0-0.97,"""",key,arrowleft,16.680851063829788,715,354.5,98,4,-1,30,15,25,35,true,"2021-10-01 00:29:20",67.68.11.193,"Mozilla/5.0 (Macintosh; Intel Mac OS X 10_12_6) AppleWebKit/605.1.15 (KHTML, like Gecko) Version/12.1.2 Safari/605.1.15",Macintosh,Safari,12.1.2,"OS X",10_12_6,fe3c1d035a65c549f7011c5446f73ede
12,1,null,null,psychophysics,201,348046,0.0-3.0-1.97,"""",key,null,16.661016949152543,715,354.5,"""","""","""","""","""","""","""","""","2021-10-01 00:29:20",67.68.11.193,"Mozilla/5.0 (Macintosh; Intel Mac OS X 10_12_6) AppleWebKit/605.1.15 (KHTML, like Gecko) Version/12.1.2 Safari/605.1.15",Macintosh,Safari,12.1.2,"OS X",10_12_6,fe3c1d035a65c549f7011c5446f73ede
12,1,614.0000000000582,arrowright,psychophysics,202,348669,0.0-3.0-0.98,"""",key,arrowright,16.694444444444443,715,354.5,99,4,-1,20,35,25,35,false,"2021-10-01 00:29:20",67.68.11.193,"Mozilla/5.0 (Macintosh; Intel Mac OS X 10_12_6) AppleWebKit/605.1.15 (KHTML, like Gecko) Version/12.1.2 Safari/605.1.15",Macintosh,Safari,12.1.2,"OS X",10_12_6,fe3c1d035a65c549f7011c5446f73ede
12,1,null,null,psychophysics,203,349675,0.0-3.0-1.98,"""",key,null,16.566666666666666,715,354.5,"""","""","""","""","""","""","""","""","2021-10-01 00:29:20",67.68.11.193,"Mozilla/5.0 (Macintosh; Intel Mac OS X 10_12_6) AppleWebKit/605.1.15 (KHTML, like Gecko) Version/12.1.2 Safari/605.1.15",Macintosh,Safari,12.1.2,"OS X",10_12_6,fe3c1d035a65c549f7011c5446f73ede
12,1,556.9999999999418,arrowright,psychophysics,204,350242,0.0-3.0-0.99,"""",key,arrowright,16.636363636363637,715,354.5,100,4,1,27,15,25,35,true,"2021-10-01 00:29:20",67.68.11.193,"Mozilla/5.0 (Macintosh; Intel Mac OS X 10_12_6) AppleWebKit/605.1.15 (KHTML, like Gecko) Version/12.1.2 Safari/605.1.15",Macintosh,Safari,12.1.2,"OS X",10_12_6,fe3c1d035a65c549f7011c5446f73ede
12,1,null,null,psychophysics,205,351245,0.0-3.0-1.99,"""",key,null,16.661016949152543,715,354.5,"""","""","""","""","""","""","""","""","2021-10-01 00:29:20",67.68.11.193,"Mozilla/5.0 (Macintosh; Intel Mac OS X 10_12_6) AppleWebKit/605.1.15 (KHTML, like Gecko) Version/12.1.2 Safari/605.1.15",Macintosh,Safari,12.1.2,"OS X",10_12_6,fe3c1d035a65c549f7011c5446f73ede
12,1,984,arrowright,psychophysics,206,352243,0.0-3.0-0.100,"""",key,arrowright,16.661016949152543,715,354.5,101,4,1,24,15,25,35,true,"2021-10-01 00:29:20",67.68.11.193,"Mozilla/5.0 (Macintosh; Intel Mac OS X 10_12_6) AppleWebKit/605.1.15 (KHTML, like Gecko) Version/12.1.2 Safari/605.1.15",Macintosh,Safari,12.1.2,"OS X",10_12_6,fe3c1d035a65c549f7011c5446f73ede
12,1,null,null,psychophysics,207,353246,0.0-3.0-1.100,"""",key,null,16.661016949152543,715,354.5,"""","""","""","""","""","""","""","""","2021-10-01 00:29:20",67.68.11.193,"Mozilla/5.0 (Macintosh; Intel Mac OS X 10_12_6) AppleWebKit/605.1.15 (KHTML, like Gecko) Version/12.1.2 Safari/605.1.15",Macintosh,Safari,12.1.2,"OS X",10_12_6,fe3c1d035a65c549f7011c5446f73ede
12,1,808,arrowleft,psychophysics,208,354061,0.0-3.0-0.101,"""",key,arrowleft,16.6875,715,354.5,102,4,1,20,35,25,35,false,"2021-10-01 00:29:20",67.68.11.193,"Mozilla/5.0 (Macintosh; Intel Mac OS X 10_12_6) AppleWebKit/605.1.15 (KHTML, like Gecko) Version/12.1.2 Safari/605.1.15",Macintosh,Safari,12.1.2,"OS X",10_12_6,fe3c1d035a65c549f7011c5446f73ede
12,1,null,null,psychophysics,209,355065,0.0-3.0-1.101,"""",key,null,16.661016949152543,715,354.5,"""","""","""","""","""","""","""","""","2021-10-01 00:29:20",67.68.11.193,"Mozilla/5.0 (Macintosh; Intel Mac OS X 10_12_6) AppleWebKit/605.1.15 (KHTML, like Gecko) Version/12.1.2 Safari/605.1.15",Macintosh,Safari,12.1.2,"OS X",10_12_6,fe3c1d035a65c549f7011c5446f73ede
12,1,559.0000000000582,arrowright,psychophysics,210,355633,0.0-3.0-0.102,"""",key,arrowright,16.696969696969695,715,354.5,103,4,1,30,15,25,35,true,"2021-10-01 00:29:20",67.68.11.193,"Mozilla/5.0 (Macintosh; Intel Mac OS X 10_12_6) AppleWebKit/605.1.15 (KHTML, like Gecko) Version/12.1.2 Safari/605.1.15",Macintosh,Safari,12.1.2,"OS X",10_12_6,fe3c1d035a65c549f7011c5446f73ede
12,1,null,null,psychophysics,211,356635,0.0-3.0-1.102,"""",key,null,16.661016949152543,715,354.5,"""","""","""","""","""","""","""","""","2021-10-01 00:29:20",67.68.11.193,"Mozilla/5.0 (Macintosh; Intel Mac OS X 10_12_6) AppleWebKit/605.1.15 (KHTML, like Gecko) Version/12.1.2 Safari/605.1.15",Macintosh,Safari,12.1.2,"OS X",10_12_6,fe3c1d035a65c549f7011c5446f73ede
12,1,1376,arrowleft,psychophysics,212,358021,0.0-3.0-0.103,"""",key,arrowleft,16.621951219512194,715,354.5,104,4,1,23,35,25,35,false,"2021-10-01 00:29:20",67.68.11.193,"Mozilla/5.0 (Macintosh; Intel Mac OS X 10_12_6) AppleWebKit/605.1.15 (KHTML, like Gecko) Version/12.1.2 Safari/605.1.15",Macintosh,Safari,12.1.2,"OS X",10_12_6,fe3c1d035a65c549f7011c5446f73ede
12,1,null,null,psychophysics,213,359031,0.0-3.0-1.103,"""",key,null,16.466666666666665,715,354.5,"""","""","""","""","""","""","""","""","2021-10-01 00:29:20",67.68.11.193,"Mozilla/5.0 (Macintosh; Intel Mac OS X 10_12_6) AppleWebKit/605.1.15 (KHTML, like Gecko) Version/12.1.2 Safari/605.1.15",Macintosh,Safari,12.1.2,"OS X",10_12_6,fe3c1d035a65c549f7011c5446f73ede
12,1,984,arrowright,psychophysics,214,360023,0.0-3.0-0.104,"""",key,arrowright,16.67241379310345,715,354.5,105,4,1,26,35,25,35,true,"2021-10-01 00:29:20",67.68.11.193,"Mozilla/5.0 (Macintosh; Intel Mac OS X 10_12_6) AppleWebKit/605.1.15 (KHTML, like Gecko) Version/12.1.2 Safari/605.1.15",Macintosh,Safari,12.1.2,"OS X",10_12_6,fe3c1d035a65c549f7011c5446f73ede
12,1,null,null,psychophysics,215,361030,0.0-3.0-1.104,"""",key,null,16.566666666666666,715,354.5,"""","""","""","""","""","""","""","""","2021-10-01 00:29:20",67.68.11.193,"Mozilla/5.0 (Macintosh; Intel Mac OS X 10_12_6) AppleWebKit/605.1.15 (KHTML, like Gecko) Version/12.1.2 Safari/605.1.15",Macintosh,Safari,12.1.2,"OS X",10_12_6,fe3c1d035a65c549f7011c5446f73ede
12,1,612,arrowleft,psychophysics,216,361652,0.0-3.0-0.105,"""",key,arrowleft,16.666666666666668,715,354.5,106,4,-1,30,35,25,35,true,"2021-10-01 00:29:20",67.68.11.193,"Mozilla/5.0 (Macintosh; Intel Mac OS X 10_12_6) AppleWebKit/605.1.15 (KHTML, like Gecko) Version/12.1.2 Safari/605.1.15",Macintosh,Safari,12.1.2,"OS X",10_12_6,fe3c1d035a65c549f7011c5446f73ede
12,1,null,null,psychophysics,217,362656,0.0-3.0-1.105,"""",key,null,16.64406779661017,715,354.5,"""","""","""","""","""","""","""","""","2021-10-01 00:29:20",67.68.11.193,"Mozilla/5.0 (Macintosh; Intel Mac OS X 10_12_6) AppleWebKit/605.1.15 (KHTML, like Gecko) Version/12.1.2 Safari/605.1.15",Macintosh,Safari,12.1.2,"OS X",10_12_6,fe3c1d035a65c549f7011c5446f73ede
12,1,636.0000000000582,arrowleft,psychophysics,218,363298,0.0-3.0-0.106,"""",key,arrowleft,16.68421052631579,715,354.5,107,4,-1,23,15,25,35,true,"2021-10-01 00:29:20",67.68.11.193,"Mozilla/5.0 (Macintosh; Intel Mac OS X 10_12_6) AppleWebKit/605.1.15 (KHTML, like Gecko) Version/12.1.2 Safari/605.1.15",Macintosh,Safari,12.1.2,"OS X",10_12_6,fe3c1d035a65c549f7011c5446f73ede
12,1,null,null,psychophysics,219,364300,0.0-3.0-1.106,"""",key,null,16.677966101694917,715,354.5,"""","""","""","""","""","""","""","""","2021-10-01 00:29:20",67.68.11.193,"Mozilla/5.0 (Macintosh; Intel Mac OS X 10_12_6) AppleWebKit/605.1.15 (KHTML, like Gecko) Version/12.1.2 Safari/605.1.15",Macintosh,Safari,12.1.2,"OS X",10_12_6,fe3c1d035a65c549f7011c5446f73ede
12,1,629.0000000000582,arrowleft,psychophysics,220,364943,0.0-3.0-0.107,"""",key,arrowleft,16.62162162162162,715,354.5,108,4,-1,26,15,25,35,true,"2021-10-01 00:29:20",67.68.11.193,"Mozilla/5.0 (Macintosh; Intel Mac OS X 10_12_6) AppleWebKit/605.1.15 (KHTML, like Gecko) Version/12.1.2 Safari/605.1.15",Macintosh,Safari,12.1.2,"OS X",10_12_6,fe3c1d035a65c549f7011c5446f73ede
12,1,null,null,psychophysics,221,365948,0.0-3.0-1.107,"""",key,null,16.566666666666666,715,354.5,"""","""","""","""","""","""","""","""","2021-10-01 00:29:20",67.68.11.193,"Mozilla/5.0 (Macintosh; Intel Mac OS X 10_12_6) AppleWebKit/605.1.15 (KHTML, like Gecko) Version/12.1.2 Safari/605.1.15",Macintosh,Safari,12.1.2,"OS X",10_12_6,fe3c1d035a65c549f7011c5446f73ede
12,1,574.0000000000582,arrowright,psychophysics,222,366532,0.0-3.0-0.108,"""",key,arrowright,16.676470588235293,715,354.5,109,4,1,30,15,25,35,true,"2021-10-01 00:29:20",67.68.11.193,"Mozilla/5.0 (Macintosh; Intel Mac OS X 10_12_6) AppleWebKit/605.1.15 (KHTML, like Gecko) Version/12.1.2 Safari/605.1.15",Macintosh,Safari,12.1.2,"OS X",10_12_6,fe3c1d035a65c549f7011c5446f73ede
12,1,null,null,psychophysics,223,367535,0.0-3.0-1.108,"""",key,null,16.661016949152543,715,354.5,"""","""","""","""","""","""","""","""","2021-10-01 00:29:20",67.68.11.193,"Mozilla/5.0 (Macintosh; Intel Mac OS X 10_12_6) AppleWebKit/605.1.15 (KHTML, like Gecko) Version/12.1.2 Safari/605.1.15",Macintosh,Safari,12.1.2,"OS X",10_12_6,fe3c1d035a65c549f7011c5446f73ede
12,1,1401,arrowleft,psychophysics,224,368943,0.0-3.0-0.109,"""",key,arrowleft,16.674698795180724,715,354.5,110,4,-1,24,15,25,35,true,"2021-10-01 00:29:20",67.68.11.193,"Mozilla/5.0 (Macintosh; Intel Mac OS X 10_12_6) AppleWebKit/605.1.15 (KHTML, like Gecko) Version/12.1.2 Safari/605.1.15",Macintosh,Safari,12.1.2,"OS X",10_12_6,fe3c1d035a65c549f7011c5446f73ede
12,1,null,null,psychophysics,225,369949,0.0-3.0-1.109,"""",key,null,16.55,715,354.5,"""","""","""","""","""","""","""","""","2021-10-01 00:29:20",67.68.11.193,"Mozilla/5.0 (Macintosh; Intel Mac OS X 10_12_6) AppleWebKit/605.1.15 (KHTML, like Gecko) Version/12.1.2 Safari/605.1.15",Macintosh,Safari,12.1.2,"OS X",10_12_6,fe3c1d035a65c549f7011c5446f73ede
12,1,1121.0000000000582,arrowright,psychophysics,226,371084,0.0-3.0-0.110,"""",key,arrowright,16.65671641791045,715,354.5,111,4,1,25,15,25,35,true,"2021-10-01 00:29:20",67.68.11.193,"Mozilla/5.0 (Macintosh; Intel Mac OS X 10_12_6) AppleWebKit/605.1.15 (KHTML, like Gecko) Version/12.1.2 Safari/605.1.15",Macintosh,Safari,12.1.2,"OS X",10_12_6,fe3c1d035a65c549f7011c5446f73ede
12,1,null,null,psychophysics,227,372087,0.0-3.0-1.110,"""",key,null,16.677966101694917,715,354.5,"""","""","""","""","""","""","""","""","2021-10-01 00:29:20",67.68.11.193,"Mozilla/5.0 (Macintosh; Intel Mac OS X 10_12_6) AppleWebKit/605.1.15 (KHTML, like Gecko) Version/12.1.2 Safari/605.1.15",Macintosh,Safari,12.1.2,"OS X",10_12_6,fe3c1d035a65c549f7011c5446f73ede
12,1,1425,arrowleft,psychophysics,228,373518,0.0-3.0-0.111,"""",key,arrowleft,16.67058823529412,715,354.5,112,5,1,25,35,25,35,false,"2021-10-01 00:29:20",67.68.11.193,"Mozilla/5.0 (Macintosh; Intel Mac OS X 10_12_6) AppleWebKit/605.1.15 (KHTML, like Gecko) Version/12.1.2 Safari/605.1.15",Macintosh,Safari,12.1.2,"OS X",10_12_6,fe3c1d035a65c549f7011c5446f73ede
12,1,null,null,psychophysics,229,374522,0.0-3.0-1.111,"""",key,null,16.677966101694917,715,354.5,"""","""","""","""","""","""","""","""","2021-10-01 00:29:20",67.68.11.193,"Mozilla/5.0 (Macintosh; Intel Mac OS X 10_12_6) AppleWebKit/605.1.15 (KHTML, like Gecko) Version/12.1.2 Safari/605.1.15",Macintosh,Safari,12.1.2,"OS X",10_12_6,fe3c1d035a65c549f7011c5446f73ede
12,1,1233," ",html-keyboard-response,230,375757,0.0-3.0-2.111-0.111,"<div style=""color: white; text-align: center; vertical-align: top; display: inline-block; width: 800px; margin: auto""><p>You have completed 40% of the trials. You are on block 5 of 10. <br>Good job! Take a break if you need to.</p><p>Press any key to continue the experiment.</p></div>","""","""","""","""","""","""","""","""","""","""","""","""","""","2021-10-01 00:29:20",67.68.11.193,"Mozilla/5.0 (Macintosh; Intel Mac OS X 10_12_6) AppleWebKit/605.1.15 (KHTML, like Gecko) Version/12.1.2 Safari/605.1.15",Macintosh,Safari,12.1.2,"OS X",10_12_6,fe3c1d035a65c549f7011c5446f73ede
12,1,2105,arrowleft,psychophysics,231,378869,0.0-3.0-0.112,"""",key,arrowleft,16.717741935483872,715,354.5,113,5,1,20,15,25,35,false,"2021-10-01 00:29:20",67.68.11.193,"Mozilla/5.0 (Macintosh; Intel Mac OS X 10_12_6) AppleWebKit/605.1.15 (KHTML, like Gecko) Version/12.1.2 Safari/605.1.15",Macintosh,Safari,12.1.2,"OS X",10_12_6,fe3c1d035a65c549f7011c5446f73ede
12,1,null,null,psychophysics,232,379878,0.0-3.0-1.112,"""",key,null,16.5,715,354.5,"""","""","""","""","""","""","""","""","2021-10-01 00:29:20",67.68.11.193,"Mozilla/5.0 (Macintosh; Intel Mac OS X 10_12_6) AppleWebKit/605.1.15 (KHTML, like Gecko) Version/12.1.2 Safari/605.1.15",Macintosh,Safari,12.1.2,"OS X",10_12_6,fe3c1d035a65c549f7011c5446f73ede
12,1,974,arrowright,psychophysics,233,380859,0.0-3.0-0.113,"""",key,arrowright,16.67241379310345,715,354.5,114,5,1,26,35,25,35,true,"2021-10-01 00:29:20",67.68.11.193,"Mozilla/5.0 (Macintosh; Intel Mac OS X 10_12_6) AppleWebKit/605.1.15 (KHTML, like Gecko) Version/12.1.2 Safari/605.1.15",Macintosh,Safari,12.1.2,"OS X",10_12_6,fe3c1d035a65c549f7011c5446f73ede
12,1,null,null,psychophysics,234,381863,0.0-3.0-1.113,"""",key,null,16.677966101694917,715,354.5,"""","""","""","""","""","""","""","""","2021-10-01 00:29:20",67.68.11.193,"Mozilla/5.0 (Macintosh; Intel Mac OS X 10_12_6) AppleWebKit/605.1.15 (KHTML, like Gecko) Version/12.1.2 Safari/605.1.15",Macintosh,Safari,12.1.2,"OS X",10_12_6,fe3c1d035a65c549f7011c5446f73ede
12,1,618,arrowright,psychophysics,235,382490,0.0-3.0-0.114,"""",key,arrowright,16.694444444444443,715,354.5,115,5,1,26,35,25,35,true,"2021-10-01 00:29:20",67.68.11.193,"Mozilla/5.0 (Macintosh; Intel Mac OS X 10_12_6) AppleWebKit/605.1.15 (KHTML, like Gecko) Version/12.1.2 Safari/605.1.15",Macintosh,Safari,12.1.2,"OS X",10_12_6,fe3c1d035a65c549f7011c5446f73ede
12,1,null,null,psychophysics,236,383494,0.0-3.0-1.114,"""",key,null,16.55,715,354.5,"""","""","""","""","""","""","""","""","2021-10-01 00:29:20",67.68.11.193,"Mozilla/5.0 (Macintosh; Intel Mac OS X 10_12_6) AppleWebKit/605.1.15 (KHTML, like Gecko) Version/12.1.2 Safari/605.1.15",Macintosh,Safari,12.1.2,"OS X",10_12_6,fe3c1d035a65c549f7011c5446f73ede
12,1,584,arrowright,psychophysics,237,384087,0.0-3.0-0.115,"""",key,arrowright,16.676470588235293,715,354.5,116,5,1,26,15,25,35,true,"2021-10-01 00:29:20",67.68.11.193,"Mozilla/5.0 (Macintosh; Intel Mac OS X 10_12_6) AppleWebKit/605.1.15 (KHTML, like Gecko) Version/12.1.2 Safari/605.1.15",Macintosh,Safari,12.1.2,"OS X",10_12_6,fe3c1d035a65c549f7011c5446f73ede
12,1,null,null,psychophysics,238,385091,0.0-3.0-1.115,"""",key,null,16.576271186440678,715,354.5,"""","""","""","""","""","""","""","""","2021-10-01 00:29:20",67.68.11.193,"Mozilla/5.0 (Macintosh; Intel Mac OS X 10_12_6) AppleWebKit/605.1.15 (KHTML, like Gecko) Version/12.1.2 Safari/605.1.15",Macintosh,Safari,12.1.2,"OS X",10_12_6,fe3c1d035a65c549f7011c5446f73ede
12,1,651,arrowright,psychophysics,239,385754,0.0-3.0-0.116,"""",key,arrowright,16.384615384615383,715,354.5,117,5,1,26,15,25,35,true,"2021-10-01 00:29:20",67.68.11.193,"Mozilla/5.0 (Macintosh; Intel Mac OS X 10_12_6) AppleWebKit/605.1.15 (KHTML, like Gecko) Version/12.1.2 Safari/605.1.15",Macintosh,Safari,12.1.2,"OS X",10_12_6,fe3c1d035a65c549f7011c5446f73ede
12,1,null,null,psychophysics,240,386758,0.0-3.0-1.116,"""",key,null,16.576271186440678,715,354.5,"""","""","""","""","""","""","""","""","2021-10-01 00:29:20",67.68.11.193,"Mozilla/5.0 (Macintosh; Intel Mac OS X 10_12_6) AppleWebKit/605.1.15 (KHTML, like Gecko) Version/12.1.2 Safari/605.1.15",Macintosh,Safari,12.1.2,"OS X",10_12_6,fe3c1d035a65c549f7011c5446f73ede
12,1,575,arrowright,psychophysics,241,387345,0.0-3.0-0.117,"""",key,arrowright,16.571428571428573,715,354.5,118,5,1,23,15,25,35,true,"2021-10-01 00:29:20",67.68.11.193,"Mozilla/5.0 (Macintosh; Intel Mac OS X 10_12_6) AppleWebKit/605.1.15 (KHTML, like Gecko) Version/12.1.2 Safari/605.1.15",Macintosh,Safari,12.1.2,"OS X",10_12_6,fe3c1d035a65c549f7011c5446f73ede
12,1,null,null,psychophysics,242,388349,0.0-3.0-1.117,"""",key,null,16.677966101694917,715,354.5,"""","""","""","""","""","""","""","""","2021-10-01 00:29:20",67.68.11.193,"Mozilla/5.0 (Macintosh; Intel Mac OS X 10_12_6) AppleWebKit/605.1.15 (KHTML, like Gecko) Version/12.1.2 Safari/605.1.15",Macintosh,Safari,12.1.2,"OS X",10_12_6,fe3c1d035a65c549f7011c5446f73ede
12,1,647,arrowleft,psychophysics,243,389006,0.0-3.0-0.118,"""",key,arrowleft,16.657894736842106,715,354.5,119,5,-1,27,15,25,35,true,"2021-10-01 00:29:20",67.68.11.193,"Mozilla/5.0 (Macintosh; Intel Mac OS X 10_12_6) AppleWebKit/605.1.15 (KHTML, like Gecko) Version/12.1.2 Safari/605.1.15",Macintosh,Safari,12.1.2,"OS X",10_12_6,fe3c1d035a65c549f7011c5446f73ede
12,1,null,null,psychophysics,244,390013,0.0-3.0-1.118,"""",key,null,16.55,715,354.5,"""","""","""","""","""","""","""","""","2021-10-01 00:29:20",67.68.11.193,"Mozilla/5.0 (Macintosh; Intel Mac OS X 10_12_6) AppleWebKit/605.1.15 (KHTML, like Gecko) Version/12.1.2 Safari/605.1.15",Macintosh,Safari,12.1.2,"OS X",10_12_6,fe3c1d035a65c549f7011c5446f73ede
12,1,1324.0000000000582,arrowright,psychophysics,245,391347,0.0-3.0-0.119,"""",key,arrowright,16.658227848101266,715,354.5,120,5,1,25,35,25,35,true,"2021-10-01 00:29:20",67.68.11.193,"Mozilla/5.0 (Macintosh; Intel Mac OS X 10_12_6) AppleWebKit/605.1.15 (KHTML, like Gecko) Version/12.1.2 Safari/605.1.15",Macintosh,Safari,12.1.2,"OS X",10_12_6,fe3c1d035a65c549f7011c5446f73ede
12,1,null,null,psychophysics,246,392359,0.0-3.0-1.119,"""",key,null,16.593220338983052,715,354.5,"""","""","""","""","""","""","""","""","2021-10-01 00:29:20",67.68.11.193,"Mozilla/5.0 (Macintosh; Intel Mac OS X 10_12_6) AppleWebKit/605.1.15 (KHTML, like Gecko) Version/12.1.2 Safari/605.1.15",Macintosh,Safari,12.1.2,"OS X",10_12_6,fe3c1d035a65c549f7011c5446f73ede
12,1,1051,arrowright,psychophysics,247,393415,0.0-3.0-0.120,"""",key,arrowright,16.634920634920636,715,354.5,121,5,1,26,35,25,35,true,"2021-10-01 00:29:20",67.68.11.193,"Mozilla/5.0 (Macintosh; Intel Mac OS X 10_12_6) AppleWebKit/605.1.15 (KHTML, like Gecko) Version/12.1.2 Safari/605.1.15",Macintosh,Safari,12.1.2,"OS X",10_12_6,fe3c1d035a65c549f7011c5446f73ede
12,1,null,null,psychophysics,248,394417,0.0-3.0-1.120,"""",key,null,16.677966101694917,715,354.5,"""","""","""","""","""","""","""","""","2021-10-01 00:29:20",67.68.11.193,"Mozilla/5.0 (Macintosh; Intel Mac OS X 10_12_6) AppleWebKit/605.1.15 (KHTML, like Gecko) Version/12.1.2 Safari/605.1.15",Macintosh,Safari,12.1.2,"OS X",10_12_6,fe3c1d035a65c549f7011c5446f73ede
12,1,687,arrowright,psychophysics,249,395114,0.0-3.0-0.121,"""",key,arrowright,16.658536585365855,715,354.5,122,5,1,30,15,25,35,true,"2021-10-01 00:29:20",67.68.11.193,"Mozilla/5.0 (Macintosh; Intel Mac OS X 10_12_6) AppleWebKit/605.1.15 (KHTML, like Gecko) Version/12.1.2 Safari/605.1.15",Macintosh,Safari,12.1.2,"OS X",10_12_6,fe3c1d035a65c549f7011c5446f73ede
12,1,null,null,psychophysics,250,396118,0.0-3.0-1.121,"""",key,null,16.661016949152543,715,354.5,"""","""","""","""","""","""","""","""","2021-10-01 00:29:20",67.68.11.193,"Mozilla/5.0 (Macintosh; Intel Mac OS X 10_12_6) AppleWebKit/605.1.15 (KHTML, like Gecko) Version/12.1.2 Safari/605.1.15",Macintosh,Safari,12.1.2,"OS X",10_12_6,fe3c1d035a65c549f7011c5446f73ede
12,1,757,arrowright,psychophysics,251,396882,0.0-3.0-0.122,"""",key,arrowright,16.644444444444446,715,354.5,123,5,1,30,35,25,35,true,"2021-10-01 00:29:20",67.68.11.193,"Mozilla/5.0 (Macintosh; Intel Mac OS X 10_12_6) AppleWebKit/605.1.15 (KHTML, like Gecko) Version/12.1.2 Safari/605.1.15",Macintosh,Safari,12.1.2,"OS X",10_12_6,fe3c1d035a65c549f7011c5446f73ede
12,1,null,null,psychophysics,252,397885,0.0-3.0-1.122,"""",key,null,16.677966101694917,715,354.5,"""","""","""","""","""","""","""","""","2021-10-01 00:29:20",67.68.11.193,"Mozilla/5.0 (Macintosh; Intel Mac OS X 10_12_6) AppleWebKit/605.1.15 (KHTML, like Gecko) Version/12.1.2 Safari/605.1.15",Macintosh,Safari,12.1.2,"OS X",10_12_6,fe3c1d035a65c549f7011c5446f73ede
12,1,829,arrowleft,psychophysics,253,398727,0.0-3.0-0.123,"""",key,arrowleft,16.653061224489797,715,354.5,124,5,1,20,35,25,35,false,"2021-10-01 00:29:20",67.68.11.193,"Mozilla/5.0 (Macintosh; Intel Mac OS X 10_12_6) AppleWebKit/605.1.15 (KHTML, like Gecko) Version/12.1.2 Safari/605.1.15",Macintosh,Safari,12.1.2,"OS X",10_12_6,fe3c1d035a65c549f7011c5446f73ede
12,1,null,null,psychophysics,254,399733,0.0-3.0-1.123,"""",key,null,16.55,715,354.5,"""","""","""","""","""","""","""","""","2021-10-01 00:29:20",67.68.11.193,"Mozilla/5.0 (Macintosh; Intel Mac OS X 10_12_6) AppleWebKit/605.1.15 (KHTML, like Gecko) Version/12.1.2 Safari/605.1.15",Macintosh,Safari,12.1.2,"OS X",10_12_6,fe3c1d035a65c549f7011c5446f73ede
12,1,1443.0000000000582,arrowleft,psychophysics,255,401185,0.0-3.0-0.124,"""",key,arrowleft,16.674418604651162,715,354.5,125,5,1,23,35,25,35,false,"2021-10-01 00:29:20",67.68.11.193,"Mozilla/5.0 (Macintosh; Intel Mac OS X 10_12_6) AppleWebKit/605.1.15 (KHTML, like Gecko) Version/12.1.2 Safari/605.1.15",Macintosh,Safari,12.1.2,"OS X",10_12_6,fe3c1d035a65c549f7011c5446f73ede
12,1,null,null,psychophysics,256,402188,0.0-3.0-1.124,"""",key,null,16.661016949152543,715,354.5,"""","""","""","""","""","""","""","""","2021-10-01 00:29:20",67.68.11.193,"Mozilla/5.0 (Macintosh; Intel Mac OS X 10_12_6) AppleWebKit/605.1.15 (KHTML, like Gecko) Version/12.1.2 Safari/605.1.15",Macintosh,Safari,12.1.2,"OS X",10_12_6,fe3c1d035a65c549f7011c5446f73ede
12,1,922,arrowright,psychophysics,257,403118,0.0-3.0-0.125,"""",key,arrowright,16.69090909090909,715,354.5,126,5,-1,24,15,25,35,false,"2021-10-01 00:29:20",67.68.11.193,"Mozilla/5.0 (Macintosh; Intel Mac OS X 10_12_6) AppleWebKit/605.1.15 (KHTML, like Gecko) Version/12.1.2 Safari/605.1.15",Macintosh,Safari,12.1.2,"OS X",10_12_6,fe3c1d035a65c549f7011c5446f73ede
12,1,null,null,psychophysics,258,404121,0.0-3.0-1.125,"""",key,null,16.677966101694917,715,354.5,"""","""","""","""","""","""","""","""","2021-10-01 00:29:20",67.68.11.193,"Mozilla/5.0 (Macintosh; Intel Mac OS X 10_12_6) AppleWebKit/605.1.15 (KHTML, like Gecko) Version/12.1.2 Safari/605.1.15",Macintosh,Safari,12.1.2,"OS X",10_12_6,fe3c1d035a65c549f7011c5446f73ede
12,1,1085,arrowright,psychophysics,259,405220,0.0-3.0-0.126,"""",key,arrowright,16.630769230769232,715,354.5,127,5,1,25,35,25,35,true,"2021-10-01 00:29:20",67.68.11.193,"Mozilla/5.0 (Macintosh; Intel Mac OS X 10_12_6) AppleWebKit/605.1.15 (KHTML, like Gecko) Version/12.1.2 Safari/605.1.15",Macintosh,Safari,12.1.2,"OS X",10_12_6,fe3c1d035a65c549f7011c5446f73ede
12,1,null,null,psychophysics,260,406222,0.0-3.0-1.126,"""",key,null,16.677966101694917,715,354.5,"""","""","""","""","""","""","""","""","2021-10-01 00:29:20",67.68.11.193,"Mozilla/5.0 (Macintosh; Intel Mac OS X 10_12_6) AppleWebKit/605.1.15 (KHTML, like Gecko) Version/12.1.2 Safari/605.1.15",Macintosh,Safari,12.1.2,"OS X",10_12_6,fe3c1d035a65c549f7011c5446f73ede
12,1,640,arrowleft,psychophysics,261,406869,0.0-3.0-0.127,"""",key,arrowleft,16.657894736842106,715,354.5,128,5,-1,25,15,25,35,true,"2021-10-01 00:29:20",67.68.11.193,"Mozilla/5.0 (Macintosh; Intel Mac OS X 10_12_6) AppleWebKit/605.1.15 (KHTML, like Gecko) Version/12.1.2 Safari/605.1.15",Macintosh,Safari,12.1.2,"OS X",10_12_6,fe3c1d035a65c549f7011c5446f73ede
12,1,null,null,psychophysics,262,407872,0.0-3.0-1.127,"""",key,null,16.661016949152543,715,354.5,"""","""","""","""","""","""","""","""","2021-10-01 00:29:20",67.68.11.193,"Mozilla/5.0 (Macintosh; Intel Mac OS X 10_12_6) AppleWebKit/605.1.15 (KHTML, like Gecko) Version/12.1.2 Safari/605.1.15",Macintosh,Safari,12.1.2,"OS X",10_12_6,fe3c1d035a65c549f7011c5446f73ede
12,1,1394,arrowright,psychophysics,263,409274,0.0-3.0-0.128,"""",key,arrowright,16.686746987951807,715,354.5,129,5,1,24,15,25,35,true,"2021-10-01 00:29:20",67.68.11.193,"Mozilla/5.0 (Macintosh; Intel Mac OS X 10_12_6) AppleWebKit/605.1.15 (KHTML, like Gecko) Version/12.1.2 Safari/605.1.15",Macintosh,Safari,12.1.2,"OS X",10_12_6,fe3c1d035a65c549f7011c5446f73ede
12,1,null,null,psychophysics,264,410277,0.0-3.0-1.128,"""",key,null,16.661016949152543,715,354.5,"""","""","""","""","""","""","""","""","2021-10-01 00:29:20",67.68.11.193,"Mozilla/5.0 (Macintosh; Intel Mac OS X 10_12_6) AppleWebKit/605.1.15 (KHTML, like Gecko) Version/12.1.2 Safari/605.1.15",Macintosh,Safari,12.1.2,"OS X",10_12_6,fe3c1d035a65c549f7011c5446f73ede
12,1,597,arrowleft,psychophysics,265,410887,0.0-3.0-0.129,"""",key,arrowleft,16.52777777777778,715,354.5,130,5,1,20,35,25,35,false,"2021-10-01 00:29:20",67.68.11.193,"Mozilla/5.0 (Macintosh; Intel Mac OS X 10_12_6) AppleWebKit/605.1.15 (KHTML, like Gecko) Version/12.1.2 Safari/605.1.15",Macintosh,Safari,12.1.2,"OS X",10_12_6,fe3c1d035a65c549f7011c5446f73ede
12,1,null,null,psychophysics,266,411890,0.0-3.0-1.129,"""",key,null,16.677966101694917,715,354.5,"""","""","""","""","""","""","""","""","2021-10-01 00:29:20",67.68.11.193,"Mozilla/5.0 (Macintosh; Intel Mac OS X 10_12_6) AppleWebKit/605.1.15 (KHTML, like Gecko) Version/12.1.2 Safari/605.1.15",Macintosh,Safari,12.1.2,"OS X",10_12_6,fe3c1d035a65c549f7011c5446f73ede
12,1,641,arrowleft,psychophysics,267,412542,0.0-3.0-0.130,"""",key,arrowleft,16.68421052631579,715,354.5,131,5,-1,27,15,25,35,true,"2021-10-01 00:29:20",67.68.11.193,"Mozilla/5.0 (Macintosh; Intel Mac OS X 10_12_6) AppleWebKit/605.1.15 (KHTML, like Gecko) Version/12.1.2 Safari/605.1.15",Macintosh,Safari,12.1.2,"OS X",10_12_6,fe3c1d035a65c549f7011c5446f73ede
12,1,null,null,psychophysics,268,413546,0.0-3.0-1.130,"""",key,null,16.677966101694917,715,354.5,"""","""","""","""","""","""","""","""","2021-10-01 00:29:20",67.68.11.193,"Mozilla/5.0 (Macintosh; Intel Mac OS X 10_12_6) AppleWebKit/605.1.15 (KHTML, like Gecko) Version/12.1.2 Safari/605.1.15",Macintosh,Safari,12.1.2,"OS X",10_12_6,fe3c1d035a65c549f7011c5446f73ede
12,1,615.9999999999418,arrowright,psychophysics,269,414172,0.0-3.0-0.131,"""",key,arrowright,16.56756756756757,715,354.5,132,5,1,27,15,25,35,true,"2021-10-01 00:29:20",67.68.11.193,"Mozilla/5.0 (Macintosh; Intel Mac OS X 10_12_6) AppleWebKit/605.1.15 (KHTML, like Gecko) Version/12.1.2 Safari/605.1.15",Macintosh,Safari,12.1.2,"OS X",10_12_6,fe3c1d035a65c549f7011c5446f73ede
