run_id,condition,rt,response,trial_type,trial_index,time_elapsed,internal_node_id,stimulus,response_type,key_press,avg_frame_time,center_x,center_y,trial,block,test_pos,test_inner_radius,test_outer_radius,ref_inner_radius,ref_outer_radius,test_bigger,recorded_at,ip,user_agent,device,browser,browser_version,platform,platform_version,source_code_version
25,1,27134.5,"{""p_id"":""7655"",""age"":""25"",""handedness"":""right"",""sex"":""male"",""other_sex"":""}",survey-html-form,0,27136,0.0-0.0,"""","""","""","""","""","""","""","""","""","""","""","""","""","""","2021-10-04 19:34:53",99.228.49.174,"Mozilla/5.0 (Windows NT 10.0; Win64; x64) AppleWebKit/537.36 (KHTML, like Gecko) Chrome/94.0.4606.61 Safari/537.36",WebKit,Chrome,94.0.4606.61,Windows,10.0,fe3c1d035a65c549f7011c5446f73ede
25,1,17014.299999952316," ",html-keyboard-response,1,44152,0.0-1.0,"<p style=""color: white"">Welcome to the Size Judgment Experiment. <br>There will be 10 blocks in this experiment. <br>There will be 28 trials in each block. <br>You will be given a chance to take a break between blocks. <br>Press any key to start the experiment.</p>","""","""","""","""","""","""","""","""","""","""","""","""","""","2021-10-04 19:34:53",99.228.49.174,"Mozilla/5.0 (Windows NT 10.0; Win64; x64) AppleWebKit/537.36 (KHTML, like Gecko) Chrome/94.0.4606.61 Safari/537.36",WebKit,Chrome,94.0.4606.61,Windows,10.0,fe3c1d035a65c549f7011c5446f73ede
25,1,18187.89999985695," ",psychophysics,2,62347,0.0-2.0,"""",key," ",6.944449236641222,960,468.5,"""","""","""","""","""","""","""","""","2021-10-04 19:34:53",99.228.49.174,"Mozilla/5.0 (Windows NT 10.0; Win64; x64) AppleWebKit/537.36 (KHTML, like Gecko) Chrome/94.0.4606.61 Safari/537.36",WebKit,Chrome,94.0.4606.61,Windows,10.0,fe3c1d035a65c549f7011c5446f73ede
25,1,1298.2000000476837,arrowright,psychophysics,3,63649,0.0-3.0-0.0,"""",key,arrowright,6.944427807486632,960,468.5,1,1,1,30,15,25,35,true,"2021-10-04 19:34:53",99.228.49.174,"Mozilla/5.0 (Windows NT 10.0; Win64; x64) AppleWebKit/537.36 (KHTML, like Gecko) Chrome/94.0.4606.61 Safari/537.36",WebKit,Chrome,94.0.4606.61,Windows,10.0,fe3c1d035a65c549f7011c5446f73ede
25,1,null,null,psychophysics,4,64650,0.0-3.0-1.0,"""",key,null,6.944405594405564,960,468.5,"""","""","""","""","""","""","""","""","2021-10-04 19:34:53",99.228.49.174,"Mozilla/5.0 (Windows NT 10.0; Win64; x64) AppleWebKit/537.36 (KHTML, like Gecko) Chrome/94.0.4606.61 Safari/537.36",WebKit,Chrome,94.0.4606.61,Windows,10.0,fe3c1d035a65c549f7011c5446f73ede
25,1,1048.0999999046326,arrowleft,psychophysics,5,65700,0.0-3.0-0.1,"""",key,arrowleft,6.944420000000003,960,468.5,2,1,1,23,35,25,35,false,"2021-10-04 19:34:53",99.228.49.174,"Mozilla/5.0 (Windows NT 10.0; Win64; x64) AppleWebKit/537.36 (KHTML, like Gecko) Chrome/94.0.4606.61 Safari/537.36",WebKit,Chrome,94.0.4606.61,Windows,10.0,fe3c1d035a65c549f7011c5446f73ede
25,1,null,null,psychophysics,6,66701,0.0-3.0-1.1,"""",key,null,6.944468531468488,960,468.5,"""","""","""","""","""","""","""","""","2021-10-04 19:34:53",99.228.49.174,"Mozilla/5.0 (Windows NT 10.0; Win64; x64) AppleWebKit/537.36 (KHTML, like Gecko) Chrome/94.0.4606.61 Safari/537.36",WebKit,Chrome,94.0.4606.61,Windows,10.0,fe3c1d035a65c549f7011c5446f73ede
25,1,746.0999999046326,arrowleft,psychophysics,7,67449,0.0-3.0-0.2,"""",key,arrowleft,6.944439252336383,960,468.5,3,1,1,20,15,25,35,false,"2021-10-04 19:34:53",99.228.49.174,"Mozilla/5.0 (Windows NT 10.0; Win64; x64) AppleWebKit/537.36 (KHTML, like Gecko) Chrome/94.0.4606.61 Safari/537.36",WebKit,Chrome,94.0.4606.61,Windows,10.0,fe3c1d035a65c549f7011c5446f73ede
25,1,null,null,psychophysics,8,68451,0.0-3.0-1.2,"""",key,null,6.944405594405615,960,468.5,"""","""","""","""","""","""","""","""","2021-10-04 19:34:53",99.228.49.174,"Mozilla/5.0 (Windows NT 10.0; Win64; x64) AppleWebKit/537.36 (KHTML, like Gecko) Chrome/94.0.4606.61 Safari/537.36",WebKit,Chrome,94.0.4606.61,Windows,10.0,fe3c1d035a65c549f7011c5446f73ede
25,1,557.2000000476837,arrowright,psychophysics,9,69011,0.0-3.0-0.3,"""",key,arrowright,6.944462500000009,960,468.5,4,1,-1,20,35,25,35,false,"2021-10-04 19:34:53",99.228.49.174,"Mozilla/5.0 (Windows NT 10.0; Win64; x64) AppleWebKit/537.36 (KHTML, like Gecko) Chrome/94.0.4606.61 Safari/537.36",WebKit,Chrome,94.0.4606.61,Windows,10.0,fe3c1d035a65c549f7011c5446f73ede
25,1,null,null,psychophysics,10,70012,0.0-3.0-1.3,"""",key,null,6.9444335664335926,960,468.5,"""","""","""","""","""","""","""","""","2021-10-04 19:34:53",99.228.49.174,"Mozilla/5.0 (Windows NT 10.0; Win64; x64) AppleWebKit/537.36 (KHTML, like Gecko) Chrome/94.0.4606.61 Safari/537.36",WebKit,Chrome,94.0.4606.61,Windows,10.0,fe3c1d035a65c549f7011c5446f73ede
25,1,646,arrowright,psychophysics,11,70661,0.0-3.0-0.4,"""",key,arrowright,6.944369565217525,960,468.5,5,1,-1,23,15,25,35,false,"2021-10-04 19:34:53",99.228.49.174,"Mozilla/5.0 (Windows NT 10.0; Win64; x64) AppleWebKit/537.36 (KHTML, like Gecko) Chrome/94.0.4606.61 Safari/537.36",WebKit,Chrome,94.0.4606.61,Windows,10.0,fe3c1d035a65c549f7011c5446f73ede
25,1,null,null,psychophysics,12,71661,0.0-3.0-1.4,"""",key,null,6.944423611111132,960,468.5,"""","""","""","""","""","""","""","""","2021-10-04 19:34:53",99.228.49.174,"Mozilla/5.0 (Windows NT 10.0; Win64; x64) AppleWebKit/537.36 (KHTML, like Gecko) Chrome/94.0.4606.61 Safari/537.36",WebKit,Chrome,94.0.4606.61,Windows,10.0,fe3c1d035a65c549f7011c5446f73ede
25,1,742.2999999523163,arrowright,psychophysics,13,72406,0.0-3.0-0.5,"""",key,arrowright,6.944433962264156,960,468.5,6,1,1,27,15,25,35,true,"2021-10-04 19:34:53",99.228.49.174,"Mozilla/5.0 (Windows NT 10.0; Win64; x64) AppleWebKit/537.36 (KHTML, like Gecko) Chrome/94.0.4606.61 Safari/537.36",WebKit,Chrome,94.0.4606.61,Windows,10.0,fe3c1d035a65c549f7011c5446f73ede
25,1,null,null,psychophysics,14,73406,0.0-3.0-1.5,"""",key,null,6.9444195804196545,960,468.5,"""","""","""","""","""","""","""","""","2021-10-04 19:34:53",99.228.49.174,"Mozilla/5.0 (Windows NT 10.0; Win64; x64) AppleWebKit/537.36 (KHTML, like Gecko) Chrome/94.0.4606.61 Safari/537.36",WebKit,Chrome,94.0.4606.61,Windows,10.0,fe3c1d035a65c549f7011c5446f73ede
25,1,741.0999999046326,arrowleft,psychophysics,15,74150,0.0-3.0-0.6,"""",key,arrowleft,6.944433962264156,960,468.5,7,1,1,24,15,25,35,false,"2021-10-04 19:34:53",99.228.49.174,"Mozilla/5.0 (Windows NT 10.0; Win64; x64) AppleWebKit/537.36 (KHTML, like Gecko) Chrome/94.0.4606.61 Safari/537.36",WebKit,Chrome,94.0.4606.61,Windows,10.0,fe3c1d035a65c549f7011c5446f73ede
25,1,null,null,psychophysics,16,75151,0.0-3.0-1.6,"""",key,null,6.944328671328702,960,468.5,"""","""","""","""","""","""","""","""","2021-10-04 19:34:53",99.228.49.174,"Mozilla/5.0 (Windows NT 10.0; Win64; x64) AppleWebKit/537.36 (KHTML, like Gecko) Chrome/94.0.4606.61 Safari/537.36",WebKit,Chrome,94.0.4606.61,Windows,10.0,fe3c1d035a65c549f7011c5446f73ede
25,1,810.0999999046326,arrowleft,psychophysics,17,75964,0.0-3.0-0.7,"""",key,arrowleft,6.94445689655173,960,468.5,8,1,-1,25,15,25,35,true,"2021-10-04 19:34:53",99.228.49.174,"Mozilla/5.0 (Windows NT 10.0; Win64; x64) AppleWebKit/537.36 (KHTML, like Gecko) Chrome/94.0.4606.61 Safari/537.36",WebKit,Chrome,94.0.4606.61,Windows,10.0,fe3c1d035a65c549f7011c5446f73ede
25,1,null,null,psychophysics,18,76964,0.0-3.0-1.7,"""",key,null,6.944440559440612,960,468.5,"""","""","""","""","""","""","""","""","2021-10-04 19:34:53",99.228.49.174,"Mozilla/5.0 (Windows NT 10.0; Win64; x64) AppleWebKit/537.36 (KHTML, like Gecko) Chrome/94.0.4606.61 Safari/537.36",WebKit,Chrome,94.0.4606.61,Windows,10.0,fe3c1d035a65c549f7011c5446f73ede
25,1,749,arrowleft,psychophysics,19,77716,0.0-3.0-0.8,"""",key,arrowleft,6.944495327102682,960,468.5,9,1,-1,25,15,25,35,true,"2021-10-04 19:34:53",99.228.49.174,"Mozilla/5.0 (Windows NT 10.0; Win64; x64) AppleWebKit/537.36 (KHTML, like Gecko) Chrome/94.0.4606.61 Safari/537.36",WebKit,Chrome,94.0.4606.61,Windows,10.0,fe3c1d035a65c549f7011c5446f73ede
25,1,null,null,psychophysics,20,78716,0.0-3.0-1.8,"""",key,null,6.944510489510506,960,468.5,"""","""","""","""","""","""","""","""","2021-10-04 19:34:53",99.228.49.174,"Mozilla/5.0 (Windows NT 10.0; Win64; x64) AppleWebKit/537.36 (KHTML, like Gecko) Chrome/94.0.4606.61 Safari/537.36",WebKit,Chrome,94.0.4606.61,Windows,10.0,fe3c1d035a65c549f7011c5446f73ede
25,1,785.5,arrowright,psychophysics,21,79504,0.0-3.0-0.9,"""",key,arrowright,6.944424778761072,960,468.5,10,1,-1,23,35,25,35,false,"2021-10-04 19:34:53",99.228.49.174,"Mozilla/5.0 (Windows NT 10.0; Win64; x64) AppleWebKit/537.36 (KHTML, like Gecko) Chrome/94.0.4606.61 Safari/537.36",WebKit,Chrome,94.0.4606.61,Windows,10.0,fe3c1d035a65c549f7011c5446f73ede
25,1,null,null,psychophysics,22,80506,0.0-3.0-1.9,"""",key,null,6.944384615384657,960,468.5,"""","""","""","""","""","""","""","""","2021-10-04 19:34:53",99.228.49.174,"Mozilla/5.0 (Windows NT 10.0; Win64; x64) AppleWebKit/537.36 (KHTML, like Gecko) Chrome/94.0.4606.61 Safari/537.36",WebKit,Chrome,94.0.4606.61,Windows,10.0,fe3c1d035a65c549f7011c5446f73ede
25,1,1032.6999998092651,arrowright,psychophysics,23,81542,0.0-3.0-0.10,"""",key,arrowright,6.944418918918952,960,468.5,11,1,1,27,35,25,35,true,"2021-10-04 19:34:53",99.228.49.174,"Mozilla/5.0 (Windows NT 10.0; Win64; x64) AppleWebKit/537.36 (KHTML, like Gecko) Chrome/94.0.4606.61 Safari/537.36",WebKit,Chrome,94.0.4606.61,Windows,10.0,fe3c1d035a65c549f7011c5446f73ede
25,1,null,null,psychophysics,24,82542,0.0-3.0-1.10,"""",key,null,6.944440559440511,960,468.5,"""","""","""","""","""","""","""","""","2021-10-04 19:34:53",99.228.49.174,"Mozilla/5.0 (Windows NT 10.0; Win64; x64) AppleWebKit/537.36 (KHTML, like Gecko) Chrome/94.0.4606.61 Safari/537.36",WebKit,Chrome,94.0.4606.61,Windows,10.0,fe3c1d035a65c549f7011c5446f73ede
25,1,743.2999999523163,arrowright,psychophysics,25,83289,0.0-3.0-0.11,"""",key,arrowright,6.944355140186936,960,468.5,12,1,-1,20,15,25,35,false,"2021-10-04 19:34:53",99.228.49.174,"Mozilla/5.0 (Windows NT 10.0; Win64; x64) AppleWebKit/537.36 (KHTML, like Gecko) Chrome/94.0.4606.61 Safari/537.36",WebKit,Chrome,94.0.4606.61,Windows,10.0,fe3c1d035a65c549f7011c5446f73ede
25,1,null,null,psychophysics,26,84289,0.0-3.0-1.11,"""",key,null,6.9444335664335926,960,468.5,"""","""","""","""","""","""","""","""","2021-10-04 19:34:53",99.228.49.174,"Mozilla/5.0 (Windows NT 10.0; Win64; x64) AppleWebKit/537.36 (KHTML, like Gecko) Chrome/94.0.4606.61 Safari/537.36",WebKit,Chrome,94.0.4606.61,Windows,10.0,fe3c1d035a65c549f7011c5446f73ede
25,1,703.2000000476837,arrowleft,psychophysics,27,84995,0.0-3.0-0.12,"""",key,arrowleft,6.9443960396040145,960,468.5,13,1,1,23,15,25,35,false,"2021-10-04 19:34:53",99.228.49.174,"Mozilla/5.0 (Windows NT 10.0; Win64; x64) AppleWebKit/537.36 (KHTML, like Gecko) Chrome/94.0.4606.61 Safari/537.36",WebKit,Chrome,94.0.4606.61,Windows,10.0,fe3c1d035a65c549f7011c5446f73ede
25,1,null,null,psychophysics,28,85996,0.0-3.0-1.12,"""",key,null,6.944384615384555,960,468.5,"""","""","""","""","""","""","""","""","2021-10-04 19:34:53",99.228.49.174,"Mozilla/5.0 (Windows NT 10.0; Win64; x64) AppleWebKit/537.36 (KHTML, like Gecko) Chrome/94.0.4606.61 Safari/537.36",WebKit,Chrome,94.0.4606.61,Windows,10.0,fe3c1d035a65c549f7011c5446f73ede
25,1,1257.0999999046326,arrowleft,psychophysics,29,87256,0.0-3.0-0.13,"""",key,arrowleft,6.9444666666666715,960,468.5,14,1,-1,24,35,25,35,true,"2021-10-04 19:34:53",99.228.49.174,"Mozilla/5.0 (Windows NT 10.0; Win64; x64) AppleWebKit/537.36 (KHTML, like Gecko) Chrome/94.0.4606.61 Safari/537.36",WebKit,Chrome,94.0.4606.61,Windows,10.0,fe3c1d035a65c549f7011c5446f73ede
25,1,null,null,psychophysics,30,88256,0.0-3.0-1.13,"""",key,null,6.944356643356679,960,468.5,"""","""","""","""","""","""","""","""","2021-10-04 19:34:53",99.228.49.174,"Mozilla/5.0 (Windows NT 10.0; Win64; x64) AppleWebKit/537.36 (KHTML, like Gecko) Chrome/94.0.4606.61 Safari/537.36",WebKit,Chrome,94.0.4606.61,Windows,10.0,fe3c1d035a65c549f7011c5446f73ede
25,1,740.0999999046326,arrowleft,psychophysics,31,88999,0.0-3.0-0.14,"""",key,arrowleft,6.94444339622632,960,468.5,15,1,-1,26,35,25,35,true,"2021-10-04 19:34:53",99.228.49.174,"Mozilla/5.0 (Windows NT 10.0; Win64; x64) AppleWebKit/537.36 (KHTML, like Gecko) Chrome/94.0.4606.61 Safari/537.36",WebKit,Chrome,94.0.4606.61,Windows,10.0,fe3c1d035a65c549f7011c5446f73ede
25,1,null,null,psychophysics,32,89999,0.0-3.0-1.14,"""",key,null,6.94443356643349,960,468.5,"""","""","""","""","""","""","""","""","2021-10-04 19:34:53",99.228.49.174,"Mozilla/5.0 (Windows NT 10.0; Win64; x64) AppleWebKit/537.36 (KHTML, like Gecko) Chrome/94.0.4606.61 Safari/537.36",WebKit,Chrome,94.0.4606.61,Windows,10.0,fe3c1d035a65c549f7011c5446f73ede
25,1,758.0999999046326,arrowleft,psychophysics,33,90760,0.0-3.0-0.15,"""",key,arrowleft,6.944477064220086,960,468.5,16,1,1,26,35,25,35,false,"2021-10-04 19:34:53",99.228.49.174,"Mozilla/5.0 (Windows NT 10.0; Win64; x64) AppleWebKit/537.36 (KHTML, like Gecko) Chrome/94.0.4606.61 Safari/537.36",WebKit,Chrome,94.0.4606.61,Windows,10.0,fe3c1d035a65c549f7011c5446f73ede
25,1,null,null,psychophysics,34,91762,0.0-3.0-1.15,"""",key,null,6.944475524475508,960,468.5,"""","""","""","""","""","""","""","""","2021-10-04 19:34:53",99.228.49.174,"Mozilla/5.0 (Windows NT 10.0; Win64; x64) AppleWebKit/537.36 (KHTML, like Gecko) Chrome/94.0.4606.61 Safari/537.36",WebKit,Chrome,94.0.4606.61,Windows,10.0,fe3c1d035a65c549f7011c5446f73ede
25,1,766.0999999046326,arrowright,psychophysics,35,92531,0.0-3.0-0.16,"""",key,arrowright,6.944363636363678,960,468.5,17,1,1,27,15,25,35,true,"2021-10-04 19:34:53",99.228.49.174,"Mozilla/5.0 (Windows NT 10.0; Win64; x64) AppleWebKit/537.36 (KHTML, like Gecko) Chrome/94.0.4606.61 Safari/537.36",WebKit,Chrome,94.0.4606.61,Windows,10.0,fe3c1d035a65c549f7011c5446f73ede
25,1,null,null,psychophysics,36,93531,0.0-3.0-1.16,"""",key,null,6.9444335664335926,960,468.5,"""","""","""","""","""","""","""","""","2021-10-04 19:34:53",99.228.49.174,"Mozilla/5.0 (Windows NT 10.0; Win64; x64) AppleWebKit/537.36 (KHTML, like Gecko) Chrome/94.0.4606.61 Safari/537.36",WebKit,Chrome,94.0.4606.61,Windows,10.0,fe3c1d035a65c549f7011c5446f73ede
25,1,1070.2999999523163,arrowleft,psychophysics,37,94604,0.0-3.0-0.17,"""",key,arrowleft,6.944411764705852,960,468.5,18,1,-1,23,15,25,35,true,"2021-10-04 19:34:53",99.228.49.174,"Mozilla/5.0 (Windows NT 10.0; Win64; x64) AppleWebKit/537.36 (KHTML, like Gecko) Chrome/94.0.4606.61 Safari/537.36",WebKit,Chrome,94.0.4606.61,Windows,10.0,fe3c1d035a65c549f7011c5446f73ede
25,1,null,null,psychophysics,38,95604,0.0-3.0-1.17,"""",key,null,6.944391608391677,960,468.5,"""","""","""","""","""","""","""","""","2021-10-04 19:34:53",99.228.49.174,"Mozilla/5.0 (Windows NT 10.0; Win64; x64) AppleWebKit/537.36 (KHTML, like Gecko) Chrome/94.0.4606.61 Safari/537.36",WebKit,Chrome,94.0.4606.61,Windows,10.0,fe3c1d035a65c549f7011c5446f73ede
25,1,917.4000000953674,arrowright,psychophysics,39,96524,0.0-3.0-0.18,"""",key,arrowright,6.94443181818188,960,468.5,19,1,1,23,15,25,35,true,"2021-10-04 19:34:53",99.228.49.174,"Mozilla/5.0 (Windows NT 10.0; Win64; x64) AppleWebKit/537.36 (KHTML, like Gecko) Chrome/94.0.4606.61 Safari/537.36",WebKit,Chrome,94.0.4606.61,Windows,10.0,fe3c1d035a65c549f7011c5446f73ede
25,1,null,null,psychophysics,40,97526,0.0-3.0-1.18,"""",key,null,6.944412587412635,960,468.5,"""","""","""","""","""","""","""","""","2021-10-04 19:34:53",99.228.49.174,"Mozilla/5.0 (Windows NT 10.0; Win64; x64) AppleWebKit/537.36 (KHTML, like Gecko) Chrome/94.0.4606.61 Safari/537.36",WebKit,Chrome,94.0.4606.61,Windows,10.0,fe3c1d035a65c549f7011c5446f73ede
25,1,807.0999999046326,arrowleft,psychophysics,41,98336,0.0-3.0-0.19,"""",key,arrowleft,6.944465517241419,960,468.5,20,1,-1,23,15,25,35,true,"2021-10-04 19:34:53",99.228.49.174,"Mozilla/5.0 (Windows NT 10.0; Win64; x64) AppleWebKit/537.36 (KHTML, like Gecko) Chrome/94.0.4606.61 Safari/537.36",WebKit,Chrome,94.0.4606.61,Windows,10.0,fe3c1d035a65c549f7011c5446f73ede
25,1,null,null,psychophysics,42,99337,0.0-3.0-1.19,"""",key,null,6.94446153846157,960,468.5,"""","""","""","""","""","""","""","""","2021-10-04 19:34:53",99.228.49.174,"Mozilla/5.0 (Windows NT 10.0; Win64; x64) AppleWebKit/537.36 (KHTML, like Gecko) Chrome/94.0.4606.61 Safari/537.36",WebKit,Chrome,94.0.4606.61,Windows,10.0,fe3c1d035a65c549f7011c5446f73ede
25,1,902,arrowright,psychophysics,43,100241,0.0-3.0-0.20,"""",key,arrowright,6.944449612403121,960,468.5,21,1,-1,23,35,25,35,false,"2021-10-04 19:34:53",99.228.49.174,"Mozilla/5.0 (Windows NT 10.0; Win64; x64) AppleWebKit/537.36 (KHTML, like Gecko) Chrome/94.0.4606.61 Safari/537.36",WebKit,Chrome,94.0.4606.61,Windows,10.0,fe3c1d035a65c549f7011c5446f73ede
25,1,null,null,psychophysics,44,101241,0.0-3.0-1.20,"""",key,null,6.944440559440612,960,468.5,"""","""","""","""","""","""","""","""","2021-10-04 19:34:53",99.228.49.174,"Mozilla/5.0 (Windows NT 10.0; Win64; x64) AppleWebKit/537.36 (KHTML, like Gecko) Chrome/94.0.4606.61 Safari/537.36",WebKit,Chrome,94.0.4606.61,Windows,10.0,fe3c1d035a65c549f7011c5446f73ede
25,1,1047.2000000476837,arrowright,psychophysics,45,102291,0.0-3.0-0.21,"""",key,arrowright,6.944373333333351,960,468.5,22,1,1,25,15,25,35,true,"2021-10-04 19:34:53",99.228.49.174,"Mozilla/5.0 (Windows NT 10.0; Win64; x64) AppleWebKit/537.36 (KHTML, like Gecko) Chrome/94.0.4606.61 Safari/537.36",WebKit,Chrome,94.0.4606.61,Windows,10.0,fe3c1d035a65c549f7011c5446f73ede
25,1,null,null,psychophysics,46,103293,0.0-3.0-1.21,"""",key,null,6.94446853146859,960,468.5,"""","""","""","""","""","""","""","""","2021-10-04 19:34:53",99.228.49.174,"Mozilla/5.0 (Windows NT 10.0; Win64; x64) AppleWebKit/537.36 (KHTML, like Gecko) Chrome/94.0.4606.61 Safari/537.36",WebKit,Chrome,94.0.4606.61,Windows,10.0,fe3c1d035a65c549f7011c5446f73ede
25,1,832,arrowright,psychophysics,47,104128,0.0-3.0-0.22,"""",key,arrowright,6.94448333333324,960,468.5,23,1,-1,24,15,25,35,false,"2021-10-04 19:34:53",99.228.49.174,"Mozilla/5.0 (Windows NT 10.0; Win64; x64) AppleWebKit/537.36 (KHTML, like Gecko) Chrome/94.0.4606.61 Safari/537.36",WebKit,Chrome,94.0.4606.61,Windows,10.0,fe3c1d035a65c549f7011c5446f73ede
25,1,null,null,psychophysics,48,105128,0.0-3.0-1.22,"""",key,null,6.944083916083922,960,468.5,"""","""","""","""","""","""","""","""","2021-10-04 19:34:53",99.228.49.174,"Mozilla/5.0 (Windows NT 10.0; Win64; x64) AppleWebKit/537.36 (KHTML, like Gecko) Chrome/94.0.4606.61 Safari/537.36",WebKit,Chrome,94.0.4606.61,Windows,10.0,fe3c1d035a65c549f7011c5446f73ede
25,1,722.3999998569489,arrowright,psychophysics,49,105853,0.0-3.0-0.23,"""",key,arrowright,6.9443883495145355,960,468.5,24,1,-1,25,35,25,35,false,"2021-10-04 19:34:53",99.228.49.174,"Mozilla/5.0 (Windows NT 10.0; Win64; x64) AppleWebKit/537.36 (KHTML, like Gecko) Chrome/94.0.4606.61 Safari/537.36",WebKit,Chrome,94.0.4606.61,Windows,10.0,fe3c1d035a65c549f7011c5446f73ede
25,1,null,null,psychophysics,50,106854,0.0-3.0-1.23,"""",key,null,6.944384615384657,960,468.5,"""","""","""","""","""","""","""","""","2021-10-04 19:34:53",99.228.49.174,"Mozilla/5.0 (Windows NT 10.0; Win64; x64) AppleWebKit/537.36 (KHTML, like Gecko) Chrome/94.0.4606.61 Safari/537.36",WebKit,Chrome,94.0.4606.61,Windows,10.0,fe3c1d035a65c549f7011c5446f73ede
25,1,806.2999999523163,arrowright,psychophysics,51,107663,0.0-3.0-0.24,"""",key,arrowright,6.944422413793102,960,468.5,25,1,1,30,15,25,35,true,"2021-10-04 19:34:53",99.228.49.174,"Mozilla/5.0 (Windows NT 10.0; Win64; x64) AppleWebKit/537.36 (KHTML, like Gecko) Chrome/94.0.4606.61 Safari/537.36",WebKit,Chrome,94.0.4606.61,Windows,10.0,fe3c1d035a65c549f7011c5446f73ede
25,1,null,null,psychophysics,52,108664,0.0-3.0-1.24,"""",key,null,6.944335664335721,960,468.5,"""","""","""","""","""","""","""","""","2021-10-04 19:34:53",99.228.49.174,"Mozilla/5.0 (Windows NT 10.0; Win64; x64) AppleWebKit/537.36 (KHTML, like Gecko) Chrome/94.0.4606.61 Safari/537.36",WebKit,Chrome,94.0.4606.61,Windows,10.0,fe3c1d035a65c549f7011c5446f73ede
25,1,883,arrowleft,psychophysics,53,109550,0.0-3.0-0.25,"""",key,arrowleft,6.944412698412692,960,468.5,26,1,-1,23,15,25,35,true,"2021-10-04 19:34:53",99.228.49.174,"Mozilla/5.0 (Windows NT 10.0; Win64; x64) AppleWebKit/537.36 (KHTML, like Gecko) Chrome/94.0.4606.61 Safari/537.36",WebKit,Chrome,94.0.4606.61,Windows,10.0,fe3c1d035a65c549f7011c5446f73ede
25,1,null,null,psychophysics,54,110550,0.0-3.0-1.25,"""",key,null,6.944430555555503,960,468.5,"""","""","""","""","""","""","""","""","2021-10-04 19:34:53",99.228.49.174,"Mozilla/5.0 (Windows NT 10.0; Win64; x64) AppleWebKit/537.36 (KHTML, like Gecko) Chrome/94.0.4606.61 Safari/537.36",WebKit,Chrome,94.0.4606.61,Windows,10.0,fe3c1d035a65c549f7011c5446f73ede
25,1,1239,arrowright,psychophysics,55,111792,0.0-3.0-0.26,"""",key,arrowright,6.944485875706209,960,468.5,27,1,-1,23,15,25,35,false,"2021-10-04 19:34:53",99.228.49.174,"Mozilla/5.0 (Windows NT 10.0; Win64; x64) AppleWebKit/537.36 (KHTML, like Gecko) Chrome/94.0.4606.61 Safari/537.36",WebKit,Chrome,94.0.4606.61,Windows,10.0,fe3c1d035a65c549f7011c5446f73ede
25,1,null,null,psychophysics,56,112792,0.0-3.0-1.26,"""",key,null,6.944440559440612,960,468.5,"""","""","""","""","""","""","""","""","2021-10-04 19:34:53",99.228.49.174,"Mozilla/5.0 (Windows NT 10.0; Win64; x64) AppleWebKit/537.36 (KHTML, like Gecko) Chrome/94.0.4606.61 Safari/537.36",WebKit,Chrome,94.0.4606.61,Windows,10.0,fe3c1d035a65c549f7011c5446f73ede
25,1,798.0999999046326,arrowright,psychophysics,57,113593,0.0-3.0-0.27,"""",key,arrowright,6.9444173913044125,960,468.5,28,2,1,30,35,25,35,true,"2021-10-04 19:34:53",99.228.49.174,"Mozilla/5.0 (Windows NT 10.0; Win64; x64) AppleWebKit/537.36 (KHTML, like Gecko) Chrome/94.0.4606.61 Safari/537.36",WebKit,Chrome,94.0.4606.61,Windows,10.0,fe3c1d035a65c549f7011c5446f73ede
25,1,null,null,psychophysics,58,114594,0.0-3.0-1.27,"""",key,null,6.944426573426573,960,468.5,"""","""","""","""","""","""","""","""","2021-10-04 19:34:53",99.228.49.174,"Mozilla/5.0 (Windows NT 10.0; Win64; x64) AppleWebKit/537.36 (KHTML, like Gecko) Chrome/94.0.4606.61 Safari/537.36",WebKit,Chrome,94.0.4606.61,Windows,10.0,fe3c1d035a65c549f7011c5446f73ede
25,1,3661.4000000953674," ",html-keyboard-response,59,118257,0.0-3.0-2.27-0.27,"<div style=""color: white; text-align: center; vertical-align: top; display: inline-block; width: 800px; margin: auto""><p>You have completed 10% of the trials. You are on block 2 of 10. <br>Good job! Take a break if you need to.</p><p>Press any key to continue the experiment.</p></div>","""","""","""","""","""","""","""","""","""","""","""","""","""","2021-10-04 19:34:53",99.228.49.174,"Mozilla/5.0 (Windows NT 10.0; Win64; x64) AppleWebKit/537.36 (KHTML, like Gecko) Chrome/94.0.4606.61 Safari/537.36",WebKit,Chrome,94.0.4606.61,Windows,10.0,fe3c1d035a65c549f7011c5446f73ede
25,1,1103.0999999046326,arrowleft,psychophysics,60,120364,0.0-3.0-0.28,"""",key,arrowleft,6.944698113207607,960,468.5,29,2,1,23,35,25,35,false,"2021-10-04 19:34:53",99.228.49.174,"Mozilla/5.0 (Windows NT 10.0; Win64; x64) AppleWebKit/537.36 (KHTML, like Gecko) Chrome/94.0.4606.61 Safari/537.36",WebKit,Chrome,94.0.4606.61,Windows,10.0,fe3c1d035a65c549f7011c5446f73ede
25,1,null,null,psychophysics,61,121366,0.0-3.0-1.28,"""",key,null,6.9443986013985946,960,468.5,"""","""","""","""","""","""","""","""","2021-10-04 19:34:53",99.228.49.174,"Mozilla/5.0 (Windows NT 10.0; Win64; x64) AppleWebKit/537.36 (KHTML, like Gecko) Chrome/94.0.4606.61 Safari/537.36",WebKit,Chrome,94.0.4606.61,Windows,10.0,fe3c1d035a65c549f7011c5446f73ede
25,1,1234.1999998092651,arrowright,psychophysics,62,122602,0.0-3.0-0.29,"""",key,arrowright,6.944406779661037,960,468.5,30,2,-1,24,35,25,35,false,"2021-10-04 19:34:53",99.228.49.174,"Mozilla/5.0 (Windows NT 10.0; Win64; x64) AppleWebKit/537.36 (KHTML, like Gecko) Chrome/94.0.4606.61 Safari/537.36",WebKit,Chrome,94.0.4606.61,Windows,10.0,fe3c1d035a65c549f7011c5446f73ede
25,1,null,null,psychophysics,63,123603,0.0-3.0-1.29,"""",key,null,6.944391608391575,960,468.5,"""","""","""","""","""","""","""","""","2021-10-04 19:34:53",99.228.49.174,"Mozilla/5.0 (Windows NT 10.0; Win64; x64) AppleWebKit/537.36 (KHTML, like Gecko) Chrome/94.0.4606.61 Safari/537.36",WebKit,Chrome,94.0.4606.61,Windows,10.0,fe3c1d035a65c549f7011c5446f73ede
25,1,1012.0999999046326,arrowright,psychophysics,64,124617,0.0-3.0-0.30,"""",key,arrowright,6.9444344827586155,960,468.5,31,2,1,30,35,25,35,true,"2021-10-04 19:34:53",99.228.49.174,"Mozilla/5.0 (Windows NT 10.0; Win64; x64) AppleWebKit/537.36 (KHTML, like Gecko) Chrome/94.0.4606.61 Safari/537.36",WebKit,Chrome,94.0.4606.61,Windows,10.0,fe3c1d035a65c549f7011c5446f73ede
25,1,null,null,psychophysics,65,125618,0.0-3.0-1.30,"""",key,null,6.9443986013985946,960,468.5,"""","""","""","""","""","""","""","""","2021-10-04 19:34:53",99.228.49.174,"Mozilla/5.0 (Windows NT 10.0; Win64; x64) AppleWebKit/537.36 (KHTML, like Gecko) Chrome/94.0.4606.61 Safari/537.36",WebKit,Chrome,94.0.4606.61,Windows,10.0,fe3c1d035a65c549f7011c5446f73ede
25,1,937.0999999046326,arrowleft,psychophysics,66,126557,0.0-3.0-0.31,"""",key,arrowleft,6.9444104477612445,960,468.5,32,2,1,20,15,25,35,false,"2021-10-04 19:34:53",99.228.49.174,"Mozilla/5.0 (Windows NT 10.0; Win64; x64) AppleWebKit/537.36 (KHTML, like Gecko) Chrome/94.0.4606.61 Safari/537.36",WebKit,Chrome,94.0.4606.61,Windows,10.0,fe3c1d035a65c549f7011c5446f73ede
25,1,null,null,psychophysics,67,127559,0.0-3.0-1.31,"""",key,null,6.944416666666661,960,468.5,"""","""","""","""","""","""","""","""","2021-10-04 19:34:53",99.228.49.174,"Mozilla/5.0 (Windows NT 10.0; Win64; x64) AppleWebKit/537.36 (KHTML, like Gecko) Chrome/94.0.4606.61 Safari/537.36",WebKit,Chrome,94.0.4606.61,Windows,10.0,fe3c1d035a65c549f7011c5446f73ede
25,1,887.2999999523163,arrowright,psychophysics,68,128449,0.0-3.0-0.32,"""",key,arrowright,6.944417322834695,960,468.5,33,2,1,26,35,25,35,true,"2021-10-04 19:34:53",99.228.49.174,"Mozilla/5.0 (Windows NT 10.0; Win64; x64) AppleWebKit/537.36 (KHTML, like Gecko) Chrome/94.0.4606.61 Safari/537.36",WebKit,Chrome,94.0.4606.61,Windows,10.0,fe3c1d035a65c549f7011c5446f73ede
25,1,null,null,psychophysics,69,129449,0.0-3.0-1.32,"""",key,null,6.944419580419552,960,468.5,"""","""","""","""","""","""","""","""","2021-10-04 19:34:53",99.228.49.174,"Mozilla/5.0 (Windows NT 10.0; Win64; x64) AppleWebKit/537.36 (KHTML, like Gecko) Chrome/94.0.4606.61 Safari/537.36",WebKit,Chrome,94.0.4606.61,Windows,10.0,fe3c1d035a65c549f7011c5446f73ede
25,1,735.0999999046326,arrowright,psychophysics,70,130186,0.0-3.0-0.33,"""",key,arrowright,6.944399999999829,960,468.5,34,2,-1,26,35,25,35,false,"2021-10-04 19:34:53",99.228.49.174,"Mozilla/5.0 (Windows NT 10.0; Win64; x64) AppleWebKit/537.36 (KHTML, like Gecko) Chrome/94.0.4606.61 Safari/537.36",WebKit,Chrome,94.0.4606.61,Windows,10.0,fe3c1d035a65c549f7011c5446f73ede
25,1,null,null,psychophysics,71,131187,0.0-3.0-1.33,"""",key,null,6.944412587412635,960,468.5,"""","""","""","""","""","""","""","""","2021-10-04 19:34:53",99.228.49.174,"Mozilla/5.0 (Windows NT 10.0; Win64; x64) AppleWebKit/537.36 (KHTML, like Gecko) Chrome/94.0.4606.61 Safari/537.36",WebKit,Chrome,94.0.4606.61,Windows,10.0,fe3c1d035a65c549f7011c5446f73ede
25,1,866.0999999046326,arrowleft,psychophysics,72,132055,0.0-3.0-0.34,"""",key,arrowleft,6.944419354838535,960,468.5,35,2,1,25,35,25,35,false,"2021-10-04 19:34:53",99.228.49.174,"Mozilla/5.0 (Windows NT 10.0; Win64; x64) AppleWebKit/537.36 (KHTML, like Gecko) Chrome/94.0.4606.61 Safari/537.36",WebKit,Chrome,94.0.4606.61,Windows,10.0,fe3c1d035a65c549f7011c5446f73ede
25,1,null,null,psychophysics,73,133056,0.0-3.0-1.34,"""",key,null,6.944426573426471,960,468.5,"""","""","""","""","""","""","""","""","2021-10-04 19:34:53",99.228.49.174,"Mozilla/5.0 (Windows NT 10.0; Win64; x64) AppleWebKit/537.36 (KHTML, like Gecko) Chrome/94.0.4606.61 Safari/537.36",WebKit,Chrome,94.0.4606.61,Windows,10.0,fe3c1d035a65c549f7011c5446f73ede
25,1,816.4000000953674,arrowleft,psychophysics,74,133875,0.0-3.0-0.35,"""",key,arrowleft,6.94443589743574,960,468.5,36,2,-1,27,15,25,35,true,"2021-10-04 19:34:53",99.228.49.174,"Mozilla/5.0 (Windows NT 10.0; Win64; x64) AppleWebKit/537.36 (KHTML, like Gecko) Chrome/94.0.4606.61 Safari/537.36",WebKit,Chrome,94.0.4606.61,Windows,10.0,fe3c1d035a65c549f7011c5446f73ede
25,1,null,null,psychophysics,75,134876,0.0-3.0-1.35,"""",key,null,6.944440559440714,960,468.5,"""","""","""","""","""","""","""","""","2021-10-04 19:34:53",99.228.49.174,"Mozilla/5.0 (Windows NT 10.0; Win64; x64) AppleWebKit/537.36 (KHTML, like Gecko) Chrome/94.0.4606.61 Safari/537.36",WebKit,Chrome,94.0.4606.61,Windows,10.0,fe3c1d035a65c549f7011c5446f73ede
25,1,736.2999999523163,arrowright,psychophysics,76,135615,0.0-3.0-0.36,"""",key,arrowright,6.944396226415092,960,468.5,37,2,1,23,15,25,35,true,"2021-10-04 19:34:53",99.228.49.174,"Mozilla/5.0 (Windows NT 10.0; Win64; x64) AppleWebKit/537.36 (KHTML, like Gecko) Chrome/94.0.4606.61 Safari/537.36",WebKit,Chrome,94.0.4606.61,Windows,10.0,fe3c1d035a65c549f7011c5446f73ede
25,1,null,null,psychophysics,77,136615,0.0-3.0-1.36,"""",key,null,6.9444335664335926,960,468.5,"""","""","""","""","""","""","""","""","2021-10-04 19:34:53",99.228.49.174,"Mozilla/5.0 (Windows NT 10.0; Win64; x64) AppleWebKit/537.36 (KHTML, like Gecko) Chrome/94.0.4606.61 Safari/537.36",WebKit,Chrome,94.0.4606.61,Windows,10.0,fe3c1d035a65c549f7011c5446f73ede
25,1,781.1999998092651,arrowright,psychophysics,78,137399,0.0-3.0-0.37,"""",key,arrowright,6.944419642857091,960,468.5,38,2,1,24,35,25,35,true,"2021-10-04 19:34:53",99.228.49.174,"Mozilla/5.0 (Windows NT 10.0; Win64; x64) AppleWebKit/537.36 (KHTML, like Gecko) Chrome/94.0.4606.61 Safari/537.36",WebKit,Chrome,94.0.4606.61,Windows,10.0,fe3c1d035a65c549f7011c5446f73ede
25,1,null,null,psychophysics,79,138399,0.0-3.0-1.37,"""",key,null,6.944440559440511,960,468.5,"""","""","""","""","""","""","""","""","2021-10-04 19:34:53",99.228.49.174,"Mozilla/5.0 (Windows NT 10.0; Win64; x64) AppleWebKit/537.36 (KHTML, like Gecko) Chrome/94.0.4606.61 Safari/537.36",WebKit,Chrome,94.0.4606.61,Windows,10.0,fe3c1d035a65c549f7011c5446f73ede
25,1,929.2999999523163,arrowleft,psychophysics,80,139331,0.0-3.0-0.38,"""",key,arrowleft,6.944443609022589,960,468.5,39,2,1,20,35,25,35,false,"2021-10-04 19:34:53",99.228.49.174,"Mozilla/5.0 (Windows NT 10.0; Win64; x64) AppleWebKit/537.36 (KHTML, like Gecko) Chrome/94.0.4606.61 Safari/537.36",WebKit,Chrome,94.0.4606.61,Windows,10.0,fe3c1d035a65c549f7011c5446f73ede
25,1,null,null,psychophysics,81,140332,0.0-3.0-1.38,"""",key,null,6.9443986013985946,960,468.5,"""","""","""","""","""","""","""","""","2021-10-04 19:34:53",99.228.49.174,"Mozilla/5.0 (Windows NT 10.0; Win64; x64) AppleWebKit/537.36 (KHTML, like Gecko) Chrome/94.0.4606.61 Safari/537.36",WebKit,Chrome,94.0.4606.61,Windows,10.0,fe3c1d035a65c549f7011c5446f73ede
25,1,1436.0999999046326,arrowright,psychophysics,82,141771,0.0-3.0-0.39,"""",key,arrowright,6.944432038835021,960,468.5,40,2,1,23,35,25,35,true,"2021-10-04 19:34:53",99.228.49.174,"Mozilla/5.0 (Windows NT 10.0; Win64; x64) AppleWebKit/537.36 (KHTML, like Gecko) Chrome/94.0.4606.61 Safari/537.36",WebKit,Chrome,94.0.4606.61,Windows,10.0,fe3c1d035a65c549f7011c5446f73ede
25,1,null,null,psychophysics,83,142771,0.0-3.0-1.39,"""",key,null,6.9443986013985946,960,468.5,"""","""","""","""","""","""","""","""","2021-10-04 19:34:53",99.228.49.174,"Mozilla/5.0 (Windows NT 10.0; Win64; x64) AppleWebKit/537.36 (KHTML, like Gecko) Chrome/94.0.4606.61 Safari/537.36",WebKit,Chrome,94.0.4606.61,Windows,10.0,fe3c1d035a65c549f7011c5446f73ede
25,1,760.8999998569489,arrowright,psychophysics,84,143534,0.0-3.0-0.40,"""",key,arrowright,6.944440366972639,960,468.5,41,2,-1,20,35,25,35,false,"2021-10-04 19:34:53",99.228.49.174,"Mozilla/5.0 (Windows NT 10.0; Win64; x64) AppleWebKit/537.36 (KHTML, like Gecko) Chrome/94.0.4606.61 Safari/537.36",WebKit,Chrome,94.0.4606.61,Windows,10.0,fe3c1d035a65c549f7011c5446f73ede
25,1,null,null,psychophysics,85,144536,0.0-3.0-1.40,"""",key,null,6.944433566433389,960,468.5,"""","""","""","""","""","""","""","""","2021-10-04 19:34:53",99.228.49.174,"Mozilla/5.0 (Windows NT 10.0; Win64; x64) AppleWebKit/537.36 (KHTML, like Gecko) Chrome/94.0.4606.61 Safari/537.36",WebKit,Chrome,94.0.4606.61,Windows,10.0,fe3c1d035a65c549f7011c5446f73ede
25,1,731.2999999523163,arrowright,psychophysics,86,145270,0.0-3.0-0.41,"""",key,arrowright,6.9443904761906845,960,468.5,42,2,1,27,35,25,35,true,"2021-10-04 19:34:53",99.228.49.174,"Mozilla/5.0 (Windows NT 10.0; Win64; x64) AppleWebKit/537.36 (KHTML, like Gecko) Chrome/94.0.4606.61 Safari/537.36",WebKit,Chrome,94.0.4606.61,Windows,10.0,fe3c1d035a65c549f7011c5446f73ede
25,1,null,null,psychophysics,87,146271,0.0-3.0-1.41,"""",key,null,6.9443986013985946,960,468.5,"""","""","""","""","""","""","""","""","2021-10-04 19:34:53",99.228.49.174,"Mozilla/5.0 (Windows NT 10.0; Win64; x64) AppleWebKit/537.36 (KHTML, like Gecko) Chrome/94.0.4606.61 Safari/537.36",WebKit,Chrome,94.0.4606.61,Windows,10.0,fe3c1d035a65c549f7011c5446f73ede
25,1,779.2000000476837,arrowright,psychophysics,88,147052,0.0-3.0-0.42,"""",key,arrowright,6.944464285714275,960,468.5,43,2,1,25,15,25,35,true,"2021-10-04 19:34:53",99.228.49.174,"Mozilla/5.0 (Windows NT 10.0; Win64; x64) AppleWebKit/537.36 (KHTML, like Gecko) Chrome/94.0.4606.61 Safari/537.36",WebKit,Chrome,94.0.4606.61,Windows,10.0,fe3c1d035a65c549f7011c5446f73ede
25,1,null,null,psychophysics,89,148053,0.0-3.0-1.42,"""",key,null,6.9444475524474285,960,468.5,"""","""","""","""","""","""","""","""","2021-10-04 19:34:53",99.228.49.174,"Mozilla/5.0 (Windows NT 10.0; Win64; x64) AppleWebKit/537.36 (KHTML, like Gecko) Chrome/94.0.4606.61 Safari/537.36",WebKit,Chrome,94.0.4606.61,Windows,10.0,fe3c1d035a65c549f7011c5446f73ede
25,1,1413.5,arrowright,psychophysics,90,149469,0.0-3.0-0.43,"""",key,arrowright,6.944423645320308,960,468.5,44,2,-1,27,35,25,35,false,"2021-10-04 19:34:53",99.228.49.174,"Mozilla/5.0 (Windows NT 10.0; Win64; x64) AppleWebKit/537.36 (KHTML, like Gecko) Chrome/94.0.4606.61 Safari/537.36",WebKit,Chrome,94.0.4606.61,Windows,10.0,fe3c1d035a65c549f7011c5446f73ede
25,1,null,null,psychophysics,91,150469,0.0-3.0-1.43,"""",key,null,6.944531468531464,960,468.5,"""","""","""","""","""","""","""","""","2021-10-04 19:34:53",99.228.49.174,"Mozilla/5.0 (Windows NT 10.0; Win64; x64) AppleWebKit/537.36 (KHTML, like Gecko) Chrome/94.0.4606.61 Safari/537.36",WebKit,Chrome,94.0.4606.61,Windows,10.0,fe3c1d035a65c549f7011c5446f73ede
25,1,955.1999998092651,arrowright,psychophysics,92,151427,0.0-3.0-0.44,"""",key,arrowright,6.944423357664223,960,468.5,45,2,1,27,35,25,35,true,"2021-10-04 19:34:53",99.228.49.174,"Mozilla/5.0 (Windows NT 10.0; Win64; x64) AppleWebKit/537.36 (KHTML, like Gecko) Chrome/94.0.4606.61 Safari/537.36",WebKit,Chrome,94.0.4606.61,Windows,10.0,fe3c1d035a65c549f7011c5446f73ede
25,1,null,null,psychophysics,93,152428,0.0-3.0-1.44,"""",key,null,6.944391608391677,960,468.5,"""","""","""","""","""","""","""","""","2021-10-04 19:34:53",99.228.49.174,"Mozilla/5.0 (Windows NT 10.0; Win64; x64) AppleWebKit/537.36 (KHTML, like Gecko) Chrome/94.0.4606.61 Safari/537.36",WebKit,Chrome,94.0.4606.61,Windows,10.0,fe3c1d035a65c549f7011c5446f73ede
25,1,914.1999998092651,arrowleft,psychophysics,94,153344,0.0-3.0-0.45,"""",key,arrowleft,6.94442748091604,960,468.5,46,2,1,24,35,25,35,false,"2021-10-04 19:34:53",99.228.49.174,"Mozilla/5.0 (Windows NT 10.0; Win64; x64) AppleWebKit/537.36 (KHTML, like Gecko) Chrome/94.0.4606.61 Safari/537.36",WebKit,Chrome,94.0.4606.61,Windows,10.0,fe3c1d035a65c549f7011c5446f73ede
25,1,null,null,psychophysics,95,154345,0.0-3.0-1.45,"""",key,null,6.944440559440714,960,468.5,"""","""","""","""","""","""","""","""","2021-10-04 19:34:53",99.228.49.174,"Mozilla/5.0 (Windows NT 10.0; Win64; x64) AppleWebKit/537.36 (KHTML, like Gecko) Chrome/94.0.4606.61 Safari/537.36",WebKit,Chrome,94.0.4606.61,Windows,10.0,fe3c1d035a65c549f7011c5446f73ede
25,1,943.1999998092651,arrowleft,psychophysics,96,155290,0.0-3.0-0.46,"""",key,arrowleft,6.944437037037116,960,468.5,47,2,1,20,35,25,35,false,"2021-10-04 19:34:53",99.228.49.174,"Mozilla/5.0 (Windows NT 10.0; Win64; x64) AppleWebKit/537.36 (KHTML, like Gecko) Chrome/94.0.4606.61 Safari/537.36",WebKit,Chrome,94.0.4606.61,Windows,10.0,fe3c1d035a65c549f7011c5446f73ede
25,1,null,null,psychophysics,97,156292,0.0-3.0-1.46,"""",key,null,6.944412587412635,960,468.5,"""","""","""","""","""","""","""","""","2021-10-04 19:34:53",99.228.49.174,"Mozilla/5.0 (Windows NT 10.0; Win64; x64) AppleWebKit/537.36 (KHTML, like Gecko) Chrome/94.0.4606.61 Safari/537.36",WebKit,Chrome,94.0.4606.61,Windows,10.0,fe3c1d035a65c549f7011c5446f73ede
25,1,742.7999999523163,arrowleft,psychophysics,98,157038,0.0-3.0-0.47,"""",key,arrowleft,6.94445794392524,960,468.5,48,2,-1,25,15,25,35,true,"2021-10-04 19:34:53",99.228.49.174,"Mozilla/5.0 (Windows NT 10.0; Win64; x64) AppleWebKit/537.36 (KHTML, like Gecko) Chrome/94.0.4606.61 Safari/537.36",WebKit,Chrome,94.0.4606.61,Windows,10.0,fe3c1d035a65c549f7011c5446f73ede
25,1,null,null,psychophysics,99,158039,0.0-3.0-1.47,"""",key,null,6.9443986013985946,960,468.5,"""","""","""","""","""","""","""","""","2021-10-04 19:34:53",99.228.49.174,"Mozilla/5.0 (Windows NT 10.0; Win64; x64) AppleWebKit/537.36 (KHTML, like Gecko) Chrome/94.0.4606.61 Safari/537.36",WebKit,Chrome,94.0.4606.61,Windows,10.0,fe3c1d035a65c549f7011c5446f73ede
25,1,909,arrowright,psychophysics,100,158950,0.0-3.0-0.48,"""",key,arrowright,6.944423076923032,960,468.5,49,2,-1,23,35,25,35,false,"2021-10-04 19:34:53",99.228.49.174,"Mozilla/5.0 (Windows NT 10.0; Win64; x64) AppleWebKit/537.36 (KHTML, like Gecko) Chrome/94.0.4606.61 Safari/537.36",WebKit,Chrome,94.0.4606.61,Windows,10.0,fe3c1d035a65c549f7011c5446f73ede
25,1,null,null,psychophysics,101,159951,0.0-3.0-1.48,"""",key,null,6.944391608391677,960,468.5,"""","""","""","""","""","""","""","""","2021-10-04 19:34:53",99.228.49.174,"Mozilla/5.0 (Windows NT 10.0; Win64; x64) AppleWebKit/537.36 (KHTML, like Gecko) Chrome/94.0.4606.61 Safari/537.36",WebKit,Chrome,94.0.4606.61,Windows,10.0,fe3c1d035a65c549f7011c5446f73ede
25,1,620.3999998569489,arrowright,psychophysics,102,160574,0.0-3.0-0.49,"""",key,arrowright,6.944460674157312,960,468.5,50,2,1,30,15,25,35,true,"2021-10-04 19:34:53",99.228.49.174,"Mozilla/5.0 (Windows NT 10.0; Win64; x64) AppleWebKit/537.36 (KHTML, like Gecko) Chrome/94.0.4606.61 Safari/537.36",WebKit,Chrome,94.0.4606.61,Windows,10.0,fe3c1d035a65c549f7011c5446f73ede
25,1,null,null,psychophysics,103,161575,0.0-3.0-1.49,"""",key,null,6.944447552447632,960,468.5,"""","""","""","""","""","""","""","""","2021-10-04 19:34:53",99.228.49.174,"Mozilla/5.0 (Windows NT 10.0; Win64; x64) AppleWebKit/537.36 (KHTML, like Gecko) Chrome/94.0.4606.61 Safari/537.36",WebKit,Chrome,94.0.4606.61,Windows,10.0,fe3c1d035a65c549f7011c5446f73ede
25,1,710.1999998092651,arrowleft,psychophysics,104,162288,0.0-3.0-0.50,"""",key,arrowleft,6.944441176470433,960,468.5,51,2,-1,30,15,25,35,true,"2021-10-04 19:34:53",99.228.49.174,"Mozilla/5.0 (Windows NT 10.0; Win64; x64) AppleWebKit/537.36 (KHTML, like Gecko) Chrome/94.0.4606.61 Safari/537.36",WebKit,Chrome,94.0.4606.61,Windows,10.0,fe3c1d035a65c549f7011c5446f73ede
25,1,null,null,psychophysics,105,163288,0.0-3.0-1.50,"""",key,null,6.9443496503497615,960,468.5,"""","""","""","""","""","""","""","""","2021-10-04 19:34:53",99.228.49.174,"Mozilla/5.0 (Windows NT 10.0; Win64; x64) AppleWebKit/537.36 (KHTML, like Gecko) Chrome/94.0.4606.61 Safari/537.36",WebKit,Chrome,94.0.4606.61,Windows,10.0,fe3c1d035a65c549f7011c5446f73ede
25,1,755,arrowright,psychophysics,106,164047,0.0-3.0-0.51,"""",key,arrowright,6.944351851852035,960,468.5,52,2,-1,26,15,25,35,false,"2021-10-04 19:34:53",99.228.49.174,"Mozilla/5.0 (Windows NT 10.0; Win64; x64) AppleWebKit/537.36 (KHTML, like Gecko) Chrome/94.0.4606.61 Safari/537.36",WebKit,Chrome,94.0.4606.61,Windows,10.0,fe3c1d035a65c549f7011c5446f73ede
25,1,null,null,psychophysics,107,165048,0.0-3.0-1.51,"""",key,null,6.9444335664335926,960,468.5,"""","""","""","""","""","""","""","""","2021-10-04 19:34:53",99.228.49.174,"Mozilla/5.0 (Windows NT 10.0; Win64; x64) AppleWebKit/537.36 (KHTML, like Gecko) Chrome/94.0.4606.61 Safari/537.36",WebKit,Chrome,94.0.4606.61,Windows,10.0,fe3c1d035a65c549f7011c5446f73ede
25,1,741.0999999046326,arrowright,psychophysics,108,165791,0.0-3.0-0.52,"""",key,arrowright,6.944386792452929,960,468.5,53,2,1,30,35,25,35,true,"2021-10-04 19:34:53",99.228.49.174,"Mozilla/5.0 (Windows NT 10.0; Win64; x64) AppleWebKit/537.36 (KHTML, like Gecko) Chrome/94.0.4606.61 Safari/537.36",WebKit,Chrome,94.0.4606.61,Windows,10.0,fe3c1d035a65c549f7011c5446f73ede
25,1,null,null,psychophysics,109,166792,0.0-3.0-1.52,"""",key,null,6.944405594405716,960,468.5,"""","""","""","""","""","""","""","""","2021-10-04 19:34:53",99.228.49.174,"Mozilla/5.0 (Windows NT 10.0; Win64; x64) AppleWebKit/537.36 (KHTML, like Gecko) Chrome/94.0.4606.61 Safari/537.36",WebKit,Chrome,94.0.4606.61,Windows,10.0,fe3c1d035a65c549f7011c5446f73ede
25,1,721,arrowleft,psychophysics,110,167515,0.0-3.0-0.53,"""",key,arrowleft,6.944524271844872,960,468.5,54,2,1,20,35,25,35,false,"2021-10-04 19:34:53",99.228.49.174,"Mozilla/5.0 (Windows NT 10.0; Win64; x64) AppleWebKit/537.36 (KHTML, like Gecko) Chrome/94.0.4606.61 Safari/537.36",WebKit,Chrome,94.0.4606.61,Windows,10.0,fe3c1d035a65c549f7011c5446f73ede
25,1,null,null,psychophysics,111,168516,0.0-3.0-1.53,"""",key,null,6.9444825174824265,960,468.5,"""","""","""","""","""","""","""","""","2021-10-04 19:34:53",99.228.49.174,"Mozilla/5.0 (Windows NT 10.0; Win64; x64) AppleWebKit/537.36 (KHTML, like Gecko) Chrome/94.0.4606.61 Safari/537.36",WebKit,Chrome,94.0.4606.61,Windows,10.0,fe3c1d035a65c549f7011c5446f73ede
25,1,779.2000000476837,arrowleft,psychophysics,112,169297,0.0-3.0-0.54,"""",key,arrowleft,6.9444821428572014,960,468.5,55,2,-1,26,15,25,35,true,"2021-10-04 19:34:53",99.228.49.174,"Mozilla/5.0 (Windows NT 10.0; Win64; x64) AppleWebKit/537.36 (KHTML, like Gecko) Chrome/94.0.4606.61 Safari/537.36",WebKit,Chrome,94.0.4606.61,Windows,10.0,fe3c1d035a65c549f7011c5446f73ede
25,1,null,null,psychophysics,113,170299,0.0-3.0-1.54,"""",key,null,6.94445454545455,960,468.5,"""","""","""","""","""","""","""","""","2021-10-04 19:34:53",99.228.49.174,"Mozilla/5.0 (Windows NT 10.0; Win64; x64) AppleWebKit/537.36 (KHTML, like Gecko) Chrome/94.0.4606.61 Safari/537.36",WebKit,Chrome,94.0.4606.61,Windows,10.0,fe3c1d035a65c549f7011c5446f73ede
25,1,857.7000000476837,arrowright,psychophysics,114,171159,0.0-3.0-0.55,"""",key,arrowright,6.9444552845528875,960,468.5,56,3,-1,24,35,25,35,false,"2021-10-04 19:34:53",99.228.49.174,"Mozilla/5.0 (Windows NT 10.0; Win64; x64) AppleWebKit/537.36 (KHTML, like Gecko) Chrome/94.0.4606.61 Safari/537.36",WebKit,Chrome,94.0.4606.61,Windows,10.0,fe3c1d035a65c549f7011c5446f73ede
25,1,null,null,psychophysics,115,172159,0.0-3.0-1.55,"""",key,null,6.944391608391677,960,468.5,"""","""","""","""","""","""","""","""","2021-10-04 19:34:53",99.228.49.174,"Mozilla/5.0 (Windows NT 10.0; Win64; x64) AppleWebKit/537.36 (KHTML, like Gecko) Chrome/94.0.4606.61 Safari/537.36",WebKit,Chrome,94.0.4606.61,Windows,10.0,fe3c1d035a65c549f7011c5446f73ede
25,1,1291.7999999523163," ",html-keyboard-response,116,173452,0.0-3.0-2.55-0.55,"<div style=""color: white; text-align: center; vertical-align: top; display: inline-block; width: 800px; margin: auto""><p>You have completed 20% of the trials. You are on block 3 of 10. <br>Good job! Take a break if you need to.</p><p>Press any key to continue the experiment.</p></div>","""","""","""","""","""","""","""","""","""","""","""","""","""","2021-10-04 19:34:53",99.228.49.174,"Mozilla/5.0 (Windows NT 10.0; Win64; x64) AppleWebKit/537.36 (KHTML, like Gecko) Chrome/94.0.4606.61 Safari/537.36",WebKit,Chrome,94.0.4606.61,Windows,10.0,fe3c1d035a65c549f7011c5446f73ede
25,1,974.3999998569489,arrowleft,psychophysics,117,175428,0.0-3.0-0.56,"""",key,arrowleft,6.994571428571362,960,468.5,57,3,-1,25,35,25,35,true,"2021-10-04 19:34:53",99.228.49.174,"Mozilla/5.0 (Windows NT 10.0; Win64; x64) AppleWebKit/537.36 (KHTML, like Gecko) Chrome/94.0.4606.61 Safari/537.36",WebKit,Chrome,94.0.4606.61,Windows,10.0,fe3c1d035a65c549f7011c5446f73ede
25,1,null,null,psychophysics,118,176430,0.0-3.0-1.56,"""",key,null,6.944475524475508,960,468.5,"""","""","""","""","""","""","""","""","2021-10-04 19:34:53",99.228.49.174,"Mozilla/5.0 (Windows NT 10.0; Win64; x64) AppleWebKit/537.36 (KHTML, like Gecko) Chrome/94.0.4606.61 Safari/537.36",WebKit,Chrome,94.0.4606.61,Windows,10.0,fe3c1d035a65c549f7011c5446f73ede
25,1,1196,arrowleft,psychophysics,119,177628,0.0-3.0-0.57,"""",key,arrowleft,6.944494186046392,960,468.5,58,3,-1,23,15,25,35,true,"2021-10-04 19:34:53",99.228.49.174,"Mozilla/5.0 (Windows NT 10.0; Win64; x64) AppleWebKit/537.36 (KHTML, like Gecko) Chrome/94.0.4606.61 Safari/537.36",WebKit,Chrome,94.0.4606.61,Windows,10.0,fe3c1d035a65c549f7011c5446f73ede
25,1,null,null,psychophysics,120,178629,0.0-3.0-1.57,"""",key,null,6.944447552447632,960,468.5,"""","""","""","""","""","""","""","""","2021-10-04 19:34:53",99.228.49.174,"Mozilla/5.0 (Windows NT 10.0; Win64; x64) AppleWebKit/537.36 (KHTML, like Gecko) Chrome/94.0.4606.61 Safari/537.36",WebKit,Chrome,94.0.4606.61,Windows,10.0,fe3c1d035a65c549f7011c5446f73ede
25,1,795.1999998092651,arrowleft,psychophysics,121,179427,0.0-3.0-0.58,"""",key,arrowleft,6.944508771929816,960,468.5,59,3,1,20,35,25,35,false,"2021-10-04 19:34:53",99.228.49.174,"Mozilla/5.0 (Windows NT 10.0; Win64; x64) AppleWebKit/537.36 (KHTML, like Gecko) Chrome/94.0.4606.61 Safari/537.36",WebKit,Chrome,94.0.4606.61,Windows,10.0,fe3c1d035a65c549f7011c5446f73ede
25,1,null,null,psychophysics,122,180427,0.0-3.0-1.58,"""",key,null,6.9444825174824265,960,468.5,"""","""","""","""","""","""","""","""","2021-10-04 19:34:53",99.228.49.174,"Mozilla/5.0 (Windows NT 10.0; Win64; x64) AppleWebKit/537.36 (KHTML, like Gecko) Chrome/94.0.4606.61 Safari/537.36",WebKit,Chrome,94.0.4606.61,Windows,10.0,fe3c1d035a65c549f7011c5446f73ede
25,1,750.3999998569489,arrowleft,psychophysics,123,181179,0.0-3.0-0.59,"""",key,arrowleft,6.944411214953234,960,468.5,60,3,-1,26,15,25,35,true,"2021-10-04 19:34:53",99.228.49.174,"Mozilla/5.0 (Windows NT 10.0; Win64; x64) AppleWebKit/537.36 (KHTML, like Gecko) Chrome/94.0.4606.61 Safari/537.36",WebKit,Chrome,94.0.4606.61,Windows,10.0,fe3c1d035a65c549f7011c5446f73ede
25,1,null,null,psychophysics,124,182181,0.0-3.0-1.59,"""",key,null,6.944503496503588,960,468.5,"""","""","""","""","""","""","""","""","2021-10-04 19:34:53",99.228.49.174,"Mozilla/5.0 (Windows NT 10.0; Win64; x64) AppleWebKit/537.36 (KHTML, like Gecko) Chrome/94.0.4606.61 Safari/537.36",WebKit,Chrome,94.0.4606.61,Windows,10.0,fe3c1d035a65c549f7011c5446f73ede
25,1,646.9000000953674,arrowleft,psychophysics,125,182830,0.0-3.0-0.60,"""",key,arrowleft,6.9445698924731305,960,468.5,61,3,-1,30,15,25,35,true,"2021-10-04 19:34:53",99.228.49.174,"Mozilla/5.0 (Windows NT 10.0; Win64; x64) AppleWebKit/537.36 (KHTML, like Gecko) Chrome/94.0.4606.61 Safari/537.36",WebKit,Chrome,94.0.4606.61,Windows,10.0,fe3c1d035a65c549f7011c5446f73ede
25,1,null,null,psychophysics,126,183831,0.0-3.0-1.60,"""",key,null,6.94445454545455,960,468.5,"""","""","""","""","""","""","""","""","2021-10-04 19:34:53",99.228.49.174,"Mozilla/5.0 (Windows NT 10.0; Win64; x64) AppleWebKit/537.36 (KHTML, like Gecko) Chrome/94.0.4606.61 Safari/537.36",WebKit,Chrome,94.0.4606.61,Windows,10.0,fe3c1d035a65c549f7011c5446f73ede
25,1,700.1999998092651,arrowright,psychophysics,127,184533,0.0-3.0-0.61,"""",key,arrowright,6.9445300000000865,960,468.5,62,3,1,30,35,25,35,true,"2021-10-04 19:34:53",99.228.49.174,"Mozilla/5.0 (Windows NT 10.0; Win64; x64) AppleWebKit/537.36 (KHTML, like Gecko) Chrome/94.0.4606.61 Safari/537.36",WebKit,Chrome,94.0.4606.61,Windows,10.0,fe3c1d035a65c549f7011c5446f73ede
25,1,null,null,psychophysics,128,185534,0.0-3.0-1.61,"""",key,null,6.944426573426674,960,468.5,"""","""","""","""","""","""","""","""","2021-10-04 19:34:53",99.228.49.174,"Mozilla/5.0 (Windows NT 10.0; Win64; x64) AppleWebKit/537.36 (KHTML, like Gecko) Chrome/94.0.4606.61 Safari/537.36",WebKit,Chrome,94.0.4606.61,Windows,10.0,fe3c1d035a65c549f7011c5446f73ede
25,1,852.2999999523163,arrowleft,psychophysics,129,186389,0.0-3.0-0.62,"""",key,arrowleft,6.944491803278711,960,468.5,63,3,-1,26,15,25,35,true,"2021-10-04 19:34:53",99.228.49.174,"Mozilla/5.0 (Windows NT 10.0; Win64; x64) AppleWebKit/537.36 (KHTML, like Gecko) Chrome/94.0.4606.61 Safari/537.36",WebKit,Chrome,94.0.4606.61,Windows,10.0,fe3c1d035a65c549f7011c5446f73ede
25,1,null,null,psychophysics,130,187390,0.0-3.0-1.62,"""",key,null,6.944461538461469,960,468.5,"""","""","""","""","""","""","""","""","2021-10-04 19:34:53",99.228.49.174,"Mozilla/5.0 (Windows NT 10.0; Win64; x64) AppleWebKit/537.36 (KHTML, like Gecko) Chrome/94.0.4606.61 Safari/537.36",WebKit,Chrome,94.0.4606.61,Windows,10.0,fe3c1d035a65c549f7011c5446f73ede
25,1,858.0999999046326,arrowright,psychophysics,131,188251,0.0-3.0-0.63,"""",key,arrowright,6.944406504064895,960,468.5,64,3,1,30,35,25,35,true,"2021-10-04 19:34:53",99.228.49.174,"Mozilla/5.0 (Windows NT 10.0; Win64; x64) AppleWebKit/537.36 (KHTML, like Gecko) Chrome/94.0.4606.61 Safari/537.36",WebKit,Chrome,94.0.4606.61,Windows,10.0,fe3c1d035a65c549f7011c5446f73ede
25,1,null,null,psychophysics,132,189252,0.0-3.0-1.63,"""",key,null,6.944461538461672,960,468.5,"""","""","""","""","""","""","""","""","2021-10-04 19:34:53",99.228.49.174,"Mozilla/5.0 (Windows NT 10.0; Win64; x64) AppleWebKit/537.36 (KHTML, like Gecko) Chrome/94.0.4606.61 Safari/537.36",WebKit,Chrome,94.0.4606.61,Windows,10.0,fe3c1d035a65c549f7011c5446f73ede
25,1,952.0999999046326,arrowleft,psychophysics,133,190206,0.0-3.0-0.64,"""",key,arrowleft,6.944496350365021,960,468.5,65,3,-1,24,15,25,35,true,"2021-10-04 19:34:53",99.228.49.174,"Mozilla/5.0 (Windows NT 10.0; Win64; x64) AppleWebKit/537.36 (KHTML, like Gecko) Chrome/94.0.4606.61 Safari/537.36",WebKit,Chrome,94.0.4606.61,Windows,10.0,fe3c1d035a65c549f7011c5446f73ede
25,1,null,null,psychophysics,134,191207,0.0-3.0-1.64,"""",key,null,6.944342657342843,960,468.5,"""","""","""","""","""","""","""","""","2021-10-04 19:34:53",99.228.49.174,"Mozilla/5.0 (Windows NT 10.0; Win64; x64) AppleWebKit/537.36 (KHTML, like Gecko) Chrome/94.0.4606.61 Safari/537.36",WebKit,Chrome,94.0.4606.61,Windows,10.0,fe3c1d035a65c549f7011c5446f73ede
25,1,886.3999998569489,arrowright,psychophysics,135,192096,0.0-3.0-0.65,"""",key,arrowright,6.944401574803023,960,468.5,66,3,1,23,15,25,35,true,"2021-10-04 19:34:53",99.228.49.174,"Mozilla/5.0 (Windows NT 10.0; Win64; x64) AppleWebKit/537.36 (KHTML, like Gecko) Chrome/94.0.4606.61 Safari/537.36",WebKit,Chrome,94.0.4606.61,Windows,10.0,fe3c1d035a65c549f7011c5446f73ede
25,1,null,null,psychophysics,136,193096,0.0-3.0-1.65,"""",key,null,6.944811188811241,960,468.5,"""","""","""","""","""","""","""","""","2021-10-04 19:34:53",99.228.49.174,"Mozilla/5.0 (Windows NT 10.0; Win64; x64) AppleWebKit/537.36 (KHTML, like Gecko) Chrome/94.0.4606.61 Safari/537.36",WebKit,Chrome,94.0.4606.61,Windows,10.0,fe3c1d035a65c549f7011c5446f73ede
25,1,1020.0999999046326,arrowleft,psychophysics,137,194119,0.0-3.0-0.66,"""",key,arrowleft,6.944431506849232,960,468.5,67,3,-1,25,15,25,35,true,"2021-10-04 19:34:53",99.228.49.174,"Mozilla/5.0 (Windows NT 10.0; Win64; x64) AppleWebKit/537.36 (KHTML, like Gecko) Chrome/94.0.4606.61 Safari/537.36",WebKit,Chrome,94.0.4606.61,Windows,10.0,fe3c1d035a65c549f7011c5446f73ede
25,1,null,null,psychophysics,138,195120,0.0-3.0-1.66,"""",key,null,6.94445454545455,960,468.5,"""","""","""","""","""","""","""","""","2021-10-04 19:34:53",99.228.49.174,"Mozilla/5.0 (Windows NT 10.0; Win64; x64) AppleWebKit/537.36 (KHTML, like Gecko) Chrome/94.0.4606.61 Safari/537.36",WebKit,Chrome,94.0.4606.61,Windows,10.0,fe3c1d035a65c549f7011c5446f73ede
25,1,911.0999999046326,arrowleft,psychophysics,139,196033,0.0-3.0-0.67,"""",key,arrowleft,6.94442748091604,960,468.5,68,3,-1,26,35,25,35,true,"2021-10-04 19:34:53",99.228.49.174,"Mozilla/5.0 (Windows NT 10.0; Win64; x64) AppleWebKit/537.36 (KHTML, like Gecko) Chrome/94.0.4606.61 Safari/537.36",WebKit,Chrome,94.0.4606.61,Windows,10.0,fe3c1d035a65c549f7011c5446f73ede
25,1,null,null,psychophysics,140,197035,0.0-3.0-1.67,"""",key,null,6.944440559440511,960,468.5,"""","""","""","""","""","""","""","""","2021-10-04 19:34:53",99.228.49.174,"Mozilla/5.0 (Windows NT 10.0; Win64; x64) AppleWebKit/537.36 (KHTML, like Gecko) Chrome/94.0.4606.61 Safari/537.36",WebKit,Chrome,94.0.4606.61,Windows,10.0,fe3c1d035a65c549f7011c5446f73ede
25,1,968.5999999046326,arrowleft,psychophysics,141,198006,0.0-3.0-0.68,"""",key,arrowleft,6.94443165467614,960,468.5,69,3,-1,30,35,25,35,true,"2021-10-04 19:34:53",99.228.49.174,"Mozilla/5.0 (Windows NT 10.0; Win64; x64) AppleWebKit/537.36 (KHTML, like Gecko) Chrome/94.0.4606.61 Safari/537.36",WebKit,Chrome,94.0.4606.61,Windows,10.0,fe3c1d035a65c549f7011c5446f73ede
25,1,null,null,psychophysics,142,199008,0.0-3.0-1.68,"""",key,null,6.944349650349557,960,468.5,"""","""","""","""","""","""","""","""","2021-10-04 19:34:53",99.228.49.174,"Mozilla/5.0 (Windows NT 10.0; Win64; x64) AppleWebKit/537.36 (KHTML, like Gecko) Chrome/94.0.4606.61 Safari/537.36",WebKit,Chrome,94.0.4606.61,Windows,10.0,fe3c1d035a65c549f7011c5446f73ede
25,1,913.0999999046326,arrowleft,psychophysics,143,199924,0.0-3.0-0.69,"""",key,arrowleft,6.944404580152704,960,468.5,70,3,1,24,35,25,35,false,"2021-10-04 19:34:53",99.228.49.174,"Mozilla/5.0 (Windows NT 10.0; Win64; x64) AppleWebKit/537.36 (KHTML, like Gecko) Chrome/94.0.4606.61 Safari/537.36",WebKit,Chrome,94.0.4606.61,Windows,10.0,fe3c1d035a65c549f7011c5446f73ede
25,1,null,null,psychophysics,144,200925,0.0-3.0-1.69,"""",key,null,6.9444825174824265,960,468.5,"""","""","""","""","""","""","""","""","2021-10-04 19:34:53",99.228.49.174,"Mozilla/5.0 (Windows NT 10.0; Win64; x64) AppleWebKit/537.36 (KHTML, like Gecko) Chrome/94.0.4606.61 Safari/537.36",WebKit,Chrome,94.0.4606.61,Windows,10.0,fe3c1d035a65c549f7011c5446f73ede
25,1,659.2999999523163,arrowright,psychophysics,145,201586,0.0-3.0-0.70,"""",key,arrowright,6.944368421052594,960,468.5,71,3,1,24,15,25,35,true,"2021-10-04 19:34:53",99.228.49.174,"Mozilla/5.0 (Windows NT 10.0; Win64; x64) AppleWebKit/537.36 (KHTML, like Gecko) Chrome/94.0.4606.61 Safari/537.36",WebKit,Chrome,94.0.4606.61,Windows,10.0,fe3c1d035a65c549f7011c5446f73ede
25,1,null,null,psychophysics,146,202587,0.0-3.0-1.70,"""",key,null,6.944412587412635,960,468.5,"""","""","""","""","""","""","""","""","2021-10-04 19:34:53",99.228.49.174,"Mozilla/5.0 (Windows NT 10.0; Win64; x64) AppleWebKit/537.36 (KHTML, like Gecko) Chrome/94.0.4606.61 Safari/537.36",WebKit,Chrome,94.0.4606.61,Windows,10.0,fe3c1d035a65c549f7011c5446f73ede
25,1,907.3999998569489,arrowleft,psychophysics,147,203496,0.0-3.0-0.71,"""",key,arrowleft,6.944484615384583,960,468.5,72,3,1,23,35,25,35,false,"2021-10-04 19:34:53",99.228.49.174,"Mozilla/5.0 (Windows NT 10.0; Win64; x64) AppleWebKit/537.36 (KHTML, like Gecko) Chrome/94.0.4606.61 Safari/537.36",WebKit,Chrome,94.0.4606.61,Windows,10.0,fe3c1d035a65c549f7011c5446f73ede
25,1,null,null,psychophysics,148,204497,0.0-3.0-1.71,"""",key,null,6.944531468531464,960,468.5,"""","""","""","""","""","""","""","""","2021-10-04 19:34:53",99.228.49.174,"Mozilla/5.0 (Windows NT 10.0; Win64; x64) AppleWebKit/537.36 (KHTML, like Gecko) Chrome/94.0.4606.61 Safari/537.36",WebKit,Chrome,94.0.4606.61,Windows,10.0,fe3c1d035a65c549f7011c5446f73ede
25,1,838,arrowleft,psychophysics,149,205337,0.0-3.0-0.72,"""",key,arrowleft,6.94436666666661,960,468.5,73,3,-1,24,35,25,35,true,"2021-10-04 19:34:53",99.228.49.174,"Mozilla/5.0 (Windows NT 10.0; Win64; x64) AppleWebKit/537.36 (KHTML, like Gecko) Chrome/94.0.4606.61 Safari/537.36",WebKit,Chrome,94.0.4606.61,Windows,10.0,fe3c1d035a65c549f7011c5446f73ede
25,1,null,null,psychophysics,150,206339,0.0-3.0-1.72,"""",key,null,6.944412587412635,960,468.5,"""","""","""","""","""","""","""","""","2021-10-04 19:34:53",99.228.49.174,"Mozilla/5.0 (Windows NT 10.0; Win64; x64) AppleWebKit/537.36 (KHTML, like Gecko) Chrome/94.0.4606.61 Safari/537.36",WebKit,Chrome,94.0.4606.61,Windows,10.0,fe3c1d035a65c549f7011c5446f73ede
25,1,1042.0999999046326,arrowright,psychophysics,151,207384,0.0-3.0-0.73,"""",key,arrowright,6.9444093959731825,960,468.5,74,3,1,26,35,25,35,true,"2021-10-04 19:34:53",99.228.49.174,"Mozilla/5.0 (Windows NT 10.0; Win64; x64) AppleWebKit/537.36 (KHTML, like Gecko) Chrome/94.0.4606.61 Safari/537.36",WebKit,Chrome,94.0.4606.61,Windows,10.0,fe3c1d035a65c549f7011c5446f73ede
25,1,null,null,psychophysics,152,208385,0.0-3.0-1.73,"""",key,null,6.944430555555503,960,468.5,"""","""","""","""","""","""","""","""","2021-10-04 19:34:53",99.228.49.174,"Mozilla/5.0 (Windows NT 10.0; Win64; x64) AppleWebKit/537.36 (KHTML, like Gecko) Chrome/94.0.4606.61 Safari/537.36",WebKit,Chrome,94.0.4606.61,Windows,10.0,fe3c1d035a65c549f7011c5446f73ede
25,1,710.0999999046326,arrowright,psychophysics,153,209097,0.0-3.0-0.74,"""",key,arrowright,6.944396039603871,960,468.5,75,3,1,27,15,25,35,true,"2021-10-04 19:34:53",99.228.49.174,"Mozilla/5.0 (Windows NT 10.0; Win64; x64) AppleWebKit/537.36 (KHTML, like Gecko) Chrome/94.0.4606.61 Safari/537.36",WebKit,Chrome,94.0.4606.61,Windows,10.0,fe3c1d035a65c549f7011c5446f73ede
25,1,null,null,psychophysics,154,210098,0.0-3.0-1.74,"""",key,null,6.944573426573379,960,468.5,"""","""","""","""","""","""","""","""","2021-10-04 19:34:53",99.228.49.174,"Mozilla/5.0 (Windows NT 10.0; Win64; x64) AppleWebKit/537.36 (KHTML, like Gecko) Chrome/94.0.4606.61 Safari/537.36",WebKit,Chrome,94.0.4606.61,Windows,10.0,fe3c1d035a65c549f7011c5446f73ede
25,1,1115.2999999523163,arrowleft,psychophysics,155,211215,0.0-3.0-0.75,"""",key,arrowleft,6.944468750000124,960,468.5,76,3,1,20,15,25,35,false,"2021-10-04 19:34:53",99.228.49.174,"Mozilla/5.0 (Windows NT 10.0; Win64; x64) AppleWebKit/537.36 (KHTML, like Gecko) Chrome/94.0.4606.61 Safari/537.36",WebKit,Chrome,94.0.4606.61,Windows,10.0,fe3c1d035a65c549f7011c5446f73ede
25,1,null,null,psychophysics,156,212217,0.0-3.0-1.75,"""",key,null,6.944412587412635,960,468.5,"""","""","""","""","""","""","""","""","2021-10-04 19:34:53",99.228.49.174,"Mozilla/5.0 (Windows NT 10.0; Win64; x64) AppleWebKit/537.36 (KHTML, like Gecko) Chrome/94.0.4606.61 Safari/537.36",WebKit,Chrome,94.0.4606.61,Windows,10.0,fe3c1d035a65c549f7011c5446f73ede
25,1,969,arrowright,psychophysics,157,213188,0.0-3.0-0.76,"""",key,arrowright,6.944395683453294,960,468.5,77,3,1,27,35,25,35,true,"2021-10-04 19:34:53",99.228.49.174,"Mozilla/5.0 (Windows NT 10.0; Win64; x64) AppleWebKit/537.36 (KHTML, like Gecko) Chrome/94.0.4606.61 Safari/537.36",WebKit,Chrome,94.0.4606.61,Windows,10.0,fe3c1d035a65c549f7011c5446f73ede
25,1,null,null,psychophysics,158,214189,0.0-3.0-1.76,"""",key,null,6.94446853146859,960,468.5,"""","""","""","""","""","""","""","""","2021-10-04 19:34:53",99.228.49.174,"Mozilla/5.0 (Windows NT 10.0; Win64; x64) AppleWebKit/537.36 (KHTML, like Gecko) Chrome/94.0.4606.61 Safari/537.36",WebKit,Chrome,94.0.4606.61,Windows,10.0,fe3c1d035a65c549f7011c5446f73ede
25,1,1362.2999999523163,arrowleft,psychophysics,159,215554,0.0-3.0-0.77,"""",key,arrowleft,6.944403061224504,960,468.5,78,3,-1,26,35,25,35,true,"2021-10-04 19:34:53",99.228.49.174,"Mozilla/5.0 (Windows NT 10.0; Win64; x64) AppleWebKit/537.36 (KHTML, like Gecko) Chrome/94.0.4606.61 Safari/537.36",WebKit,Chrome,94.0.4606.61,Windows,10.0,fe3c1d035a65c549f7011c5446f73ede
25,1,null,null,psychophysics,160,216555,0.0-3.0-1.77,"""",key,null,6.944419580419757,960,468.5,"""","""","""","""","""","""","""","""","2021-10-04 19:34:53",99.228.49.174,"Mozilla/5.0 (Windows NT 10.0; Win64; x64) AppleWebKit/537.36 (KHTML, like Gecko) Chrome/94.0.4606.61 Safari/537.36",WebKit,Chrome,94.0.4606.61,Windows,10.0,fe3c1d035a65c549f7011c5446f73ede
25,1,691.1999998092651,arrowright,psychophysics,161,217248,0.0-3.0-0.78,"""",key,arrowright,6.9445454545455485,960,468.5,79,3,1,30,35,25,35,true,"2021-10-04 19:34:53",99.228.49.174,"Mozilla/5.0 (Windows NT 10.0; Win64; x64) AppleWebKit/537.36 (KHTML, like Gecko) Chrome/94.0.4606.61 Safari/537.36",WebKit,Chrome,94.0.4606.61,Windows,10.0,fe3c1d035a65c549f7011c5446f73ede
25,1,null,null,psychophysics,162,218250,0.0-3.0-1.78,"""",key,null,6.9444475524474285,960,468.5,"""","""","""","""","""","""","""","""","2021-10-04 19:34:53",99.228.49.174,"Mozilla/5.0 (Windows NT 10.0; Win64; x64) AppleWebKit/537.36 (KHTML, like Gecko) Chrome/94.0.4606.61 Safari/537.36",WebKit,Chrome,94.0.4606.61,Windows,10.0,fe3c1d035a65c549f7011c5446f73ede
25,1,830.0999999046326,arrowright,psychophysics,163,219082,0.0-3.0-0.79,"""",key,arrowright,6.944487394957985,960,468.5,80,3,-1,20,35,25,35,false,"2021-10-04 19:34:53",99.228.49.174,"Mozilla/5.0 (Windows NT 10.0; Win64; x64) AppleWebKit/537.36 (KHTML, like Gecko) Chrome/94.0.4606.61 Safari/537.36",WebKit,Chrome,94.0.4606.61,Windows,10.0,fe3c1d035a65c549f7011c5446f73ede
25,1,null,null,psychophysics,164,220083,0.0-3.0-1.79,"""",key,null,6.944447552447632,960,468.5,"""","""","""","""","""","""","""","""","2021-10-04 19:34:53",99.228.49.174,"Mozilla/5.0 (Windows NT 10.0; Win64; x64) AppleWebKit/537.36 (KHTML, like Gecko) Chrome/94.0.4606.61 Safari/537.36",WebKit,Chrome,94.0.4606.61,Windows,10.0,fe3c1d035a65c549f7011c5446f73ede
25,1,880.6999998092651,arrowleft,psychophysics,165,220966,0.0-3.0-0.80,"""",key,arrowleft,6.944499999999867,960,468.5,81,3,-1,27,35,25,35,true,"2021-10-04 19:34:53",99.228.49.174,"Mozilla/5.0 (Windows NT 10.0; Win64; x64) AppleWebKit/537.36 (KHTML, like Gecko) Chrome/94.0.4606.61 Safari/537.36",WebKit,Chrome,94.0.4606.61,Windows,10.0,fe3c1d035a65c549f7011c5446f73ede
25,1,null,null,psychophysics,166,221967,0.0-3.0-1.80,"""",key,null,6.944426573426471,960,468.5,"""","""","""","""","""","""","""","""","2021-10-04 19:34:53",99.228.49.174,"Mozilla/5.0 (Windows NT 10.0; Win64; x64) AppleWebKit/537.36 (KHTML, like Gecko) Chrome/94.0.4606.61 Safari/537.36",WebKit,Chrome,94.0.4606.61,Windows,10.0,fe3c1d035a65c549f7011c5446f73ede
25,1,1060.1999998092651,arrowleft,psychophysics,167,223029,0.0-3.0-0.81,"""",key,arrowleft,6.944427631578851,960,468.5,82,3,-1,27,15,25,35,true,"2021-10-04 19:34:53",99.228.49.174,"Mozilla/5.0 (Windows NT 10.0; Win64; x64) AppleWebKit/537.36 (KHTML, like Gecko) Chrome/94.0.4606.61 Safari/537.36",WebKit,Chrome,94.0.4606.61,Windows,10.0,fe3c1d035a65c549f7011c5446f73ede
25,1,null,null,psychophysics,168,224032,0.0-3.0-1.81,"""",key,null,6.944423611111132,960,468.5,"""","""","""","""","""","""","""","""","2021-10-04 19:34:53",99.228.49.174,"Mozilla/5.0 (Windows NT 10.0; Win64; x64) AppleWebKit/537.36 (KHTML, like Gecko) Chrome/94.0.4606.61 Safari/537.36",WebKit,Chrome,94.0.4606.61,Windows,10.0,fe3c1d035a65c549f7011c5446f73ede
25,1,955.0999999046326,arrowleft,psychophysics,169,224989,0.0-3.0-0.82,"""",key,arrowleft,6.944386861314037,960,468.5,83,3,1,20,15,25,35,false,"2021-10-04 19:34:53",99.228.49.174,"Mozilla/5.0 (Windows NT 10.0; Win64; x64) AppleWebKit/537.36 (KHTML, like Gecko) Chrome/94.0.4606.61 Safari/537.36",WebKit,Chrome,94.0.4606.61,Windows,10.0,fe3c1d035a65c549f7011c5446f73ede
25,1,null,null,psychophysics,170,225990,0.0-3.0-1.82,"""",key,null,6.944489510489548,960,468.5,"""","""","""","""","""","""","""","""","2021-10-04 19:34:53",99.228.49.174,"Mozilla/5.0 (Windows NT 10.0; Win64; x64) AppleWebKit/537.36 (KHTML, like Gecko) Chrome/94.0.4606.61 Safari/537.36",WebKit,Chrome,94.0.4606.61,Windows,10.0,fe3c1d035a65c549f7011c5446f73ede
25,1,1052.2999999523163,arrowleft,psychophysics,171,227045,0.0-3.0-0.83,"""",key,arrowleft,6.944443708609301,960,468.5,84,4,1,20,15,25,35,false,"2021-10-04 19:34:53",99.228.49.174,"Mozilla/5.0 (Windows NT 10.0; Win64; x64) AppleWebKit/537.36 (KHTML, like Gecko) Chrome/94.0.4606.61 Safari/537.36",WebKit,Chrome,94.0.4606.61,Windows,10.0,fe3c1d035a65c549f7011c5446f73ede
25,1,null,null,psychophysics,172,228045,0.0-3.0-1.83,"""",key,null,6.944440559440511,960,468.5,"""","""","""","""","""","""","""","""","2021-10-04 19:34:53",99.228.49.174,"Mozilla/5.0 (Windows NT 10.0; Win64; x64) AppleWebKit/537.36 (KHTML, like Gecko) Chrome/94.0.4606.61 Safari/537.36",WebKit,Chrome,94.0.4606.61,Windows,10.0,fe3c1d035a65c549f7011c5446f73ede
25,1,1415.9000000953674," ",html-keyboard-response,173,229461,0.0-3.0-2.83-0.83,"<div style=""color: white; text-align: center; vertical-align: top; display: inline-block; width: 800px; margin: auto""><p>You have completed 30% of the trials. You are on block 4 of 10. <br>Good job! Take a break if you need to.</p><p>Press any key to continue the experiment.</p></div>","""","""","""","""","""","""","""","""","""","""","""","""","""","2021-10-04 19:34:53",99.228.49.174,"Mozilla/5.0 (Windows NT 10.0; Win64; x64) AppleWebKit/537.36 (KHTML, like Gecko) Chrome/94.0.4606.61 Safari/537.36",WebKit,Chrome,94.0.4606.61,Windows,10.0,fe3c1d035a65c549f7011c5446f73ede
25,1,838.5,arrowright,psychophysics,174,231303,0.0-3.0-0.84,"""",key,arrowright,6.945016528925693,960,468.5,85,4,-1,20,35,25,35,false,"2021-10-04 19:34:53",99.228.49.174,"Mozilla/5.0 (Windows NT 10.0; Win64; x64) AppleWebKit/537.36 (KHTML, like Gecko) Chrome/94.0.4606.61 Safari/537.36",WebKit,Chrome,94.0.4606.61,Windows,10.0,fe3c1d035a65c549f7011c5446f73ede
25,1,null,null,psychophysics,175,232305,0.0-3.0-1.84,"""",key,null,6.9443986013985946,960,468.5,"""","""","""","""","""","""","""","""","2021-10-04 19:34:53",99.228.49.174,"Mozilla/5.0 (Windows NT 10.0; Win64; x64) AppleWebKit/537.36 (KHTML, like Gecko) Chrome/94.0.4606.61 Safari/537.36",WebKit,Chrome,94.0.4606.61,Windows,10.0,fe3c1d035a65c549f7011c5446f73ede
25,1,1286.0999999046326,arrowright,psychophysics,176,233593,0.0-3.0-0.85,"""",key,arrowright,6.944443243243134,960,468.5,86,4,1,23,35,25,35,true,"2021-10-04 19:34:53",99.228.49.174,"Mozilla/5.0 (Windows NT 10.0; Win64; x64) AppleWebKit/537.36 (KHTML, like Gecko) Chrome/94.0.4606.61 Safari/537.36",WebKit,Chrome,94.0.4606.61,Windows,10.0,fe3c1d035a65c549f7011c5446f73ede
25,1,null,null,psychophysics,177,234594,0.0-3.0-1.85,"""",key,null,6.9444335664335926,960,468.5,"""","""","""","""","""","""","""","""","2021-10-04 19:34:53",99.228.49.174,"Mozilla/5.0 (Windows NT 10.0; Win64; x64) AppleWebKit/537.36 (KHTML, like Gecko) Chrome/94.0.4606.61 Safari/537.36",WebKit,Chrome,94.0.4606.61,Windows,10.0,fe3c1d035a65c549f7011c5446f73ede
25,1,1003,arrowright,psychophysics,178,235599,0.0-3.0-0.86,"""",key,arrowright,6.944370629370515,960,468.5,87,4,-1,23,15,25,35,false,"2021-10-04 19:34:53",99.228.49.174,"Mozilla/5.0 (Windows NT 10.0; Win64; x64) AppleWebKit/537.36 (KHTML, like Gecko) Chrome/94.0.4606.61 Safari/537.36",WebKit,Chrome,94.0.4606.61,Windows,10.0,fe3c1d035a65c549f7011c5446f73ede
25,1,null,null,psychophysics,179,236602,0.0-3.0-1.86,"""",key,null,6.944437500000074,960,468.5,"""","""","""","""","""","""","""","""","2021-10-04 19:34:53",99.228.49.174,"Mozilla/5.0 (Windows NT 10.0; Win64; x64) AppleWebKit/537.36 (KHTML, like Gecko) Chrome/94.0.4606.61 Safari/537.36",WebKit,Chrome,94.0.4606.61,Windows,10.0,fe3c1d035a65c549f7011c5446f73ede
25,1,835.5,arrowright,psychophysics,180,237440,0.0-3.0-0.87,"""",key,arrowright,6.944453781512722,960,468.5,88,4,1,27,15,25,35,true,"2021-10-04 19:34:53",99.228.49.174,"Mozilla/5.0 (Windows NT 10.0; Win64; x64) AppleWebKit/537.36 (KHTML, like Gecko) Chrome/94.0.4606.61 Safari/537.36",WebKit,Chrome,94.0.4606.61,Windows,10.0,fe3c1d035a65c549f7011c5446f73ede
25,1,null,null,psychophysics,181,238440,0.0-3.0-1.87,"""",key,null,6.944243055555489,960,468.5,"""","""","""","""","""","""","""","""","2021-10-04 19:34:53",99.228.49.174,"Mozilla/5.0 (Windows NT 10.0; Win64; x64) AppleWebKit/537.36 (KHTML, like Gecko) Chrome/94.0.4606.61 Safari/537.36",WebKit,Chrome,94.0.4606.61,Windows,10.0,fe3c1d035a65c549f7011c5446f73ede
25,1,931.1999998092651,arrowleft,psychophysics,182,239373,0.0-3.0-0.88,"""",key,arrowleft,6.944421052631635,960,468.5,89,4,-1,27,35,25,35,true,"2021-10-04 19:34:53",99.228.49.174,"Mozilla/5.0 (Windows NT 10.0; Win64; x64) AppleWebKit/537.36 (KHTML, like Gecko) Chrome/94.0.4606.61 Safari/537.36",WebKit,Chrome,94.0.4606.61,Windows,10.0,fe3c1d035a65c549f7011c5446f73ede
25,1,null,null,psychophysics,183,240375,0.0-3.0-1.88,"""",key,null,6.9444335664335926,960,468.5,"""","""","""","""","""","""","""","""","2021-10-04 19:34:53",99.228.49.174,"Mozilla/5.0 (Windows NT 10.0; Win64; x64) AppleWebKit/537.36 (KHTML, like Gecko) Chrome/94.0.4606.61 Safari/537.36",WebKit,Chrome,94.0.4606.61,Windows,10.0,fe3c1d035a65c549f7011c5446f73ede
25,1,764.8999998569489,arrowleft,psychophysics,184,241142,0.0-3.0-0.89,"""",key,arrowleft,6.944472727272924,960,468.5,90,4,-1,27,15,25,35,true,"2021-10-04 19:34:53",99.228.49.174,"Mozilla/5.0 (Windows NT 10.0; Win64; x64) AppleWebKit/537.36 (KHTML, like Gecko) Chrome/94.0.4606.61 Safari/537.36",WebKit,Chrome,94.0.4606.61,Windows,10.0,fe3c1d035a65c549f7011c5446f73ede
25,1,null,null,psychophysics,185,242144,0.0-3.0-1.89,"""",key,null,6.99369718309846,960,468.5,"""","""","""","""","""","""","""","""","2021-10-04 19:34:53",99.228.49.174,"Mozilla/5.0 (Windows NT 10.0; Win64; x64) AppleWebKit/537.36 (KHTML, like Gecko) Chrome/94.0.4606.61 Safari/537.36",WebKit,Chrome,94.0.4606.61,Windows,10.0,fe3c1d035a65c549f7011c5446f73ede
25,1,891.0999999046326,arrowleft,psychophysics,186,243038,0.0-3.0-0.90,"""",key,arrowleft,6.94401562500002,960,468.5,91,4,-1,24,35,25,35,true,"2021-10-04 19:34:53",99.228.49.174,"Mozilla/5.0 (Windows NT 10.0; Win64; x64) AppleWebKit/537.36 (KHTML, like Gecko) Chrome/94.0.4606.61 Safari/537.36",WebKit,Chrome,94.0.4606.61,Windows,10.0,fe3c1d035a65c549f7011c5446f73ede
25,1,null,null,psychophysics,187,244038,0.0-3.0-1.90,"""",key,null,6.94445454545455,960,468.5,"""","""","""","""","""","""","""","""","2021-10-04 19:34:53",99.228.49.174,"Mozilla/5.0 (Windows NT 10.0; Win64; x64) AppleWebKit/537.36 (KHTML, like Gecko) Chrome/94.0.4606.61 Safari/537.36",WebKit,Chrome,94.0.4606.61,Windows,10.0,fe3c1d035a65c549f7011c5446f73ede
25,1,867.0999999046326,arrowleft,psychophysics,188,244907,0.0-3.0-0.91,"""",key,arrowleft,6.944435483870855,960,468.5,92,4,-1,30,35,25,35,true,"2021-10-04 19:34:53",99.228.49.174,"Mozilla/5.0 (Windows NT 10.0; Win64; x64) AppleWebKit/537.36 (KHTML, like Gecko) Chrome/94.0.4606.61 Safari/537.36",WebKit,Chrome,94.0.4606.61,Windows,10.0,fe3c1d035a65c549f7011c5446f73ede
25,1,null,null,psychophysics,189,245908,0.0-3.0-1.91,"""",key,null,6.9444335664335926,960,468.5,"""","""","""","""","""","""","""","""","2021-10-04 19:34:53",99.228.49.174,"Mozilla/5.0 (Windows NT 10.0; Win64; x64) AppleWebKit/537.36 (KHTML, like Gecko) Chrome/94.0.4606.61 Safari/537.36",WebKit,Chrome,94.0.4606.61,Windows,10.0,fe3c1d035a65c549f7011c5446f73ede
25,1,848.1999998092651,arrowright,psychophysics,190,246758,0.0-3.0-0.92,"""",key,arrowright,6.944371900826448,960,468.5,93,4,-1,23,35,25,35,false,"2021-10-04 19:34:53",99.228.49.174,"Mozilla/5.0 (Windows NT 10.0; Win64; x64) AppleWebKit/537.36 (KHTML, like Gecko) Chrome/94.0.4606.61 Safari/537.36",WebKit,Chrome,94.0.4606.61,Windows,10.0,fe3c1d035a65c549f7011c5446f73ede
25,1,null,null,psychophysics,191,247759,0.0-3.0-1.92,"""",key,null,6.944447552447632,960,468.5,"""","""","""","""","""","""","""","""","2021-10-04 19:34:53",99.228.49.174,"Mozilla/5.0 (Windows NT 10.0; Win64; x64) AppleWebKit/537.36 (KHTML, like Gecko) Chrome/94.0.4606.61 Safari/537.36",WebKit,Chrome,94.0.4606.61,Windows,10.0,fe3c1d035a65c549f7011c5446f73ede
25,1,748.2000000476837,arrowright,psychophysics,192,248511,0.0-3.0-0.93,"""",key,arrowright,6.944444444444445,960,468.5,94,4,1,27,35,25,35,true,"2021-10-04 19:34:53",99.228.49.174,"Mozilla/5.0 (Windows NT 10.0; Win64; x64) AppleWebKit/537.36 (KHTML, like Gecko) Chrome/94.0.4606.61 Safari/537.36",WebKit,Chrome,94.0.4606.61,Windows,10.0,fe3c1d035a65c549f7011c5446f73ede
25,1,null,null,psychophysics,193,249511,0.0-3.0-1.93,"""",key,null,6.944412587412635,960,468.5,"""","""","""","""","""","""","""","""","2021-10-04 19:34:53",99.228.49.174,"Mozilla/5.0 (Windows NT 10.0; Win64; x64) AppleWebKit/537.36 (KHTML, like Gecko) Chrome/94.0.4606.61 Safari/537.36",WebKit,Chrome,94.0.4606.61,Windows,10.0,fe3c1d035a65c549f7011c5446f73ede
25,1,819,arrowright,psychophysics,194,250332,0.0-3.0-0.94,"""",key,arrowright,6.944461538461604,960,468.5,95,4,1,25,35,25,35,true,"2021-10-04 19:34:53",99.228.49.174,"Mozilla/5.0 (Windows NT 10.0; Win64; x64) AppleWebKit/537.36 (KHTML, like Gecko) Chrome/94.0.4606.61 Safari/537.36",WebKit,Chrome,94.0.4606.61,Windows,10.0,fe3c1d035a65c549f7011c5446f73ede
25,1,null,null,psychophysics,195,251333,0.0-3.0-1.94,"""",key,null,6.9444825174824265,960,468.5,"""","""","""","""","""","""","""","""","2021-10-04 19:34:53",99.228.49.174,"Mozilla/5.0 (Windows NT 10.0; Win64; x64) AppleWebKit/537.36 (KHTML, like Gecko) Chrome/94.0.4606.61 Safari/537.36",WebKit,Chrome,94.0.4606.61,Windows,10.0,fe3c1d035a65c549f7011c5446f73ede
25,1,860.0999999046326,arrowleft,psychophysics,196,252195,0.0-3.0-0.95,"""",key,arrowleft,6.9444552845528875,960,468.5,96,4,-1,27,15,25,35,true,"2021-10-04 19:34:53",99.228.49.174,"Mozilla/5.0 (Windows NT 10.0; Win64; x64) AppleWebKit/537.36 (KHTML, like Gecko) Chrome/94.0.4606.61 Safari/537.36",WebKit,Chrome,94.0.4606.61,Windows,10.0,fe3c1d035a65c549f7011c5446f73ede
25,1,null,null,psychophysics,197,253197,0.0-3.0-1.95,"""",key,null,6.944475524475508,960,468.5,"""","""","""","""","""","""","""","""","2021-10-04 19:34:53",99.228.49.174,"Mozilla/5.0 (Windows NT 10.0; Win64; x64) AppleWebKit/537.36 (KHTML, like Gecko) Chrome/94.0.4606.61 Safari/537.36",WebKit,Chrome,94.0.4606.61,Windows,10.0,fe3c1d035a65c549f7011c5446f73ede
25,1,849.1999998092651,arrowright,psychophysics,198,254048,0.0-3.0-0.96,"""",key,arrowright,6.944467213114802,960,468.5,97,4,-1,24,35,25,35,false,"2021-10-04 19:34:53",99.228.49.174,"Mozilla/5.0 (Windows NT 10.0; Win64; x64) AppleWebKit/537.36 (KHTML, like Gecko) Chrome/94.0.4606.61 Safari/537.36",WebKit,Chrome,94.0.4606.61,Windows,10.0,fe3c1d035a65c549f7011c5446f73ede
25,1,null,null,psychophysics,199,255051,0.0-3.0-1.96,"""",key,null,6.944475524475508,960,468.5,"""","""","""","""","""","""","""","""","2021-10-04 19:34:53",99.228.49.174,"Mozilla/5.0 (Windows NT 10.0; Win64; x64) AppleWebKit/537.36 (KHTML, like Gecko) Chrome/94.0.4606.61 Safari/537.36",WebKit,Chrome,94.0.4606.61,Windows,10.0,fe3c1d035a65c549f7011c5446f73ede
25,1,798.0999999046326,arrowleft,psychophysics,200,255851,0.0-3.0-0.97,"""",key,arrowleft,6.944443478260908,960,468.5,98,4,-1,27,35,25,35,true,"2021-10-04 19:34:53",99.228.49.174,"Mozilla/5.0 (Windows NT 10.0; Win64; x64) AppleWebKit/537.36 (KHTML, like Gecko) Chrome/94.0.4606.61 Safari/537.36",WebKit,Chrome,94.0.4606.61,Windows,10.0,fe3c1d035a65c549f7011c5446f73ede
25,1,null,null,psychophysics,201,256852,0.0-3.0-1.97,"""",key,null,6.944419580419552,960,468.5,"""","""","""","""","""","""","""","""","2021-10-04 19:34:53",99.228.49.174,"Mozilla/5.0 (Windows NT 10.0; Win64; x64) AppleWebKit/537.36 (KHTML, like Gecko) Chrome/94.0.4606.61 Safari/537.36",WebKit,Chrome,94.0.4606.61,Windows,10.0,fe3c1d035a65c549f7011c5446f73ede
25,1,742.0999999046326,arrowright,psychophysics,202,257596,0.0-3.0-0.98,"""",key,arrowright,6.944452830188895,960,468.5,99,4,-1,20,35,25,35,false,"2021-10-04 19:34:53",99.228.49.174,"Mozilla/5.0 (Windows NT 10.0; Win64; x64) AppleWebKit/537.36 (KHTML, like Gecko) Chrome/94.0.4606.61 Safari/537.36",WebKit,Chrome,94.0.4606.61,Windows,10.0,fe3c1d035a65c549f7011c5446f73ede
25,1,null,null,psychophysics,203,258597,0.0-3.0-1.98,"""",key,null,6.944419580419552,960,468.5,"""","""","""","""","""","""","""","""","2021-10-04 19:34:53",99.228.49.174,"Mozilla/5.0 (Windows NT 10.0; Win64; x64) AppleWebKit/537.36 (KHTML, like Gecko) Chrome/94.0.4606.61 Safari/537.36",WebKit,Chrome,94.0.4606.61,Windows,10.0,fe3c1d035a65c549f7011c5446f73ede
25,1,660.5,arrowleft,psychophysics,204,259260,0.0-3.0-0.99,"""",key,arrowleft,6.944463157894605,960,468.5,100,4,-1,30,35,25,35,true,"2021-10-04 19:34:53",99.228.49.174,"Mozilla/5.0 (Windows NT 10.0; Win64; x64) AppleWebKit/537.36 (KHTML, like Gecko) Chrome/94.0.4606.61 Safari/537.36",WebKit,Chrome,94.0.4606.61,Windows,10.0,fe3c1d035a65c549f7011c5446f73ede
25,1,null,null,psychophysics,205,260260,0.0-3.0-1.99,"""",key,null,6.944475524475508,960,468.5,"""","""","""","""","""","""","""","""","2021-10-04 19:34:53",99.228.49.174,"Mozilla/5.0 (Windows NT 10.0; Win64; x64) AppleWebKit/537.36 (KHTML, like Gecko) Chrome/94.0.4606.61 Safari/537.36",WebKit,Chrome,94.0.4606.61,Windows,10.0,fe3c1d035a65c549f7011c5446f73ede
25,1,927.0999999046326,arrowright,psychophysics,206,261191,0.0-3.0-0.100,"""",key,arrowright,6.944421052631854,960,468.5,101,4,-1,24,35,25,35,false,"2021-10-04 19:34:53",99.228.49.174,"Mozilla/5.0 (Windows NT 10.0; Win64; x64) AppleWebKit/537.36 (KHTML, like Gecko) Chrome/94.0.4606.61 Safari/537.36",WebKit,Chrome,94.0.4606.61,Windows,10.0,fe3c1d035a65c549f7011c5446f73ede
25,1,null,null,psychophysics,207,262192,0.0-3.0-1.100,"""",key,null,6.9444825174824265,960,468.5,"""","""","""","""","""","""","""","""","2021-10-04 19:34:53",99.228.49.174,"Mozilla/5.0 (Windows NT 10.0; Win64; x64) AppleWebKit/537.36 (KHTML, like Gecko) Chrome/94.0.4606.61 Safari/537.36",WebKit,Chrome,94.0.4606.61,Windows,10.0,fe3c1d035a65c549f7011c5446f73ede
25,1,666.1999998092651,arrowright,psychophysics,208,262860,0.0-3.0-0.101,"""",key,arrowright,6.944410526316221,960,468.5,102,4,1,26,15,25,35,true,"2021-10-04 19:34:53",99.228.49.174,"Mozilla/5.0 (Windows NT 10.0; Win64; x64) AppleWebKit/537.36 (KHTML, like Gecko) Chrome/94.0.4606.61 Safari/537.36",WebKit,Chrome,94.0.4606.61,Windows,10.0,fe3c1d035a65c549f7011c5446f73ede
25,1,null,null,psychophysics,209,263861,0.0-3.0-1.101,"""",key,null,6.944440559440918,960,468.5,"""","""","""","""","""","""","""","""","2021-10-04 19:34:53",99.228.49.174,"Mozilla/5.0 (Windows NT 10.0; Win64; x64) AppleWebKit/537.36 (KHTML, like Gecko) Chrome/94.0.4606.61 Safari/537.36",WebKit,Chrome,94.0.4606.61,Windows,10.0,fe3c1d035a65c549f7011c5446f73ede
25,1,1000.8999998569489,arrowright,psychophysics,210,264864,0.0-3.0-0.102,"""",key,arrowright,6.944472222222329,960,468.5,103,4,-1,27,35,25,35,false,"2021-10-04 19:34:53",99.228.49.174,"Mozilla/5.0 (Windows NT 10.0; Win64; x64) AppleWebKit/537.36 (KHTML, like Gecko) Chrome/94.0.4606.61 Safari/537.36",WebKit,Chrome,94.0.4606.61,Windows,10.0,fe3c1d035a65c549f7011c5446f73ede
25,1,null,null,psychophysics,211,265865,0.0-3.0-1.102,"""",key,null,6.944461538461672,960,468.5,"""","""","""","""","""","""","""","""","2021-10-04 19:34:53",99.228.49.174,"Mozilla/5.0 (Windows NT 10.0; Win64; x64) AppleWebKit/537.36 (KHTML, like Gecko) Chrome/94.0.4606.61 Safari/537.36",WebKit,Chrome,94.0.4606.61,Windows,10.0,fe3c1d035a65c549f7011c5446f73ede
25,1,848.0999999046326,arrowleft,psychophysics,212,266715,0.0-3.0-0.103,"""",key,arrowleft,6.9444628099171055,960,468.5,104,4,1,23,35,25,35,false,"2021-10-04 19:34:53",99.228.49.174,"Mozilla/5.0 (Windows NT 10.0; Win64; x64) AppleWebKit/537.36 (KHTML, like Gecko) Chrome/94.0.4606.61 Safari/537.36",WebKit,Chrome,94.0.4606.61,Windows,10.0,fe3c1d035a65c549f7011c5446f73ede
25,1,null,null,psychophysics,213,267718,0.0-3.0-1.103,"""",key,null,6.944440559440918,960,468.5,"""","""","""","""","""","""","""","""","2021-10-04 19:34:53",99.228.49.174,"Mozilla/5.0 (Windows NT 10.0; Win64; x64) AppleWebKit/537.36 (KHTML, like Gecko) Chrome/94.0.4606.61 Safari/537.36",WebKit,Chrome,94.0.4606.61,Windows,10.0,fe3c1d035a65c549f7011c5446f73ede
25,1,765.7999999523163,arrowright,psychophysics,214,268485,0.0-3.0-0.104,"""",key,arrowright,6.944436363636156,960,468.5,105,4,1,24,15,25,35,true,"2021-10-04 19:34:53",99.228.49.174,"Mozilla/5.0 (Windows NT 10.0; Win64; x64) AppleWebKit/537.36 (KHTML, like Gecko) Chrome/94.0.4606.61 Safari/537.36",WebKit,Chrome,94.0.4606.61,Windows,10.0,fe3c1d035a65c549f7011c5446f73ede
25,1,null,null,psychophysics,215,269486,0.0-3.0-1.104,"""",key,null,6.944510489510506,960,468.5,"""","""","""","""","""","""","""","""","2021-10-04 19:34:53",99.228.49.174,"Mozilla/5.0 (Windows NT 10.0; Win64; x64) AppleWebKit/537.36 (KHTML, like Gecko) Chrome/94.0.4606.61 Safari/537.36",WebKit,Chrome,94.0.4606.61,Windows,10.0,fe3c1d035a65c549f7011c5446f73ede
25,1,784.2999999523163,arrowright,psychophysics,216,270273,0.0-3.0-0.105,"""",key,arrowright,6.944410714286017,960,468.5,106,4,1,23,15,25,35,true,"2021-10-04 19:34:53",99.228.49.174,"Mozilla/5.0 (Windows NT 10.0; Win64; x64) AppleWebKit/537.36 (KHTML, like Gecko) Chrome/94.0.4606.61 Safari/537.36",WebKit,Chrome,94.0.4606.61,Windows,10.0,fe3c1d035a65c549f7011c5446f73ede
25,1,null,null,psychophysics,217,271273,0.0-3.0-1.105,"""",key,null,6.944384615384759,960,468.5,"""","""","""","""","""","""","""","""","2021-10-04 19:34:53",99.228.49.174,"Mozilla/5.0 (Windows NT 10.0; Win64; x64) AppleWebKit/537.36 (KHTML, like Gecko) Chrome/94.0.4606.61 Safari/537.36",WebKit,Chrome,94.0.4606.61,Windows,10.0,fe3c1d035a65c549f7011c5446f73ede
25,1,646.0999999046326,arrowright,psychophysics,218,271921,0.0-3.0-0.106,"""",key,arrowright,6.944247311827982,960,468.5,107,4,1,27,15,25,35,true,"2021-10-04 19:34:53",99.228.49.174,"Mozilla/5.0 (Windows NT 10.0; Win64; x64) AppleWebKit/537.36 (KHTML, like Gecko) Chrome/94.0.4606.61 Safari/537.36",WebKit,Chrome,94.0.4606.61,Windows,10.0,fe3c1d035a65c549f7011c5446f73ede
25,1,null,null,psychophysics,219,272923,0.0-3.0-1.106,"""",key,null,6.944489510489344,960,468.5,"""","""","""","""","""","""","""","""","2021-10-04 19:34:53",99.228.49.174,"Mozilla/5.0 (Windows NT 10.0; Win64; x64) AppleWebKit/537.36 (KHTML, like Gecko) Chrome/94.0.4606.61 Safari/537.36",WebKit,Chrome,94.0.4606.61,Windows,10.0,fe3c1d035a65c549f7011c5446f73ede
25,1,803.2000000476837,arrowleft,psychophysics,220,273729,0.0-3.0-0.107,"""",key,arrowleft,6.9444173913044125,960,468.5,108,4,1,20,15,25,35,false,"2021-10-04 19:34:53",99.228.49.174,"Mozilla/5.0 (Windows NT 10.0; Win64; x64) AppleWebKit/537.36 (KHTML, like Gecko) Chrome/94.0.4606.61 Safari/537.36",WebKit,Chrome,94.0.4606.61,Windows,10.0,fe3c1d035a65c549f7011c5446f73ede
25,1,null,null,psychophysics,221,274730,0.0-3.0-1.107,"""",key,null,6.944489510489344,960,468.5,"""","""","""","""","""","""","""","""","2021-10-04 19:34:53",99.228.49.174,"Mozilla/5.0 (Windows NT 10.0; Win64; x64) AppleWebKit/537.36 (KHTML, like Gecko) Chrome/94.0.4606.61 Safari/537.36",WebKit,Chrome,94.0.4606.61,Windows,10.0,fe3c1d035a65c549f7011c5446f73ede
25,1,715.1999998092651,arrowright,psychophysics,222,275447,0.0-3.0-0.108,"""",key,arrowright,6.944417475727816,960,468.5,109,4,1,24,15,25,35,true,"2021-10-04 19:34:53",99.228.49.174,"Mozilla/5.0 (Windows NT 10.0; Win64; x64) AppleWebKit/537.36 (KHTML, like Gecko) Chrome/94.0.4606.61 Safari/537.36",WebKit,Chrome,94.0.4606.61,Windows,10.0,fe3c1d035a65c549f7011c5446f73ede
25,1,null,null,psychophysics,223,276448,0.0-3.0-1.108,"""",key,null,6.94446853146859,960,468.5,"""","""","""","""","""","""","""","""","2021-10-04 19:34:53",99.228.49.174,"Mozilla/5.0 (Windows NT 10.0; Win64; x64) AppleWebKit/537.36 (KHTML, like Gecko) Chrome/94.0.4606.61 Safari/537.36",WebKit,Chrome,94.0.4606.61,Windows,10.0,fe3c1d035a65c549f7011c5446f73ede
25,1,1043.0999999046326,arrowleft,psychophysics,224,277493,0.0-3.0-0.109,"""",key,arrowleft,6.944463087248557,960,468.5,110,4,-1,25,35,25,35,true,"2021-10-04 19:34:53",99.228.49.174,"Mozilla/5.0 (Windows NT 10.0; Win64; x64) AppleWebKit/537.36 (KHTML, like Gecko) Chrome/94.0.4606.61 Safari/537.36",WebKit,Chrome,94.0.4606.61,Windows,10.0,fe3c1d035a65c549f7011c5446f73ede
25,1,null,null,psychophysics,225,278495,0.0-3.0-1.109,"""",key,null,6.944475524475508,960,468.5,"""","""","""","""","""","""","""","""","2021-10-04 19:34:53",99.228.49.174,"Mozilla/5.0 (Windows NT 10.0; Win64; x64) AppleWebKit/537.36 (KHTML, like Gecko) Chrome/94.0.4606.61 Safari/537.36",WebKit,Chrome,94.0.4606.61,Windows,10.0,fe3c1d035a65c549f7011c5446f73ede
25,1,853.0999999046326,arrowright,psychophysics,226,279349,0.0-3.0-0.110,"""",key,arrowright,6.944377049180625,960,468.5,111,4,-1,24,35,25,35,false,"2021-10-04 19:34:53",99.228.49.174,"Mozilla/5.0 (Windows NT 10.0; Win64; x64) AppleWebKit/537.36 (KHTML, like Gecko) Chrome/94.0.4606.61 Safari/537.36",WebKit,Chrome,94.0.4606.61,Windows,10.0,fe3c1d035a65c549f7011c5446f73ede
25,1,null,null,psychophysics,227,280352,0.0-3.0-1.110,"""",key,null,6.944381944444306,960,468.5,"""","""","""","""","""","""","""","""","2021-10-04 19:34:53",99.228.49.174,"Mozilla/5.0 (Windows NT 10.0; Win64; x64) AppleWebKit/537.36 (KHTML, like Gecko) Chrome/94.0.4606.61 Safari/537.36",WebKit,Chrome,94.0.4606.61,Windows,10.0,fe3c1d035a65c549f7011c5446f73ede
25,1,772.3999998569489,arrowright,psychophysics,228,281127,0.0-3.0-0.111,"""",key,arrowright,6.944399999999653,960,468.5,112,5,1,24,15,25,35,true,"2021-10-04 19:34:53",99.228.49.174,"Mozilla/5.0 (Windows NT 10.0; Win64; x64) AppleWebKit/537.36 (KHTML, like Gecko) Chrome/94.0.4606.61 Safari/537.36",WebKit,Chrome,94.0.4606.61,Windows,10.0,fe3c1d035a65c549f7011c5446f73ede
25,1,null,null,psychophysics,229,282127,0.0-3.0-1.111,"""",key,null,6.944454545454754,960,468.5,"""","""","""","""","""","""","""","""","2021-10-04 19:34:53",99.228.49.174,"Mozilla/5.0 (Windows NT 10.0; Win64; x64) AppleWebKit/537.36 (KHTML, like Gecko) Chrome/94.0.4606.61 Safari/537.36",WebKit,Chrome,94.0.4606.61,Windows,10.0,fe3c1d035a65c549f7011c5446f73ede
25,1,11639.099999904633," ",html-keyboard-response,230,293767,0.0-3.0-2.111-0.111,"<div style=""color: white; text-align: center; vertical-align: top; display: inline-block; width: 800px; margin: auto""><p>You have completed 40% of the trials. You are on block 5 of 10. <br>Good job! Take a break if you need to.</p><p>Press any key to continue the experiment.</p></div>","""","""","""","""","""","""","""","""","""","""","""","""","""","2021-10-04 19:34:53",99.228.49.174,"Mozilla/5.0 (Windows NT 10.0; Win64; x64) AppleWebKit/537.36 (KHTML, like Gecko) Chrome/94.0.4606.61 Safari/537.36",WebKit,Chrome,94.0.4606.61,Windows,10.0,fe3c1d035a65c549f7011c5446f73ede
25,1,720.5999999046326,arrowright,psychophysics,231,295491,0.0-3.0-0.112,"""",key,arrowright,6.9449615384611,960,468.5,113,5,1,30,35,25,35,true,"2021-10-04 19:34:53",99.228.49.174,"Mozilla/5.0 (Windows NT 10.0; Win64; x64) AppleWebKit/537.36 (KHTML, like Gecko) Chrome/94.0.4606.61 Safari/537.36",WebKit,Chrome,94.0.4606.61,Windows,10.0,fe3c1d035a65c549f7011c5446f73ede
25,1,null,null,psychophysics,232,296493,0.0-3.0-1.112,"""",key,null,6.944489510489752,960,468.5,"""","""","""","""","""","""","""","""","2021-10-04 19:34:53",99.228.49.174,"Mozilla/5.0 (Windows NT 10.0; Win64; x64) AppleWebKit/537.36 (KHTML, like Gecko) Chrome/94.0.4606.61 Safari/537.36",WebKit,Chrome,94.0.4606.61,Windows,10.0,fe3c1d035a65c549f7011c5446f73ede
25,1,663.7999999523163,arrowleft,psychophysics,233,297158,0.0-3.0-0.113,"""",key,arrowleft,6.944473684210282,960,468.5,114,5,-1,27,15,25,35,true,"2021-10-04 19:34:53",99.228.49.174,"Mozilla/5.0 (Windows NT 10.0; Win64; x64) AppleWebKit/537.36 (KHTML, like Gecko) Chrome/94.0.4606.61 Safari/537.36",WebKit,Chrome,94.0.4606.61,Windows,10.0,fe3c1d035a65c549f7011c5446f73ede
25,1,null,null,psychophysics,234,298159,0.0-3.0-1.113,"""",key,null,6.944461538461672,960,468.5,"""","""","""","""","""","""","""","""","2021-10-04 19:34:53",99.228.49.174,"Mozilla/5.0 (Windows NT 10.0; Win64; x64) AppleWebKit/537.36 (KHTML, like Gecko) Chrome/94.0.4606.61 Safari/537.36",WebKit,Chrome,94.0.4606.61,Windows,10.0,fe3c1d035a65c549f7011c5446f73ede
25,1,734.0999999046326,arrowright,psychophysics,235,298895,0.0-3.0-0.114,"""",key,arrowright,6.9443904761906845,960,468.5,115,5,-1,20,35,25,35,false,"2021-10-04 19:34:53",99.228.49.174,"Mozilla/5.0 (Windows NT 10.0; Win64; x64) AppleWebKit/537.36 (KHTML, like Gecko) Chrome/94.0.4606.61 Safari/537.36",WebKit,Chrome,94.0.4606.61,Windows,10.0,fe3c1d035a65c549f7011c5446f73ede
25,1,null,null,psychophysics,236,299896,0.0-3.0-1.114,"""",key,null,6.944412587412431,960,468.5,"""","""","""","""","""","""","""","""","2021-10-04 19:34:53",99.228.49.174,"Mozilla/5.0 (Windows NT 10.0; Win64; x64) AppleWebKit/537.36 (KHTML, like Gecko) Chrome/94.0.4606.61 Safari/537.36",WebKit,Chrome,94.0.4606.61,Windows,10.0,fe3c1d035a65c549f7011c5446f73ede
25,1,603.6999998092651,arrowleft,psychophysics,237,300503,0.0-3.0-0.115,"""",key,arrowleft,6.94440229885058,960,468.5,116,5,-1,26,15,25,35,true,"2021-10-04 19:34:53",99.228.49.174,"Mozilla/5.0 (Windows NT 10.0; Win64; x64) AppleWebKit/537.36 (KHTML, like Gecko) Chrome/94.0.4606.61 Safari/537.36",WebKit,Chrome,94.0.4606.61,Windows,10.0,fe3c1d035a65c549f7011c5446f73ede
25,1,null,null,psychophysics,238,301505,0.0-3.0-1.115,"""",key,null,6.944440559440511,960,468.5,"""","""","""","""","""","""","""","""","2021-10-04 19:34:53",99.228.49.174,"Mozilla/5.0 (Windows NT 10.0; Win64; x64) AppleWebKit/537.36 (KHTML, like Gecko) Chrome/94.0.4606.61 Safari/537.36",WebKit,Chrome,94.0.4606.61,Windows,10.0,fe3c1d035a65c549f7011c5446f73ede
25,1,690.1999998092651,arrowright,psychophysics,239,302197,0.0-3.0-0.116,"""",key,arrowright,6.944494949494996,960,468.5,117,5,1,23,15,25,35,true,"2021-10-04 19:34:53",99.228.49.174,"Mozilla/5.0 (Windows NT 10.0; Win64; x64) AppleWebKit/537.36 (KHTML, like Gecko) Chrome/94.0.4606.61 Safari/537.36",WebKit,Chrome,94.0.4606.61,Windows,10.0,fe3c1d035a65c549f7011c5446f73ede
25,1,null,null,psychophysics,240,303198,0.0-3.0-1.116,"""",key,null,6.944503496503588,960,468.5,"""","""","""","""","""","""","""","""","2021-10-04 19:34:53",99.228.49.174,"Mozilla/5.0 (Windows NT 10.0; Win64; x64) AppleWebKit/537.36 (KHTML, like Gecko) Chrome/94.0.4606.61 Safari/537.36",WebKit,Chrome,94.0.4606.61,Windows,10.0,fe3c1d035a65c549f7011c5446f73ede
25,1,979.0999999046326,arrowright,psychophysics,241,304180,0.0-3.0-0.117,"""",key,arrowright,6.944471428571601,960,468.5,118,5,1,23,15,25,35,true,"2021-10-04 19:34:53",99.228.49.174,"Mozilla/5.0 (Windows NT 10.0; Win64; x64) AppleWebKit/537.36 (KHTML, like Gecko) Chrome/94.0.4606.61 Safari/537.36",WebKit,Chrome,94.0.4606.61,Windows,10.0,fe3c1d035a65c549f7011c5446f73ede
25,1,null,null,psychophysics,242,305181,0.0-3.0-1.117,"""",key,null,6.944426573426267,960,468.5,"""","""","""","""","""","""","""","""","2021-10-04 19:34:53",99.228.49.174,"Mozilla/5.0 (Windows NT 10.0; Win64; x64) AppleWebKit/537.36 (KHTML, like Gecko) Chrome/94.0.4606.61 Safari/537.36",WebKit,Chrome,94.0.4606.61,Windows,10.0,fe3c1d035a65c549f7011c5446f73ede
25,1,1107.2999999523163,arrowleft,psychophysics,243,306290,0.0-3.0-0.118,"""",key,arrowleft,6.944503144653948,960,468.5,119,5,-1,20,15,25,35,true,"2021-10-04 19:34:53",99.228.49.174,"Mozilla/5.0 (Windows NT 10.0; Win64; x64) AppleWebKit/537.36 (KHTML, like Gecko) Chrome/94.0.4606.61 Safari/537.36",WebKit,Chrome,94.0.4606.61,Windows,10.0,fe3c1d035a65c549f7011c5446f73ede
25,1,null,null,psychophysics,244,307293,0.0-3.0-1.118,"""",key,null,6.9443986013985946,960,468.5,"""","""","""","""","""","""","""","""","2021-10-04 19:34:53",99.228.49.174,"Mozilla/5.0 (Windows NT 10.0; Win64; x64) AppleWebKit/537.36 (KHTML, like Gecko) Chrome/94.0.4606.61 Safari/537.36",WebKit,Chrome,94.0.4606.61,Windows,10.0,fe3c1d035a65c549f7011c5446f73ede
25,1,742.7000000476837,arrowright,psychophysics,245,308038,0.0-3.0-0.119,"""",key,arrowright,6.944495327102682,960,468.5,120,5,1,25,15,25,35,true,"2021-10-04 19:34:53",99.228.49.174,"Mozilla/5.0 (Windows NT 10.0; Win64; x64) AppleWebKit/537.36 (KHTML, like Gecko) Chrome/94.0.4606.61 Safari/537.36",WebKit,Chrome,94.0.4606.61,Windows,10.0,fe3c1d035a65c549f7011c5446f73ede
25,1,null,null,psychophysics,246,309038,0.0-3.0-1.119,"""",key,null,6.944440559440511,960,468.5,"""","""","""","""","""","""","""","""","2021-10-04 19:34:53",99.228.49.174,"Mozilla/5.0 (Windows NT 10.0; Win64; x64) AppleWebKit/537.36 (KHTML, like Gecko) Chrome/94.0.4606.61 Safari/537.36",WebKit,Chrome,94.0.4606.61,Windows,10.0,fe3c1d035a65c549f7011c5446f73ede
25,1,960.8999998569489,arrowright,psychophysics,247,310001,0.0-3.0-0.120,"""",key,arrowright,6.944518248175431,960,468.5,121,5,-1,20,15,25,35,false,"2021-10-04 19:34:53",99.228.49.174,"Mozilla/5.0 (Windows NT 10.0; Win64; x64) AppleWebKit/537.36 (KHTML, like Gecko) Chrome/94.0.4606.61 Safari/537.36",WebKit,Chrome,94.0.4606.61,Windows,10.0,fe3c1d035a65c549f7011c5446f73ede
25,1,null,null,psychophysics,248,311002,0.0-3.0-1.120,"""",key,null,6.944384615384759,960,468.5,"""","""","""","""","""","""","""","""","2021-10-04 19:34:53",99.228.49.174,"Mozilla/5.0 (Windows NT 10.0; Win64; x64) AppleWebKit/537.36 (KHTML, like Gecko) Chrome/94.0.4606.61 Safari/537.36",WebKit,Chrome,94.0.4606.61,Windows,10.0,fe3c1d035a65c549f7011c5446f73ede
25,1,600.2000000476837,arrowleft,psychophysics,249,311604,0.0-3.0-0.121,"""",key,arrowleft,6.944476744185776,960,468.5,122,5,-1,25,15,25,35,true,"2021-10-04 19:34:53",99.228.49.174,"Mozilla/5.0 (Windows NT 10.0; Win64; x64) AppleWebKit/537.36 (KHTML, like Gecko) Chrome/94.0.4606.61 Safari/537.36",WebKit,Chrome,94.0.4606.61,Windows,10.0,fe3c1d035a65c549f7011c5446f73ede
25,1,null,null,psychophysics,250,312605,0.0-3.0-1.121,"""",key,null,6.944489510489344,960,468.5,"""","""","""","""","""","""","""","""","2021-10-04 19:34:53",99.228.49.174,"Mozilla/5.0 (Windows NT 10.0; Win64; x64) AppleWebKit/537.36 (KHTML, like Gecko) Chrome/94.0.4606.61 Safari/537.36",WebKit,Chrome,94.0.4606.61,Windows,10.0,fe3c1d035a65c549f7011c5446f73ede
25,1,570.6000001430511,arrowright,psychophysics,251,313179,0.0-3.0-0.122,"""",key,arrowright,6.944524390243914,960,468.5,123,5,1,26,15,25,35,true,"2021-10-04 19:34:53",99.228.49.174,"Mozilla/5.0 (Windows NT 10.0; Win64; x64) AppleWebKit/537.36 (KHTML, like Gecko) Chrome/94.0.4606.61 Safari/537.36",WebKit,Chrome,94.0.4606.61,Windows,10.0,fe3c1d035a65c549f7011c5446f73ede
25,1,null,null,psychophysics,252,314181,0.0-3.0-1.122,"""",key,null,6.94446853146859,960,468.5,"""","""","""","""","""","""","""","""","2021-10-04 19:34:53",99.228.49.174,"Mozilla/5.0 (Windows NT 10.0; Win64; x64) AppleWebKit/537.36 (KHTML, like Gecko) Chrome/94.0.4606.61 Safari/537.36",WebKit,Chrome,94.0.4606.61,Windows,10.0,fe3c1d035a65c549f7011c5446f73ede
25,1,800.5,arrowleft,psychophysics,253,314984,0.0-3.0-0.123,"""",key,arrowleft,6.944443478261161,960,468.5,124,5,1,20,35,25,35,false,"2021-10-04 19:34:53",99.228.49.174,"Mozilla/5.0 (Windows NT 10.0; Win64; x64) AppleWebKit/537.36 (KHTML, like Gecko) Chrome/94.0.4606.61 Safari/537.36",WebKit,Chrome,94.0.4606.61,Windows,10.0,fe3c1d035a65c549f7011c5446f73ede
25,1,null,null,psychophysics,254,315985,0.0-3.0-1.123,"""",key,null,6.944503496503588,960,468.5,"""","""","""","""","""","""","""","""","2021-10-04 19:34:53",99.228.49.174,"Mozilla/5.0 (Windows NT 10.0; Win64; x64) AppleWebKit/537.36 (KHTML, like Gecko) Chrome/94.0.4606.61 Safari/537.36",WebKit,Chrome,94.0.4606.61,Windows,10.0,fe3c1d035a65c549f7011c5446f73ede
25,1,533.2999999523163,arrowright,psychophysics,255,316520,0.0-3.0-0.124,"""",key,arrowright,6.944407894737148,960,468.5,125,5,1,30,35,25,35,true,"2021-10-04 19:34:53",99.228.49.174,"Mozilla/5.0 (Windows NT 10.0; Win64; x64) AppleWebKit/537.36 (KHTML, like Gecko) Chrome/94.0.4606.61 Safari/537.36",WebKit,Chrome,94.0.4606.61,Windows,10.0,fe3c1d035a65c549f7011c5446f73ede
25,1,null,null,psychophysics,256,317521,0.0-3.0-1.124,"""",key,null,6.944510489510506,960,468.5,"""","""","""","""","""","""","""","""","2021-10-04 19:34:53",99.228.49.174,"Mozilla/5.0 (Windows NT 10.0; Win64; x64) AppleWebKit/537.36 (KHTML, like Gecko) Chrome/94.0.4606.61 Safari/537.36",WebKit,Chrome,94.0.4606.61,Windows,10.0,fe3c1d035a65c549f7011c5446f73ede
25,1,538.1999998092651,arrowleft,psychophysics,257,318061,0.0-3.0-0.125,"""",key,arrowleft,6.944519480519517,960,468.5,126,5,1,24,35,25,35,false,"2021-10-04 19:34:53",99.228.49.174,"Mozilla/5.0 (Windows NT 10.0; Win64; x64) AppleWebKit/537.36 (KHTML, like Gecko) Chrome/94.0.4606.61 Safari/537.36",WebKit,Chrome,94.0.4606.61,Windows,10.0,fe3c1d035a65c549f7011c5446f73ede
25,1,null,null,psychophysics,258,319063,0.0-3.0-1.125,"""",key,null,6.9444825174824265,960,468.5,"""","""","""","""","""","""","""","""","2021-10-04 19:34:53",99.228.49.174,"Mozilla/5.0 (Windows NT 10.0; Win64; x64) AppleWebKit/537.36 (KHTML, like Gecko) Chrome/94.0.4606.61 Safari/537.36",WebKit,Chrome,94.0.4606.61,Windows,10.0,fe3c1d035a65c549f7011c5446f73ede
25,1,923.6999998092651,arrowleft,psychophysics,259,319990,0.0-3.0-0.126,"""",key,arrowleft,6.944458646616632,960,468.5,127,5,1,23,35,25,35,false,"2021-10-04 19:34:53",99.228.49.174,"Mozilla/5.0 (Windows NT 10.0; Win64; x64) AppleWebKit/537.36 (KHTML, like Gecko) Chrome/94.0.4606.61 Safari/537.36",WebKit,Chrome,94.0.4606.61,Windows,10.0,fe3c1d035a65c549f7011c5446f73ede
25,1,null,null,psychophysics,260,320991,0.0-3.0-1.126,"""",key,null,6.944517482517424,960,468.5,"""","""","""","""","""","""","""","""","2021-10-04 19:34:53",99.228.49.174,"Mozilla/5.0 (Windows NT 10.0; Win64; x64) AppleWebKit/537.36 (KHTML, like Gecko) Chrome/94.0.4606.61 Safari/537.36",WebKit,Chrome,94.0.4606.61,Windows,10.0,fe3c1d035a65c549f7011c5446f73ede
25,1,979.8999998569489,arrowleft,psychophysics,261,321973,0.0-3.0-0.127,"""",key,arrowleft,6.944435714285438,960,468.5,128,5,-1,27,15,25,35,true,"2021-10-04 19:34:53",99.228.49.174,"Mozilla/5.0 (Windows NT 10.0; Win64; x64) AppleWebKit/537.36 (KHTML, like Gecko) Chrome/94.0.4606.61 Safari/537.36",WebKit,Chrome,94.0.4606.61,Windows,10.0,fe3c1d035a65c549f7011c5446f73ede
25,1,null,null,psychophysics,262,322974,0.0-3.0-1.127,"""",key,null,6.944545454545096,960,468.5,"""","""","""","""","""","""","""","""","2021-10-04 19:34:53",99.228.49.174,"Mozilla/5.0 (Windows NT 10.0; Win64; x64) AppleWebKit/537.36 (KHTML, like Gecko) Chrome/94.0.4606.61 Safari/537.36",WebKit,Chrome,94.0.4606.61,Windows,10.0,fe3c1d035a65c549f7011c5446f73ede
25,1,969.3999998569489,arrowright,psychophysics,263,323945,0.0-3.0-0.128,"""",key,arrowright,6.94433093525213,960,468.5,129,5,1,30,15,25,35,true,"2021-10-04 19:34:53",99.228.49.174,"Mozilla/5.0 (Windows NT 10.0; Win64; x64) AppleWebKit/537.36 (KHTML, like Gecko) Chrome/94.0.4606.61 Safari/537.36",WebKit,Chrome,94.0.4606.61,Windows,10.0,fe3c1d035a65c549f7011c5446f73ede
25,1,null,null,psychophysics,264,324946,0.0-3.0-1.128,"""",key,null,6.944419580419349,960,468.5,"""","""","""","""","""","""","""","""","2021-10-04 19:34:53",99.228.49.174,"Mozilla/5.0 (Windows NT 10.0; Win64; x64) AppleWebKit/537.36 (KHTML, like Gecko) Chrome/94.0.4606.61 Safari/537.36",WebKit,Chrome,94.0.4606.61,Windows,10.0,fe3c1d035a65c549f7011c5446f73ede
25,1,1011.1000001430511,arrowright,psychophysics,265,325961,0.0-3.0-0.129,"""",key,arrowright,6.944462068965819,960,468.5,130,5,1,24,15,25,35,true,"2021-10-04 19:34:53",99.228.49.174,"Mozilla/5.0 (Windows NT 10.0; Win64; x64) AppleWebKit/537.36 (KHTML, like Gecko) Chrome/94.0.4606.61 Safari/537.36",WebKit,Chrome,94.0.4606.61,Windows,10.0,fe3c1d035a65c549f7011c5446f73ede
25,1,null,null,psychophysics,266,326962,0.0-3.0-1.129,"""",key,null,6.944423611111334,960,468.5,"""","""","""","""","""","""","""","""","2021-10-04 19:34:53",99.228.49.174,"Mozilla/5.0 (Windows NT 10.0; Win64; x64) AppleWebKit/537.36 (KHTML, like Gecko) Chrome/94.0.4606.61 Safari/537.36",WebKit,Chrome,94.0.4606.61,Windows,10.0,fe3c1d035a65c549f7011c5446f73ede
25,1,551.1999998092651,arrowleft,psychophysics,267,327515,0.0-3.0-0.130,"""",key,arrowleft,6.944397435897442,960,468.5,131,5,-1,30,15,25,35,true,"2021-10-04 19:34:53",99.228.49.174,"Mozilla/5.0 (Windows NT 10.0; Win64; x64) AppleWebKit/537.36 (KHTML, like Gecko) Chrome/94.0.4606.61 Safari/537.36",WebKit,Chrome,94.0.4606.61,Windows,10.0,fe3c1d035a65c549f7011c5446f73ede
25,1,null,null,psychophysics,268,328516,0.0-3.0-1.130,"""",key,null,6.944440559440918,960,468.5,"""","""","""","""","""","""","""","""","2021-10-04 19:34:53",99.228.49.174,"Mozilla/5.0 (Windows NT 10.0; Win64; x64) AppleWebKit/537.36 (KHTML, like Gecko) Chrome/94.0.4606.61 Safari/537.36",WebKit,Chrome,94.0.4606.61,Windows,10.0,fe3c1d035a65c549f7011c5446f73ede
