run_id,condition,rt,response,trial_type,trial_index,time_elapsed,internal_node_id,stimulus,response_type,key_press,avg_frame_time,center_x,center_y,trial,block,test_pos,test_inner_radius,test_outer_radius,ref_inner_radius,ref_outer_radius,test_bigger,recorded_at,ip,user_agent,device,browser,browser_version,platform,platform_version,source_code_version
23,1,53577,"{""p_id"":""2785"",""age"":""22"",""handedness"":""right"",""sex"":""male"",""other_sex"":""}",survey-html-form,0,53600,0.0-0.0,"""","""","""","""","""","""","""","""","""","""","""","""","""","""","2021-10-04 16:43:11",142.114.128.39,"Mozilla/5.0 (Macintosh; Intel Mac OS X 10_15_7) AppleWebKit/537.36 (KHTML, like Gecko) Chrome/94.0.4606.61 Safari/537.36",Macintosh,Chrome,94.0.4606.61,"OS X",10_15_7,fe3c1d035a65c549f7011c5446f73ede
23,1,35052.80000000005," ",html-keyboard-response,1,88666,0.0-1.0,"<p style=""color: white"">Welcome to the Size Judgment Experiment. <br>There will be 10 blocks in this experiment. <br>There will be 28 trials in each block. <br>You will be given a chance to take a break between blocks. <br>Press any key to start the experiment.</p>","""","""","""","""","""","""","""","""","""","""","""","""","""","2021-10-04 16:43:11",142.114.128.39,"Mozilla/5.0 (Macintosh; Intel Mac OS X 10_15_7) AppleWebKit/537.36 (KHTML, like Gecko) Chrome/94.0.4606.61 Safari/537.36",Macintosh,Chrome,94.0.4606.61,"OS X",10_15_7,fe3c1d035a65c549f7011c5446f73ede
23,1,7160.600000000093," ",psychophysics,2,95852,0.0-2.0,"""",key," ",16.690696055684427,480,500.5,"""","""","""","""","""","""","""","""","2021-10-04 16:43:11",142.114.128.39,"Mozilla/5.0 (Macintosh; Intel Mac OS X 10_15_7) AppleWebKit/537.36 (KHTML, like Gecko) Chrome/94.0.4606.61 Safari/537.36",Macintosh,Chrome,94.0.4606.61,"OS X",10_15_7,fe3c1d035a65c549f7011c5446f73ede
23,1,11018.599999999977,arrowleft,psychophysics,3,106879,0.0-3.0-0.0,"""",key,arrowleft,16.667574242424223,480,500.5,1,1,1,25,35,25,35,false,"2021-10-04 16:43:11",142.114.128.39,"Mozilla/5.0 (Macintosh; Intel Mac OS X 10_15_7) AppleWebKit/537.36 (KHTML, like Gecko) Chrome/94.0.4606.61 Safari/537.36",Macintosh,Chrome,94.0.4606.61,"OS X",10_15_7,fe3c1d035a65c549f7011c5446f73ede
23,1,null,null,psychophysics,4,107882,0.0-3.0-1.0,"""",key,null,16.665999999999865,480,500.5,"""","""","""","""","""","""","""","""","2021-10-04 16:43:11",142.114.128.39,"Mozilla/5.0 (Macintosh; Intel Mac OS X 10_15_7) AppleWebKit/537.36 (KHTML, like Gecko) Chrome/94.0.4606.61 Safari/537.36",Macintosh,Chrome,94.0.4606.61,"OS X",10_15_7,fe3c1d035a65c549f7011c5446f73ede
23,1,1913,arrowleft,psychophysics,5,109800,0.0-3.0-0.1,"""",key,arrowleft,16.668324561403494,480,500.5,2,1,1,20,35,25,35,false,"2021-10-04 16:43:11",142.114.128.39,"Mozilla/5.0 (Macintosh; Intel Mac OS X 10_15_7) AppleWebKit/537.36 (KHTML, like Gecko) Chrome/94.0.4606.61 Safari/537.36",Macintosh,Chrome,94.0.4606.61,"OS X",10_15_7,fe3c1d035a65c549f7011c5446f73ede
23,1,null,null,psychophysics,6,110801,0.0-3.0-1.1,"""",key,null,16.665999999999904,480,500.5,"""","""","""","""","""","""","""","""","2021-10-04 16:43:11",142.114.128.39,"Mozilla/5.0 (Macintosh; Intel Mac OS X 10_15_7) AppleWebKit/537.36 (KHTML, like Gecko) Chrome/94.0.4606.61 Safari/537.36",Macintosh,Chrome,94.0.4606.61,"OS X",10_15_7,fe3c1d035a65c549f7011c5446f73ede
23,1,1978.5999999999767,arrowleft,psychophysics,7,112783,0.0-3.0-0.2,"""",key,arrowleft,16.66600000000003,480,500.5,3,1,-1,27,15,25,35,true,"2021-10-04 16:43:11",142.114.128.39,"Mozilla/5.0 (Macintosh; Intel Mac OS X 10_15_7) AppleWebKit/537.36 (KHTML, like Gecko) Chrome/94.0.4606.61 Safari/537.36",Macintosh,Chrome,94.0.4606.61,"OS X",10_15_7,fe3c1d035a65c549f7011c5446f73ede
23,1,null,null,psychophysics,8,113785,0.0-3.0-1.2,"""",key,null,16.666000000000153,480,500.5,"""","""","""","""","""","""","""","""","2021-10-04 16:43:11",142.114.128.39,"Mozilla/5.0 (Macintosh; Intel Mac OS X 10_15_7) AppleWebKit/537.36 (KHTML, like Gecko) Chrome/94.0.4606.61 Safari/537.36",Macintosh,Chrome,94.0.4606.61,"OS X",10_15_7,fe3c1d035a65c549f7011c5446f73ede
23,1,2729.9000000000233,arrowright,psychophysics,9,116520,0.0-3.0-0.3,"""",key,arrowright,16.66599999999994,480,500.5,4,1,1,26,15,25,35,true,"2021-10-04 16:43:11",142.114.128.39,"Mozilla/5.0 (Macintosh; Intel Mac OS X 10_15_7) AppleWebKit/537.36 (KHTML, like Gecko) Chrome/94.0.4606.61 Safari/537.36",Macintosh,Chrome,94.0.4606.61,"OS X",10_15_7,fe3c1d035a65c549f7011c5446f73ede
23,1,null,null,psychophysics,10,117521,0.0-3.0-1.3,"""",key,null,16.665999999999904,480,500.5,"""","""","""","""","""","""","""","""","2021-10-04 16:43:11",142.114.128.39,"Mozilla/5.0 (Macintosh; Intel Mac OS X 10_15_7) AppleWebKit/537.36 (KHTML, like Gecko) Chrome/94.0.4606.61 Safari/537.36",Macintosh,Chrome,94.0.4606.61,"OS X",10_15_7,fe3c1d035a65c549f7011c5446f73ede
23,1,1445.2000000000698,arrowright,psychophysics,11,118969,0.0-3.0-0.4,"""",key,arrowright,16.66980232558143,480,500.5,5,1,1,30,35,25,35,true,"2021-10-04 16:43:11",142.114.128.39,"Mozilla/5.0 (Macintosh; Intel Mac OS X 10_15_7) AppleWebKit/537.36 (KHTML, like Gecko) Chrome/94.0.4606.61 Safari/537.36",Macintosh,Chrome,94.0.4606.61,"OS X",10_15_7,fe3c1d035a65c549f7011c5446f73ede
23,1,null,null,psychophysics,12,119970,0.0-3.0-1.4,"""",key,null,16.665999999999904,480,500.5,"""","""","""","""","""","""","""","""","2021-10-04 16:43:11",142.114.128.39,"Mozilla/5.0 (Macintosh; Intel Mac OS X 10_15_7) AppleWebKit/537.36 (KHTML, like Gecko) Chrome/94.0.4606.61 Safari/537.36",Macintosh,Chrome,94.0.4606.61,"OS X",10_15_7,fe3c1d035a65c549f7011c5446f73ede
23,1,2357.5999999999767,arrowleft,psychophysics,13,122334,0.0-3.0-0.5,"""",key,arrowleft,16.665999999999915,480,500.5,6,1,-1,25,15,25,35,true,"2021-10-04 16:43:11",142.114.128.39,"Mozilla/5.0 (Macintosh; Intel Mac OS X 10_15_7) AppleWebKit/537.36 (KHTML, like Gecko) Chrome/94.0.4606.61 Safari/537.36",Macintosh,Chrome,94.0.4606.61,"OS X",10_15_7,fe3c1d035a65c549f7011c5446f73ede
23,1,null,null,psychophysics,14,123336,0.0-3.0-1.5,"""",key,null,16.665999999999904,480,500.5,"""","""","""","""","""","""","""","""","2021-10-04 16:43:11",142.114.128.39,"Mozilla/5.0 (Macintosh; Intel Mac OS X 10_15_7) AppleWebKit/537.36 (KHTML, like Gecko) Chrome/94.0.4606.61 Safari/537.36",Macintosh,Chrome,94.0.4606.61,"OS X",10_15_7,fe3c1d035a65c549f7011c5446f73ede
23,1,2317.399999999907,arrowright,psychophysics,15,125656,0.0-3.0-0.6,"""",key,arrowright,16.66599999999997,480,500.5,7,1,1,26,35,25,35,true,"2021-10-04 16:43:11",142.114.128.39,"Mozilla/5.0 (Macintosh; Intel Mac OS X 10_15_7) AppleWebKit/537.36 (KHTML, like Gecko) Chrome/94.0.4606.61 Safari/537.36",Macintosh,Chrome,94.0.4606.61,"OS X",10_15_7,fe3c1d035a65c549f7011c5446f73ede
23,1,null,null,psychophysics,16,126659,0.0-3.0-1.6,"""",key,null,16.665999999999904,480,500.5,"""","""","""","""","""","""","""","""","2021-10-04 16:43:11",142.114.128.39,"Mozilla/5.0 (Macintosh; Intel Mac OS X 10_15_7) AppleWebKit/537.36 (KHTML, like Gecko) Chrome/94.0.4606.61 Safari/537.36",Macintosh,Chrome,94.0.4606.61,"OS X",10_15_7,fe3c1d035a65c549f7011c5446f73ede
23,1,1457.0999999999767,arrowright,psychophysics,17,128120,0.0-3.0-0.7,"""",key,arrowright,16.666000000000114,480,500.5,8,1,1,27,35,25,35,true,"2021-10-04 16:43:11",142.114.128.39,"Mozilla/5.0 (Macintosh; Intel Mac OS X 10_15_7) AppleWebKit/537.36 (KHTML, like Gecko) Chrome/94.0.4606.61 Safari/537.36",Macintosh,Chrome,94.0.4606.61,"OS X",10_15_7,fe3c1d035a65c549f7011c5446f73ede
23,1,null,null,psychophysics,18,129121,0.0-3.0-1.7,"""",key,null,16.669440677966154,480,500.5,"""","""","""","""","""","""","""","""","2021-10-04 16:43:11",142.114.128.39,"Mozilla/5.0 (Macintosh; Intel Mac OS X 10_15_7) AppleWebKit/537.36 (KHTML, like Gecko) Chrome/94.0.4606.61 Safari/537.36",Macintosh,Chrome,94.0.4606.61,"OS X",10_15_7,fe3c1d035a65c549f7011c5446f73ede
23,1,818.3000000000466,arrowleft,psychophysics,19,129942,0.0-3.0-0.8,"""",key,arrowleft,16.665999999999865,480,500.5,9,1,1,20,15,25,35,false,"2021-10-04 16:43:11",142.114.128.39,"Mozilla/5.0 (Macintosh; Intel Mac OS X 10_15_7) AppleWebKit/537.36 (KHTML, like Gecko) Chrome/94.0.4606.61 Safari/537.36",Macintosh,Chrome,94.0.4606.61,"OS X",10_15_7,fe3c1d035a65c549f7011c5446f73ede
23,1,null,null,psychophysics,20,130946,0.0-3.0-1.8,"""",key,null,16.665999999999904,480,500.5,"""","""","""","""","""","""","""","""","2021-10-04 16:43:11",142.114.128.39,"Mozilla/5.0 (Macintosh; Intel Mac OS X 10_15_7) AppleWebKit/537.36 (KHTML, like Gecko) Chrome/94.0.4606.61 Safari/537.36",Macintosh,Chrome,94.0.4606.61,"OS X",10_15_7,fe3c1d035a65c549f7011c5446f73ede
23,1,968.9000000000233,arrowleft,psychophysics,21,131920,0.0-3.0-0.9,"""",key,arrowleft,16.666000000000448,480,500.5,10,1,-1,30,15,25,35,true,"2021-10-04 16:43:11",142.114.128.39,"Mozilla/5.0 (Macintosh; Intel Mac OS X 10_15_7) AppleWebKit/537.36 (KHTML, like Gecko) Chrome/94.0.4606.61 Safari/537.36",Macintosh,Chrome,94.0.4606.61,"OS X",10_15_7,fe3c1d035a65c549f7011c5446f73ede
23,1,null,null,psychophysics,22,132924,0.0-3.0-1.9,"""",key,null,16.665999999999904,480,500.5,"""","""","""","""","""","""","""","""","2021-10-04 16:43:11",142.114.128.39,"Mozilla/5.0 (Macintosh; Intel Mac OS X 10_15_7) AppleWebKit/537.36 (KHTML, like Gecko) Chrome/94.0.4606.61 Safari/537.36",Macintosh,Chrome,94.0.4606.61,"OS X",10_15_7,fe3c1d035a65c549f7011c5446f73ede
23,1,1627.4000000000233,arrowleft,psychophysics,23,134555,0.0-3.0-0.10,"""",key,arrowleft,16.66599999999984,480,500.5,11,1,1,25,35,25,35,false,"2021-10-04 16:43:11",142.114.128.39,"Mozilla/5.0 (Macintosh; Intel Mac OS X 10_15_7) AppleWebKit/537.36 (KHTML, like Gecko) Chrome/94.0.4606.61 Safari/537.36",Macintosh,Chrome,94.0.4606.61,"OS X",10_15_7,fe3c1d035a65c549f7011c5446f73ede
23,1,null,null,psychophysics,24,135556,0.0-3.0-1.10,"""",key,null,16.665999999999904,480,500.5,"""","""","""","""","""","""","""","""","2021-10-04 16:43:11",142.114.128.39,"Mozilla/5.0 (Macintosh; Intel Mac OS X 10_15_7) AppleWebKit/537.36 (KHTML, like Gecko) Chrome/94.0.4606.61 Safari/537.36",Macintosh,Chrome,94.0.4606.61,"OS X",10_15_7,fe3c1d035a65c549f7011c5446f73ede
23,1,1181.4000000000233,arrowright,psychophysics,25,136741,0.0-3.0-0.11,"""",key,arrowright,16.665999999999933,480,500.5,12,1,1,30,35,25,35,true,"2021-10-04 16:43:11",142.114.128.39,"Mozilla/5.0 (Macintosh; Intel Mac OS X 10_15_7) AppleWebKit/537.36 (KHTML, like Gecko) Chrome/94.0.4606.61 Safari/537.36",Macintosh,Chrome,94.0.4606.61,"OS X",10_15_7,fe3c1d035a65c549f7011c5446f73ede
23,1,null,null,psychophysics,26,137743,0.0-3.0-1.11,"""",key,null,16.665999999999904,480,500.5,"""","""","""","""","""","""","""","""","2021-10-04 16:43:11",142.114.128.39,"Mozilla/5.0 (Macintosh; Intel Mac OS X 10_15_7) AppleWebKit/537.36 (KHTML, like Gecko) Chrome/94.0.4606.61 Safari/537.36",Macintosh,Chrome,94.0.4606.61,"OS X",10_15_7,fe3c1d035a65c549f7011c5446f73ede
23,1,2197.6999999999534,arrowright,psychophysics,27,139949,0.0-3.0-0.12,"""",key,arrowright,16.668515151515198,480,500.5,13,1,1,25,35,25,35,true,"2021-10-04 16:43:11",142.114.128.39,"Mozilla/5.0 (Macintosh; Intel Mac OS X 10_15_7) AppleWebKit/537.36 (KHTML, like Gecko) Chrome/94.0.4606.61 Safari/537.36",Macintosh,Chrome,94.0.4606.61,"OS X",10_15_7,fe3c1d035a65c549f7011c5446f73ede
23,1,null,null,psychophysics,28,140950,0.0-3.0-1.12,"""",key,null,16.665999999999904,480,500.5,"""","""","""","""","""","""","""","""","2021-10-04 16:43:11",142.114.128.39,"Mozilla/5.0 (Macintosh; Intel Mac OS X 10_15_7) AppleWebKit/537.36 (KHTML, like Gecko) Chrome/94.0.4606.61 Safari/537.36",Macintosh,Chrome,94.0.4606.61,"OS X",10_15_7,fe3c1d035a65c549f7011c5446f73ede
23,1,1441.2000000000698,arrowright,psychophysics,29,142394,0.0-3.0-0.13,"""",key,arrowright,16.666000000000178,480,500.5,14,1,1,30,15,25,35,true,"2021-10-04 16:43:11",142.114.128.39,"Mozilla/5.0 (Macintosh; Intel Mac OS X 10_15_7) AppleWebKit/537.36 (KHTML, like Gecko) Chrome/94.0.4606.61 Safari/537.36",Macintosh,Chrome,94.0.4606.61,"OS X",10_15_7,fe3c1d035a65c549f7011c5446f73ede
23,1,null,null,psychophysics,30,143397,0.0-3.0-1.13,"""",key,null,16.665999999999865,480,500.5,"""","""","""","""","""","""","""","""","2021-10-04 16:43:11",142.114.128.39,"Mozilla/5.0 (Macintosh; Intel Mac OS X 10_15_7) AppleWebKit/537.36 (KHTML, like Gecko) Chrome/94.0.4606.61 Safari/537.36",Macintosh,Chrome,94.0.4606.61,"OS X",10_15_7,fe3c1d035a65c549f7011c5446f73ede
23,1,2901.5,arrowright,psychophysics,31,146302,0.0-3.0-0.14,"""",key,arrowright,16.666000000000132,480,500.5,15,1,-1,24,35,25,35,false,"2021-10-04 16:43:11",142.114.128.39,"Mozilla/5.0 (Macintosh; Intel Mac OS X 10_15_7) AppleWebKit/537.36 (KHTML, like Gecko) Chrome/94.0.4606.61 Safari/537.36",Macintosh,Chrome,94.0.4606.61,"OS X",10_15_7,fe3c1d035a65c549f7011c5446f73ede
23,1,null,null,psychophysics,32,147304,0.0-3.0-1.14,"""",key,null,16.665999999999904,480,500.5,"""","""","""","""","""","""","""","""","2021-10-04 16:43:11",142.114.128.39,"Mozilla/5.0 (Macintosh; Intel Mac OS X 10_15_7) AppleWebKit/537.36 (KHTML, like Gecko) Chrome/94.0.4606.61 Safari/537.36",Macintosh,Chrome,94.0.4606.61,"OS X",10_15_7,fe3c1d035a65c549f7011c5446f73ede
23,1,1069.3000000000466,arrowright,psychophysics,33,148376,0.0-3.0-0.15,"""",key,arrowright,16.66600000000021,480,500.5,16,1,-1,20,35,25,35,false,"2021-10-04 16:43:11",142.114.128.39,"Mozilla/5.0 (Macintosh; Intel Mac OS X 10_15_7) AppleWebKit/537.36 (KHTML, like Gecko) Chrome/94.0.4606.61 Safari/537.36",Macintosh,Chrome,94.0.4606.61,"OS X",10_15_7,fe3c1d035a65c549f7011c5446f73ede
23,1,null,null,psychophysics,34,149379,0.0-3.0-1.15,"""",key,null,16.669457627118515,480,500.5,"""","""","""","""","""","""","""","""","2021-10-04 16:43:11",142.114.128.39,"Mozilla/5.0 (Macintosh; Intel Mac OS X 10_15_7) AppleWebKit/537.36 (KHTML, like Gecko) Chrome/94.0.4606.61 Safari/537.36",Macintosh,Chrome,94.0.4606.61,"OS X",10_15_7,fe3c1d035a65c549f7011c5446f73ede
23,1,1044.5999999999767,arrowleft,psychophysics,35,150434,0.0-3.0-0.16,"""",key,arrowleft,16.66600000000021,480,500.5,17,1,-1,30,15,25,35,true,"2021-10-04 16:43:11",142.114.128.39,"Mozilla/5.0 (Macintosh; Intel Mac OS X 10_15_7) AppleWebKit/537.36 (KHTML, like Gecko) Chrome/94.0.4606.61 Safari/537.36",Macintosh,Chrome,94.0.4606.61,"OS X",10_15_7,fe3c1d035a65c549f7011c5446f73ede
23,1,null,null,psychophysics,36,151435,0.0-3.0-1.16,"""",key,null,16.665999999999904,480,500.5,"""","""","""","""","""","""","""","""","2021-10-04 16:43:11",142.114.128.39,"Mozilla/5.0 (Macintosh; Intel Mac OS X 10_15_7) AppleWebKit/537.36 (KHTML, like Gecko) Chrome/94.0.4606.61 Safari/537.36",Macintosh,Chrome,94.0.4606.61,"OS X",10_15_7,fe3c1d035a65c549f7011c5446f73ede
23,1,856.8999999999069,arrowright,psychophysics,37,152295,0.0-3.0-0.17,"""",key,arrowright,16.665999999999766,480,500.5,18,1,-1,20,35,25,35,false,"2021-10-04 16:43:11",142.114.128.39,"Mozilla/5.0 (Macintosh; Intel Mac OS X 10_15_7) AppleWebKit/537.36 (KHTML, like Gecko) Chrome/94.0.4606.61 Safari/537.36",Macintosh,Chrome,94.0.4606.61,"OS X",10_15_7,fe3c1d035a65c549f7011c5446f73ede
23,1,null,null,psychophysics,38,153300,0.0-3.0-1.17,"""",key,null,16.66600000000035,480,500.5,"""","""","""","""","""","""","""","""","2021-10-04 16:43:11",142.114.128.39,"Mozilla/5.0 (Macintosh; Intel Mac OS X 10_15_7) AppleWebKit/537.36 (KHTML, like Gecko) Chrome/94.0.4606.61 Safari/537.36",Macintosh,Chrome,94.0.4606.61,"OS X",10_15_7,fe3c1d035a65c549f7011c5446f73ede
23,1,882.4000000000233,arrowleft,psychophysics,39,154184,0.0-3.0-0.18,"""",key,arrowleft,16.665999999999677,480,500.5,19,1,-1,30,15,25,35,true,"2021-10-04 16:43:11",142.114.128.39,"Mozilla/5.0 (Macintosh; Intel Mac OS X 10_15_7) AppleWebKit/537.36 (KHTML, like Gecko) Chrome/94.0.4606.61 Safari/537.36",Macintosh,Chrome,94.0.4606.61,"OS X",10_15_7,fe3c1d035a65c549f7011c5446f73ede
23,1,null,null,psychophysics,40,155186,0.0-3.0-1.18,"""",key,null,16.6660000000004,480,500.5,"""","""","""","""","""","""","""","""","2021-10-04 16:43:11",142.114.128.39,"Mozilla/5.0 (Macintosh; Intel Mac OS X 10_15_7) AppleWebKit/537.36 (KHTML, like Gecko) Chrome/94.0.4606.61 Safari/537.36",Macintosh,Chrome,94.0.4606.61,"OS X",10_15_7,fe3c1d035a65c549f7011c5446f73ede
23,1,1059.6000000000931,arrowright,psychophysics,41,156254,0.0-3.0-0.19,"""",key,arrowright,16.665999999999748,480,500.5,20,1,1,27,15,25,35,true,"2021-10-04 16:43:11",142.114.128.39,"Mozilla/5.0 (Macintosh; Intel Mac OS X 10_15_7) AppleWebKit/537.36 (KHTML, like Gecko) Chrome/94.0.4606.61 Safari/537.36",Macintosh,Chrome,94.0.4606.61,"OS X",10_15_7,fe3c1d035a65c549f7011c5446f73ede
23,1,null,null,psychophysics,42,157256,0.0-3.0-1.19,"""",key,null,16.6660000000004,480,500.5,"""","""","""","""","""","""","""","""","2021-10-04 16:43:11",142.114.128.39,"Mozilla/5.0 (Macintosh; Intel Mac OS X 10_15_7) AppleWebKit/537.36 (KHTML, like Gecko) Chrome/94.0.4606.61 Safari/537.36",Macintosh,Chrome,94.0.4606.61,"OS X",10_15_7,fe3c1d035a65c549f7011c5446f73ede
23,1,1928.7000000000698,arrowright,psychophysics,43,159187,0.0-3.0-0.20,"""",key,arrowright,16.66831304347826,480,500.5,21,1,-1,23,15,25,35,false,"2021-10-04 16:43:11",142.114.128.39,"Mozilla/5.0 (Macintosh; Intel Mac OS X 10_15_7) AppleWebKit/537.36 (KHTML, like Gecko) Chrome/94.0.4606.61 Safari/537.36",Macintosh,Chrome,94.0.4606.61,"OS X",10_15_7,fe3c1d035a65c549f7011c5446f73ede
23,1,null,null,psychophysics,44,160189,0.0-3.0-1.20,"""",key,null,16.665999999999904,480,500.5,"""","""","""","""","""","""","""","""","2021-10-04 16:43:11",142.114.128.39,"Mozilla/5.0 (Macintosh; Intel Mac OS X 10_15_7) AppleWebKit/537.36 (KHTML, like Gecko) Chrome/94.0.4606.61 Safari/537.36",Macintosh,Chrome,94.0.4606.61,"OS X",10_15_7,fe3c1d035a65c549f7011c5446f73ede
23,1,895.3000000000466,arrowleft,psychophysics,45,161087,0.0-3.0-0.21,"""",key,arrowleft,16.666000000000185,480,500.5,22,1,-1,30,35,25,35,true,"2021-10-04 16:43:11",142.114.128.39,"Mozilla/5.0 (Macintosh; Intel Mac OS X 10_15_7) AppleWebKit/537.36 (KHTML, like Gecko) Chrome/94.0.4606.61 Safari/537.36",Macintosh,Chrome,94.0.4606.61,"OS X",10_15_7,fe3c1d035a65c549f7011c5446f73ede
23,1,null,null,psychophysics,46,162093,0.0-3.0-1.21,"""",key,null,16.665999999999904,480,500.5,"""","""","""","""","""","""","""","""","2021-10-04 16:43:11",142.114.128.39,"Mozilla/5.0 (Macintosh; Intel Mac OS X 10_15_7) AppleWebKit/537.36 (KHTML, like Gecko) Chrome/94.0.4606.61 Safari/537.36",Macintosh,Chrome,94.0.4606.61,"OS X",10_15_7,fe3c1d035a65c549f7011c5446f73ede
23,1,968.5,arrowright,psychophysics,47,163067,0.0-3.0-0.22,"""",key,arrowright,16.665999999999947,480,500.5,23,1,1,27,15,25,35,true,"2021-10-04 16:43:11",142.114.128.39,"Mozilla/5.0 (Macintosh; Intel Mac OS X 10_15_7) AppleWebKit/537.36 (KHTML, like Gecko) Chrome/94.0.4606.61 Safari/537.36",Macintosh,Chrome,94.0.4606.61,"OS X",10_15_7,fe3c1d035a65c549f7011c5446f73ede
23,1,null,null,psychophysics,48,164068,0.0-3.0-1.22,"""",key,null,16.665999999999904,480,500.5,"""","""","""","""","""","""","""","""","2021-10-04 16:43:11",142.114.128.39,"Mozilla/5.0 (Macintosh; Intel Mac OS X 10_15_7) AppleWebKit/537.36 (KHTML, like Gecko) Chrome/94.0.4606.61 Safari/537.36",Macintosh,Chrome,94.0.4606.61,"OS X",10_15_7,fe3c1d035a65c549f7011c5446f73ede
23,1,1162.5,arrowleft,psychophysics,49,165234,0.0-3.0-0.23,"""",key,arrowleft,16.66599999999997,480,500.5,24,1,1,23,15,25,35,false,"2021-10-04 16:43:11",142.114.128.39,"Mozilla/5.0 (Macintosh; Intel Mac OS X 10_15_7) AppleWebKit/537.36 (KHTML, like Gecko) Chrome/94.0.4606.61 Safari/537.36",Macintosh,Chrome,94.0.4606.61,"OS X",10_15_7,fe3c1d035a65c549f7011c5446f73ede
23,1,null,null,psychophysics,50,166236,0.0-3.0-1.23,"""",key,null,16.665999999999904,480,500.5,"""","""","""","""","""","""","""","""","2021-10-04 16:43:11",142.114.128.39,"Mozilla/5.0 (Macintosh; Intel Mac OS X 10_15_7) AppleWebKit/537.36 (KHTML, like Gecko) Chrome/94.0.4606.61 Safari/537.36",Macintosh,Chrome,94.0.4606.61,"OS X",10_15_7,fe3c1d035a65c549f7011c5446f73ede
23,1,1745,arrowright,psychophysics,51,167984,0.0-3.0-0.24,"""",key,arrowright,16.665999999999958,480,500.5,25,1,1,25,15,25,35,true,"2021-10-04 16:43:11",142.114.128.39,"Mozilla/5.0 (Macintosh; Intel Mac OS X 10_15_7) AppleWebKit/537.36 (KHTML, like Gecko) Chrome/94.0.4606.61 Safari/537.36",Macintosh,Chrome,94.0.4606.61,"OS X",10_15_7,fe3c1d035a65c549f7011c5446f73ede
23,1,null,null,psychophysics,52,168987,0.0-3.0-1.24,"""",key,null,16.665999999999904,480,500.5,"""","""","""","""","""","""","""","""","2021-10-04 16:43:11",142.114.128.39,"Mozilla/5.0 (Macintosh; Intel Mac OS X 10_15_7) AppleWebKit/537.36 (KHTML, like Gecko) Chrome/94.0.4606.61 Safari/537.36",Macintosh,Chrome,94.0.4606.61,"OS X",10_15_7,fe3c1d035a65c549f7011c5446f73ede
23,1,1078.7000000000698,arrowright,psychophysics,53,170069,0.0-3.0-0.25,"""",key,arrowright,16.670296875000076,480,500.5,26,1,-1,23,35,25,35,false,"2021-10-04 16:43:11",142.114.128.39,"Mozilla/5.0 (Macintosh; Intel Mac OS X 10_15_7) AppleWebKit/537.36 (KHTML, like Gecko) Chrome/94.0.4606.61 Safari/537.36",Macintosh,Chrome,94.0.4606.61,"OS X",10_15_7,fe3c1d035a65c549f7011c5446f73ede
23,1,null,null,psychophysics,54,171071,0.0-3.0-1.25,"""",key,null,16.6660000000004,480,500.5,"""","""","""","""","""","""","""","""","2021-10-04 16:43:11",142.114.128.39,"Mozilla/5.0 (Macintosh; Intel Mac OS X 10_15_7) AppleWebKit/537.36 (KHTML, like Gecko) Chrome/94.0.4606.61 Safari/537.36",Macintosh,Chrome,94.0.4606.61,"OS X",10_15_7,fe3c1d035a65c549f7011c5446f73ede
23,1,1626.8000000000466,arrowleft,psychophysics,55,172700,0.0-3.0-0.26,"""",key,arrowleft,16.66599999999984,480,500.5,27,1,-1,25,15,25,35,true,"2021-10-04 16:43:11",142.114.128.39,"Mozilla/5.0 (Macintosh; Intel Mac OS X 10_15_7) AppleWebKit/537.36 (KHTML, like Gecko) Chrome/94.0.4606.61 Safari/537.36",Macintosh,Chrome,94.0.4606.61,"OS X",10_15_7,fe3c1d035a65c549f7011c5446f73ede
23,1,null,null,psychophysics,56,173701,0.0-3.0-1.26,"""",key,null,16.665999999999904,480,500.5,"""","""","""","""","""","""","""","""","2021-10-04 16:43:11",142.114.128.39,"Mozilla/5.0 (Macintosh; Intel Mac OS X 10_15_7) AppleWebKit/537.36 (KHTML, like Gecko) Chrome/94.0.4606.61 Safari/537.36",Macintosh,Chrome,94.0.4606.61,"OS X",10_15_7,fe3c1d035a65c549f7011c5446f73ede
23,1,842.4000000000233,arrowleft,psychophysics,57,174548,0.0-3.0-0.27,"""",key,arrowleft,16.665999999999766,480,500.5,28,2,-1,30,15,25,35,true,"2021-10-04 16:43:11",142.114.128.39,"Mozilla/5.0 (Macintosh; Intel Mac OS X 10_15_7) AppleWebKit/537.36 (KHTML, like Gecko) Chrome/94.0.4606.61 Safari/537.36",Macintosh,Chrome,94.0.4606.61,"OS X",10_15_7,fe3c1d035a65c549f7011c5446f73ede
23,1,null,null,psychophysics,58,175551,0.0-3.0-1.27,"""",key,null,16.665999999999904,480,500.5,"""","""","""","""","""","""","""","""","2021-10-04 16:43:11",142.114.128.39,"Mozilla/5.0 (Macintosh; Intel Mac OS X 10_15_7) AppleWebKit/537.36 (KHTML, like Gecko) Chrome/94.0.4606.61 Safari/537.36",Macintosh,Chrome,94.0.4606.61,"OS X",10_15_7,fe3c1d035a65c549f7011c5446f73ede
23,1,760979.3999999999," ",html-keyboard-response,59,1029242,0.0-3.0-2.27-0.27,"<div style=""color: white; text-align: center; vertical-align: top; display: inline-block; width: 800px; margin: auto""><p>You have completed 10% of the trials. You are on block 2 of 10. <br>Good job! Take a break if you need to.</p><p>Press any key to continue the experiment.</p></div>","""","""","""","""","""","""","""","""","""","""","""","""","""","2021-10-04 16:43:11",142.114.128.39,"Mozilla/5.0 (Macintosh; Intel Mac OS X 10_15_7) AppleWebKit/537.36 (KHTML, like Gecko) Chrome/94.0.4606.61 Safari/537.36",Macintosh,Chrome,94.0.4606.61,"OS X",10_15_7,fe3c1d035a65c549f7011c5446f73ede
23,1,1107,arrowright,psychophysics,60,1031356,0.0-3.0-0.28,"""",key,arrowright,16.603731343282888,480,500.5,29,2,-1,20,35,25,35,false,"2021-10-04 16:43:11",142.114.128.39,"Mozilla/5.0 (Macintosh; Intel Mac OS X 10_15_7) AppleWebKit/537.36 (KHTML, like Gecko) Chrome/94.0.4606.61 Safari/537.36",Macintosh,Chrome,94.0.4606.61,"OS X",10_15_7,fe3c1d035a65c549f7011c5446f73ede
23,1,null,null,psychophysics,61,1032357,0.0-3.0-1.28,"""",key,null,16.665999999999904,480,500.5,"""","""","""","""","""","""","""","""","2021-10-04 16:43:11",142.114.128.39,"Mozilla/5.0 (Macintosh; Intel Mac OS X 10_15_7) AppleWebKit/537.36 (KHTML, like Gecko) Chrome/94.0.4606.61 Safari/537.36",Macintosh,Chrome,94.0.4606.61,"OS X",10_15_7,fe3c1d035a65c549f7011c5446f73ede
23,1,872.6999999999534,arrowright,psychophysics,62,1033232,0.0-3.0-0.29,"""",key,arrowright,16.665999999999677,480,500.5,30,2,-1,20,35,25,35,false,"2021-10-04 16:43:11",142.114.128.39,"Mozilla/5.0 (Macintosh; Intel Mac OS X 10_15_7) AppleWebKit/537.36 (KHTML, like Gecko) Chrome/94.0.4606.61 Safari/537.36",Macintosh,Chrome,94.0.4606.61,"OS X",10_15_7,fe3c1d035a65c549f7011c5446f73ede
23,1,null,null,psychophysics,63,1034234,0.0-3.0-1.29,"""",key,null,16.665999999999904,480,500.5,"""","""","""","""","""","""","""","""","2021-10-04 16:43:11",142.114.128.39,"Mozilla/5.0 (Macintosh; Intel Mac OS X 10_15_7) AppleWebKit/537.36 (KHTML, like Gecko) Chrome/94.0.4606.61 Safari/537.36",Macintosh,Chrome,94.0.4606.61,"OS X",10_15_7,fe3c1d035a65c549f7011c5446f73ede
23,1,2268.100000000093,arrowright,psychophysics,64,1036506,0.0-3.0-0.30,"""",key,arrowright,16.66599999999938,480,500.5,31,2,-1,23,15,25,35,false,"2021-10-04 16:43:11",142.114.128.39,"Mozilla/5.0 (Macintosh; Intel Mac OS X 10_15_7) AppleWebKit/537.36 (KHTML, like Gecko) Chrome/94.0.4606.61 Safari/537.36",Macintosh,Chrome,94.0.4606.61,"OS X",10_15_7,fe3c1d035a65c549f7011c5446f73ede
23,1,null,null,psychophysics,65,1037508,0.0-3.0-1.30,"""",key,null,16.665999999999904,480,500.5,"""","""","""","""","""","""","""","""","2021-10-04 16:43:11",142.114.128.39,"Mozilla/5.0 (Macintosh; Intel Mac OS X 10_15_7) AppleWebKit/537.36 (KHTML, like Gecko) Chrome/94.0.4606.61 Safari/537.36",Macintosh,Chrome,94.0.4606.61,"OS X",10_15_7,fe3c1d035a65c549f7011c5446f73ede
23,1,997.3999999999069,arrowright,psychophysics,66,1038512,0.0-3.0-0.31,"""",key,arrowright,16.948474576270556,480,500.5,32,2,-1,23,35,25,35,false,"2021-10-04 16:43:11",142.114.128.39,"Mozilla/5.0 (Macintosh; Intel Mac OS X 10_15_7) AppleWebKit/537.36 (KHTML, like Gecko) Chrome/94.0.4606.61 Safari/537.36",Macintosh,Chrome,94.0.4606.61,"OS X",10_15_7,fe3c1d035a65c549f7011c5446f73ede
23,1,null,null,psychophysics,67,1039514,0.0-3.0-1.31,"""",key,null,16.633203389829468,480,500.5,"""","""","""","""","""","""","""","""","2021-10-04 16:43:11",142.114.128.39,"Mozilla/5.0 (Macintosh; Intel Mac OS X 10_15_7) AppleWebKit/537.36 (KHTML, like Gecko) Chrome/94.0.4606.61 Safari/537.36",Macintosh,Chrome,94.0.4606.61,"OS X",10_15_7,fe3c1d035a65c549f7011c5446f73ede
23,1,799,arrowright,psychophysics,68,1040317,0.0-3.0-0.32,"""",key,arrowright,16.666000000000533,480,500.5,33,2,-1,20,15,25,35,false,"2021-10-04 16:43:11",142.114.128.39,"Mozilla/5.0 (Macintosh; Intel Mac OS X 10_15_7) AppleWebKit/537.36 (KHTML, like Gecko) Chrome/94.0.4606.61 Safari/537.36",Macintosh,Chrome,94.0.4606.61,"OS X",10_15_7,fe3c1d035a65c549f7011c5446f73ede
23,1,null,null,psychophysics,69,1041319,0.0-3.0-1.32,"""",key,null,16.665999999999904,480,500.5,"""","""","""","""","""","""","""","""","2021-10-04 16:43:11",142.114.128.39,"Mozilla/5.0 (Macintosh; Intel Mac OS X 10_15_7) AppleWebKit/537.36 (KHTML, like Gecko) Chrome/94.0.4606.61 Safari/537.36",Macintosh,Chrome,94.0.4606.61,"OS X",10_15_7,fe3c1d035a65c549f7011c5446f73ede
23,1,639.9000000001397,arrowleft,psychophysics,70,1041963,0.0-3.0-0.33,"""",key,arrowleft,16.66599999999897,480,500.5,34,2,1,20,15,25,35,false,"2021-10-04 16:43:11",142.114.128.39,"Mozilla/5.0 (Macintosh; Intel Mac OS X 10_15_7) AppleWebKit/537.36 (KHTML, like Gecko) Chrome/94.0.4606.61 Safari/537.36",Macintosh,Chrome,94.0.4606.61,"OS X",10_15_7,fe3c1d035a65c549f7011c5446f73ede
23,1,null,null,psychophysics,71,1042965,0.0-3.0-1.33,"""",key,null,16.665999999999904,480,500.5,"""","""","""","""","""","""","""","""","2021-10-04 16:43:11",142.114.128.39,"Mozilla/5.0 (Macintosh; Intel Mac OS X 10_15_7) AppleWebKit/537.36 (KHTML, like Gecko) Chrome/94.0.4606.61 Safari/537.36",Macintosh,Chrome,94.0.4606.61,"OS X",10_15_7,fe3c1d035a65c549f7011c5446f73ede
23,1,930.1000000000931,arrowleft,psychophysics,72,1043900,0.0-3.0-0.34,"""",key,arrowleft,16.666000000000086,480,500.5,35,2,-1,26,35,25,35,true,"2021-10-04 16:43:11",142.114.128.39,"Mozilla/5.0 (Macintosh; Intel Mac OS X 10_15_7) AppleWebKit/537.36 (KHTML, like Gecko) Chrome/94.0.4606.61 Safari/537.36",Macintosh,Chrome,94.0.4606.61,"OS X",10_15_7,fe3c1d035a65c549f7011c5446f73ede
23,1,null,null,psychophysics,73,1044901,0.0-3.0-1.34,"""",key,null,16.665999999999904,480,500.5,"""","""","""","""","""","""","""","""","2021-10-04 16:43:11",142.114.128.39,"Mozilla/5.0 (Macintosh; Intel Mac OS X 10_15_7) AppleWebKit/537.36 (KHTML, like Gecko) Chrome/94.0.4606.61 Safari/537.36",Macintosh,Chrome,94.0.4606.61,"OS X",10_15_7,fe3c1d035a65c549f7011c5446f73ede
23,1,776,arrowleft,psychophysics,74,1045679,0.0-3.0-0.35,"""",key,arrowleft,16.666000000001237,480,500.5,36,2,1,23,35,25,35,false,"2021-10-04 16:43:11",142.114.128.39,"Mozilla/5.0 (Macintosh; Intel Mac OS X 10_15_7) AppleWebKit/537.36 (KHTML, like Gecko) Chrome/94.0.4606.61 Safari/537.36",Macintosh,Chrome,94.0.4606.61,"OS X",10_15_7,fe3c1d035a65c549f7011c5446f73ede
23,1,null,null,psychophysics,75,1046681,0.0-3.0-1.35,"""",key,null,16.665999999999904,480,500.5,"""","""","""","""","""","""","""","""","2021-10-04 16:43:11",142.114.128.39,"Mozilla/5.0 (Macintosh; Intel Mac OS X 10_15_7) AppleWebKit/537.36 (KHTML, like Gecko) Chrome/94.0.4606.61 Safari/537.36",Macintosh,Chrome,94.0.4606.61,"OS X",10_15_7,fe3c1d035a65c549f7011c5446f73ede
23,1,1229.7000000001863,arrowleft,psychophysics,76,1047914,0.0-3.0-0.36,"""",key,arrowleft,16.66600000000023,480,500.5,37,2,-1,27,15,25,35,true,"2021-10-04 16:43:11",142.114.128.39,"Mozilla/5.0 (Macintosh; Intel Mac OS X 10_15_7) AppleWebKit/537.36 (KHTML, like Gecko) Chrome/94.0.4606.61 Safari/537.36",Macintosh,Chrome,94.0.4606.61,"OS X",10_15_7,fe3c1d035a65c549f7011c5446f73ede
23,1,null,null,psychophysics,77,1048915,0.0-3.0-1.36,"""",key,null,16.665999999999904,480,500.5,"""","""","""","""","""","""","""","""","2021-10-04 16:43:11",142.114.128.39,"Mozilla/5.0 (Macintosh; Intel Mac OS X 10_15_7) AppleWebKit/537.36 (KHTML, like Gecko) Chrome/94.0.4606.61 Safari/537.36",Macintosh,Chrome,94.0.4606.61,"OS X",10_15_7,fe3c1d035a65c549f7011c5446f73ede
23,1,738.0999999998603,arrowleft,psychophysics,78,1049657,0.0-3.0-0.37,"""",key,arrowleft,16.670534883720563,480,500.5,38,2,1,20,35,25,35,false,"2021-10-04 16:43:11",142.114.128.39,"Mozilla/5.0 (Macintosh; Intel Mac OS X 10_15_7) AppleWebKit/537.36 (KHTML, like Gecko) Chrome/94.0.4606.61 Safari/537.36",Macintosh,Chrome,94.0.4606.61,"OS X",10_15_7,fe3c1d035a65c549f7011c5446f73ede
23,1,null,null,psychophysics,79,1050659,0.0-3.0-1.37,"""",key,null,16.66600000000132,480,500.5,"""","""","""","""","""","""","""","""","2021-10-04 16:43:11",142.114.128.39,"Mozilla/5.0 (Macintosh; Intel Mac OS X 10_15_7) AppleWebKit/537.36 (KHTML, like Gecko) Chrome/94.0.4606.61 Safari/537.36",Macintosh,Chrome,94.0.4606.61,"OS X",10_15_7,fe3c1d035a65c549f7011c5446f73ede
23,1,1077.1000000000931,arrowleft,psychophysics,80,1051739,0.0-3.0-0.38,"""",key,arrowleft,16.665999999999748,480,500.5,39,2,1,23,35,25,35,false,"2021-10-04 16:43:11",142.114.128.39,"Mozilla/5.0 (Macintosh; Intel Mac OS X 10_15_7) AppleWebKit/537.36 (KHTML, like Gecko) Chrome/94.0.4606.61 Safari/537.36",Macintosh,Chrome,94.0.4606.61,"OS X",10_15_7,fe3c1d035a65c549f7011c5446f73ede
23,1,null,null,psychophysics,81,1052741,0.0-3.0-1.38,"""",key,null,16.665999999999904,480,500.5,"""","""","""","""","""","""","""","""","2021-10-04 16:43:11",142.114.128.39,"Mozilla/5.0 (Macintosh; Intel Mac OS X 10_15_7) AppleWebKit/537.36 (KHTML, like Gecko) Chrome/94.0.4606.61 Safari/537.36",Macintosh,Chrome,94.0.4606.61,"OS X",10_15_7,fe3c1d035a65c549f7011c5446f73ede
23,1,1009.3000000000466,arrowleft,psychophysics,82,1053758,0.0-3.0-0.39,"""",key,arrowleft,16.66599999999938,480,500.5,40,2,1,23,35,25,35,false,"2021-10-04 16:43:11",142.114.128.39,"Mozilla/5.0 (Macintosh; Intel Mac OS X 10_15_7) AppleWebKit/537.36 (KHTML, like Gecko) Chrome/94.0.4606.61 Safari/537.36",Macintosh,Chrome,94.0.4606.61,"OS X",10_15_7,fe3c1d035a65c549f7011c5446f73ede
23,1,null,null,psychophysics,83,1054759,0.0-3.0-1.39,"""",key,null,16.66600000000132,480,500.5,"""","""","""","""","""","""","""","""","2021-10-04 16:43:11",142.114.128.39,"Mozilla/5.0 (Macintosh; Intel Mac OS X 10_15_7) AppleWebKit/537.36 (KHTML, like Gecko) Chrome/94.0.4606.61 Safari/537.36",Macintosh,Chrome,94.0.4606.61,"OS X",10_15_7,fe3c1d035a65c549f7011c5446f73ede
23,1,930.5,arrowright,psychophysics,84,1055698,0.0-3.0-0.40,"""",key,arrowright,16.666000000000086,480,500.5,41,2,1,30,15,25,35,true,"2021-10-04 16:43:11",142.114.128.39,"Mozilla/5.0 (Macintosh; Intel Mac OS X 10_15_7) AppleWebKit/537.36 (KHTML, like Gecko) Chrome/94.0.4606.61 Safari/537.36",Macintosh,Chrome,94.0.4606.61,"OS X",10_15_7,fe3c1d035a65c549f7011c5446f73ede
23,1,null,null,psychophysics,85,1056699,0.0-3.0-1.40,"""",key,null,16.665999999999904,480,500.5,"""","""","""","""","""","""","""","""","2021-10-04 16:43:11",142.114.128.39,"Mozilla/5.0 (Macintosh; Intel Mac OS X 10_15_7) AppleWebKit/537.36 (KHTML, like Gecko) Chrome/94.0.4606.61 Safari/537.36",Macintosh,Chrome,94.0.4606.61,"OS X",10_15_7,fe3c1d035a65c549f7011c5446f73ede
23,1,1154.6000000000931,arrowleft,psychophysics,86,1057857,0.0-3.0-0.41,"""",key,arrowleft,16.666000000000864,480,500.5,42,2,-1,27,15,25,35,true,"2021-10-04 16:43:11",142.114.128.39,"Mozilla/5.0 (Macintosh; Intel Mac OS X 10_15_7) AppleWebKit/537.36 (KHTML, like Gecko) Chrome/94.0.4606.61 Safari/537.36",Macintosh,Chrome,94.0.4606.61,"OS X",10_15_7,fe3c1d035a65c549f7011c5446f73ede
23,1,null,null,psychophysics,87,1058860,0.0-3.0-1.41,"""",key,null,16.66599999999938,480,500.5,"""","""","""","""","""","""","""","""","2021-10-04 16:43:11",142.114.128.39,"Mozilla/5.0 (Macintosh; Intel Mac OS X 10_15_7) AppleWebKit/537.36 (KHTML, like Gecko) Chrome/94.0.4606.61 Safari/537.36",Macintosh,Chrome,94.0.4606.61,"OS X",10_15_7,fe3c1d035a65c549f7011c5446f73ede
23,1,2314.9000000001397,arrowright,psychophysics,88,1061177,0.0-3.0-0.42,"""",key,arrowright,16.667992753622904,480,500.5,43,2,-1,25,35,25,35,false,"2021-10-04 16:43:11",142.114.128.39,"Mozilla/5.0 (Macintosh; Intel Mac OS X 10_15_7) AppleWebKit/537.36 (KHTML, like Gecko) Chrome/94.0.4606.61 Safari/537.36",Macintosh,Chrome,94.0.4606.61,"OS X",10_15_7,fe3c1d035a65c549f7011c5446f73ede
23,1,null,null,psychophysics,89,1062182,0.0-3.0-1.42,"""",key,null,16.665999999999904,480,500.5,"""","""","""","""","""","""","""","""","2021-10-04 16:43:11",142.114.128.39,"Mozilla/5.0 (Macintosh; Intel Mac OS X 10_15_7) AppleWebKit/537.36 (KHTML, like Gecko) Chrome/94.0.4606.61 Safari/537.36",Macintosh,Chrome,94.0.4606.61,"OS X",10_15_7,fe3c1d035a65c549f7011c5446f73ede
23,1,2166.100000000093,arrowright,psychophysics,90,1064352,0.0-3.0-0.43,"""",key,arrowright,16.665999999999922,480,500.5,44,2,1,24,15,25,35,true,"2021-10-04 16:43:11",142.114.128.39,"Mozilla/5.0 (Macintosh; Intel Mac OS X 10_15_7) AppleWebKit/537.36 (KHTML, like Gecko) Chrome/94.0.4606.61 Safari/537.36",Macintosh,Chrome,94.0.4606.61,"OS X",10_15_7,fe3c1d035a65c549f7011c5446f73ede
23,1,null,null,psychophysics,91,1065353,0.0-3.0-1.43,"""",key,null,16.665999999999904,480,500.5,"""","""","""","""","""","""","""","""","2021-10-04 16:43:11",142.114.128.39,"Mozilla/5.0 (Macintosh; Intel Mac OS X 10_15_7) AppleWebKit/537.36 (KHTML, like Gecko) Chrome/94.0.4606.61 Safari/537.36",Macintosh,Chrome,94.0.4606.61,"OS X",10_15_7,fe3c1d035a65c549f7011c5446f73ede
23,1,1174.0999999998603,arrowleft,psychophysics,92,1066530,0.0-3.0-0.44,"""",key,arrowleft,16.665999999999933,480,500.5,45,2,-1,30,35,25,35,true,"2021-10-04 16:43:11",142.114.128.39,"Mozilla/5.0 (Macintosh; Intel Mac OS X 10_15_7) AppleWebKit/537.36 (KHTML, like Gecko) Chrome/94.0.4606.61 Safari/537.36",Macintosh,Chrome,94.0.4606.61,"OS X",10_15_7,fe3c1d035a65c549f7011c5446f73ede
23,1,null,null,psychophysics,93,1067531,0.0-3.0-1.44,"""",key,null,16.665999999999904,480,500.5,"""","""","""","""","""","""","""","""","2021-10-04 16:43:11",142.114.128.39,"Mozilla/5.0 (Macintosh; Intel Mac OS X 10_15_7) AppleWebKit/537.36 (KHTML, like Gecko) Chrome/94.0.4606.61 Safari/537.36",Macintosh,Chrome,94.0.4606.61,"OS X",10_15_7,fe3c1d035a65c549f7011c5446f73ede
23,1,2524.5,arrowright,psychophysics,94,1070062,0.0-3.0-0.45,"""",key,arrowright,16.66781456953621,480,500.5,46,2,-1,25,15,25,35,false,"2021-10-04 16:43:11",142.114.128.39,"Mozilla/5.0 (Macintosh; Intel Mac OS X 10_15_7) AppleWebKit/537.36 (KHTML, like Gecko) Chrome/94.0.4606.61 Safari/537.36",Macintosh,Chrome,94.0.4606.61,"OS X",10_15_7,fe3c1d035a65c549f7011c5446f73ede
23,1,null,null,psychophysics,95,1071064,0.0-3.0-1.45,"""",key,null,16.66600000000188,480,500.5,"""","""","""","""","""","""","""","""","2021-10-04 16:43:11",142.114.128.39,"Mozilla/5.0 (Macintosh; Intel Mac OS X 10_15_7) AppleWebKit/537.36 (KHTML, like Gecko) Chrome/94.0.4606.61 Safari/537.36",Macintosh,Chrome,94.0.4606.61,"OS X",10_15_7,fe3c1d035a65c549f7011c5446f73ede
23,1,1171.5,arrowleft,psychophysics,96,1072238,0.0-3.0-0.46,"""",key,arrowleft,16.66600000000039,480,500.5,47,2,-1,27,15,25,35,true,"2021-10-04 16:43:11",142.114.128.39,"Mozilla/5.0 (Macintosh; Intel Mac OS X 10_15_7) AppleWebKit/537.36 (KHTML, like Gecko) Chrome/94.0.4606.61 Safari/537.36",Macintosh,Chrome,94.0.4606.61,"OS X",10_15_7,fe3c1d035a65c549f7011c5446f73ede
23,1,null,null,psychophysics,97,1073240,0.0-3.0-1.46,"""",key,null,16.665999999999904,480,500.5,"""","""","""","""","""","""","""","""","2021-10-04 16:43:11",142.114.128.39,"Mozilla/5.0 (Macintosh; Intel Mac OS X 10_15_7) AppleWebKit/537.36 (KHTML, like Gecko) Chrome/94.0.4606.61 Safari/537.36",Macintosh,Chrome,94.0.4606.61,"OS X",10_15_7,fe3c1d035a65c549f7011c5446f73ede
23,1,818.7999999998137,arrowright,psychophysics,98,1074068,0.0-3.0-0.47,"""",key,arrowright,16.665999999999222,480,500.5,48,2,-1,20,15,25,35,false,"2021-10-04 16:43:11",142.114.128.39,"Mozilla/5.0 (Macintosh; Intel Mac OS X 10_15_7) AppleWebKit/537.36 (KHTML, like Gecko) Chrome/94.0.4606.61 Safari/537.36",Macintosh,Chrome,94.0.4606.61,"OS X",10_15_7,fe3c1d035a65c549f7011c5446f73ede
23,1,null,null,psychophysics,99,1075069,0.0-3.0-1.47,"""",key,null,16.665999999999904,480,500.5,"""","""","""","""","""","""","""","""","2021-10-04 16:43:11",142.114.128.39,"Mozilla/5.0 (Macintosh; Intel Mac OS X 10_15_7) AppleWebKit/537.36 (KHTML, like Gecko) Chrome/94.0.4606.61 Safari/537.36",Macintosh,Chrome,94.0.4606.61,"OS X",10_15_7,fe3c1d035a65c549f7011c5446f73ede
23,1,2473.4000000001397,arrowright,psychophysics,100,1077546,0.0-3.0-0.48,"""",key,arrowright,16.665999999999798,480,500.5,49,2,1,25,15,25,35,true,"2021-10-04 16:43:11",142.114.128.39,"Mozilla/5.0 (Macintosh; Intel Mac OS X 10_15_7) AppleWebKit/537.36 (KHTML, like Gecko) Chrome/94.0.4606.61 Safari/537.36",Macintosh,Chrome,94.0.4606.61,"OS X",10_15_7,fe3c1d035a65c549f7011c5446f73ede
23,1,null,null,psychophysics,101,1078547,0.0-3.0-1.48,"""",key,null,16.665999999999904,480,500.5,"""","""","""","""","""","""","""","""","2021-10-04 16:43:11",142.114.128.39,"Mozilla/5.0 (Macintosh; Intel Mac OS X 10_15_7) AppleWebKit/537.36 (KHTML, like Gecko) Chrome/94.0.4606.61 Safari/537.36",Macintosh,Chrome,94.0.4606.61,"OS X",10_15_7,fe3c1d035a65c549f7011c5446f73ede
23,1,1446.3000000000466,arrowleft,psychophysics,102,1079996,0.0-3.0-0.49,"""",key,arrowleft,16.668930232558715,480,500.5,50,2,1,24,15,25,35,false,"2021-10-04 16:43:11",142.114.128.39,"Mozilla/5.0 (Macintosh; Intel Mac OS X 10_15_7) AppleWebKit/537.36 (KHTML, like Gecko) Chrome/94.0.4606.61 Safari/537.36",Macintosh,Chrome,94.0.4606.61,"OS X",10_15_7,fe3c1d035a65c549f7011c5446f73ede
23,1,null,null,psychophysics,103,1081000,0.0-3.0-1.49,"""",key,null,16.665999999999904,480,500.5,"""","""","""","""","""","""","""","""","2021-10-04 16:43:11",142.114.128.39,"Mozilla/5.0 (Macintosh; Intel Mac OS X 10_15_7) AppleWebKit/537.36 (KHTML, like Gecko) Chrome/94.0.4606.61 Safari/537.36",Macintosh,Chrome,94.0.4606.61,"OS X",10_15_7,fe3c1d035a65c549f7011c5446f73ede
23,1,1639.8999999999069,arrowright,psychophysics,104,1082644,0.0-3.0-0.50,"""",key,arrowright,16.66600000000041,480,500.5,51,2,-1,25,35,25,35,false,"2021-10-04 16:43:11",142.114.128.39,"Mozilla/5.0 (Macintosh; Intel Mac OS X 10_15_7) AppleWebKit/537.36 (KHTML, like Gecko) Chrome/94.0.4606.61 Safari/537.36",Macintosh,Chrome,94.0.4606.61,"OS X",10_15_7,fe3c1d035a65c549f7011c5446f73ede
23,1,null,null,psychophysics,105,1083646,0.0-3.0-1.50,"""",key,null,16.665999999999904,480,500.5,"""","""","""","""","""","""","""","""","2021-10-04 16:43:11",142.114.128.39,"Mozilla/5.0 (Macintosh; Intel Mac OS X 10_15_7) AppleWebKit/537.36 (KHTML, like Gecko) Chrome/94.0.4606.61 Safari/537.36",Macintosh,Chrome,94.0.4606.61,"OS X",10_15_7,fe3c1d035a65c549f7011c5446f73ede
23,1,1432,arrowleft,psychophysics,106,1085081,0.0-3.0-0.51,"""",key,arrowleft,16.665999999999837,480,500.5,52,2,1,25,15,25,35,false,"2021-10-04 16:43:11",142.114.128.39,"Mozilla/5.0 (Macintosh; Intel Mac OS X 10_15_7) AppleWebKit/537.36 (KHTML, like Gecko) Chrome/94.0.4606.61 Safari/537.36",Macintosh,Chrome,94.0.4606.61,"OS X",10_15_7,fe3c1d035a65c549f7011c5446f73ede
23,1,null,null,psychophysics,107,1086082,0.0-3.0-1.51,"""",key,null,16.665999999999904,480,500.5,"""","""","""","""","""","""","""","""","2021-10-04 16:43:11",142.114.128.39,"Mozilla/5.0 (Macintosh; Intel Mac OS X 10_15_7) AppleWebKit/537.36 (KHTML, like Gecko) Chrome/94.0.4606.61 Safari/537.36",Macintosh,Chrome,94.0.4606.61,"OS X",10_15_7,fe3c1d035a65c549f7011c5446f73ede
23,1,834.5999999998603,arrowleft,psychophysics,108,1086924,0.0-3.0-0.52,"""",key,arrowleft,16.665999999999222,480,500.5,53,2,1,20,35,25,35,false,"2021-10-04 16:43:11",142.114.128.39,"Mozilla/5.0 (Macintosh; Intel Mac OS X 10_15_7) AppleWebKit/537.36 (KHTML, like Gecko) Chrome/94.0.4606.61 Safari/537.36",Macintosh,Chrome,94.0.4606.61,"OS X",10_15_7,fe3c1d035a65c549f7011c5446f73ede
23,1,null,null,psychophysics,109,1087926,0.0-3.0-1.52,"""",key,null,16.66599999999938,480,500.5,"""","""","""","""","""","""","""","""","2021-10-04 16:43:11",142.114.128.39,"Mozilla/5.0 (Macintosh; Intel Mac OS X 10_15_7) AppleWebKit/537.36 (KHTML, like Gecko) Chrome/94.0.4606.61 Safari/537.36",Macintosh,Chrome,94.0.4606.61,"OS X",10_15_7,fe3c1d035a65c549f7011c5446f73ede
23,1,1793.9000000001397,arrowright,psychophysics,110,1089724,0.0-3.0-0.53,"""",key,arrowright,16.668528301887356,480,500.5,54,2,1,24,35,25,35,true,"2021-10-04 16:43:11",142.114.128.39,"Mozilla/5.0 (Macintosh; Intel Mac OS X 10_15_7) AppleWebKit/537.36 (KHTML, like Gecko) Chrome/94.0.4606.61 Safari/537.36",Macintosh,Chrome,94.0.4606.61,"OS X",10_15_7,fe3c1d035a65c549f7011c5446f73ede
23,1,null,null,psychophysics,111,1090726,0.0-3.0-1.53,"""",key,null,16.66599999999938,480,500.5,"""","""","""","""","""","""","""","""","2021-10-04 16:43:11",142.114.128.39,"Mozilla/5.0 (Macintosh; Intel Mac OS X 10_15_7) AppleWebKit/537.36 (KHTML, like Gecko) Chrome/94.0.4606.61 Safari/537.36",Macintosh,Chrome,94.0.4606.61,"OS X",10_15_7,fe3c1d035a65c549f7011c5446f73ede
23,1,956.0999999998603,arrowright,psychophysics,112,1091684,0.0-3.0-0.54,"""",key,arrowright,16.665999999999517,480,500.5,55,2,1,26,15,25,35,true,"2021-10-04 16:43:11",142.114.128.39,"Mozilla/5.0 (Macintosh; Intel Mac OS X 10_15_7) AppleWebKit/537.36 (KHTML, like Gecko) Chrome/94.0.4606.61 Safari/537.36",Macintosh,Chrome,94.0.4606.61,"OS X",10_15_7,fe3c1d035a65c549f7011c5446f73ede
23,1,null,null,psychophysics,113,1092689,0.0-3.0-1.54,"""",key,null,16.665999999999904,480,500.5,"""","""","""","""","""","""","""","""","2021-10-04 16:43:11",142.114.128.39,"Mozilla/5.0 (Macintosh; Intel Mac OS X 10_15_7) AppleWebKit/537.36 (KHTML, like Gecko) Chrome/94.0.4606.61 Safari/537.36",Macintosh,Chrome,94.0.4606.61,"OS X",10_15_7,fe3c1d035a65c549f7011c5446f73ede
23,1,1632.6000000000931,arrowleft,psychophysics,114,1094329,0.0-3.0-0.55,"""",key,arrowleft,16.66600000000041,480,500.5,56,3,1,23,35,25,35,false,"2021-10-04 16:43:11",142.114.128.39,"Mozilla/5.0 (Macintosh; Intel Mac OS X 10_15_7) AppleWebKit/537.36 (KHTML, like Gecko) Chrome/94.0.4606.61 Safari/537.36",Macintosh,Chrome,94.0.4606.61,"OS X",10_15_7,fe3c1d035a65c549f7011c5446f73ede
23,1,null,null,psychophysics,115,1095331,0.0-3.0-1.55,"""",key,null,16.665999999999904,480,500.5,"""","""","""","""","""","""","""","""","2021-10-04 16:43:11",142.114.128.39,"Mozilla/5.0 (Macintosh; Intel Mac OS X 10_15_7) AppleWebKit/537.36 (KHTML, like Gecko) Chrome/94.0.4606.61 Safari/537.36",Macintosh,Chrome,94.0.4606.61,"OS X",10_15_7,fe3c1d035a65c549f7011c5446f73ede
23,1,1278.8000000000466," ",html-keyboard-response,116,1096611,0.0-3.0-2.55-0.55,"<div style=""color: white; text-align: center; vertical-align: top; display: inline-block; width: 800px; margin: auto""><p>You have completed 20% of the trials. You are on block 3 of 10. <br>Good job! Take a break if you need to.</p><p>Press any key to continue the experiment.</p></div>","""","""","""","""","""","""","""","""","""","""","""","""","""","2021-10-04 16:43:11",142.114.128.39,"Mozilla/5.0 (Macintosh; Intel Mac OS X 10_15_7) AppleWebKit/537.36 (KHTML, like Gecko) Chrome/94.0.4606.61 Safari/537.36",Macintosh,Chrome,94.0.4606.61,"OS X",10_15_7,fe3c1d035a65c549f7011c5446f73ede
23,1,1362.1999999999534,arrowright,psychophysics,117,1098982,0.0-3.0-0.56,"""",key,arrowright,16.665999999999567,480,500.5,57,3,1,27,35,25,35,true,"2021-10-04 16:43:11",142.114.128.39,"Mozilla/5.0 (Macintosh; Intel Mac OS X 10_15_7) AppleWebKit/537.36 (KHTML, like Gecko) Chrome/94.0.4606.61 Safari/537.36",Macintosh,Chrome,94.0.4606.61,"OS X",10_15_7,fe3c1d035a65c549f7011c5446f73ede
23,1,null,null,psychophysics,118,1099985,0.0-3.0-1.56,"""",key,null,16.671525423728735,480,500.5,"""","""","""","""","""","""","""","""","2021-10-04 16:43:11",142.114.128.39,"Mozilla/5.0 (Macintosh; Intel Mac OS X 10_15_7) AppleWebKit/537.36 (KHTML, like Gecko) Chrome/94.0.4606.61 Safari/537.36",Macintosh,Chrome,94.0.4606.61,"OS X",10_15_7,fe3c1d035a65c549f7011c5446f73ede
23,1,1359.3000000000466,arrowleft,psychophysics,119,1101348,0.0-3.0-0.57,"""",key,arrowleft,16.665999999999954,480,500.5,58,3,-1,26,35,25,35,true,"2021-10-04 16:43:11",142.114.128.39,"Mozilla/5.0 (Macintosh; Intel Mac OS X 10_15_7) AppleWebKit/537.36 (KHTML, like Gecko) Chrome/94.0.4606.61 Safari/537.36",Macintosh,Chrome,94.0.4606.61,"OS X",10_15_7,fe3c1d035a65c549f7011c5446f73ede
23,1,null,null,psychophysics,120,1102349,0.0-3.0-1.57,"""",key,null,16.665999999999904,480,500.5,"""","""","""","""","""","""","""","""","2021-10-04 16:43:11",142.114.128.39,"Mozilla/5.0 (Macintosh; Intel Mac OS X 10_15_7) AppleWebKit/537.36 (KHTML, like Gecko) Chrome/94.0.4606.61 Safari/537.36",Macintosh,Chrome,94.0.4606.61,"OS X",10_15_7,fe3c1d035a65c549f7011c5446f73ede
23,1,1527.2000000001863,arrowleft,psychophysics,121,1103880,0.0-3.0-0.58,"""",key,arrowleft,16.666000000000317,480,500.5,59,3,-1,25,15,25,35,true,"2021-10-04 16:43:11",142.114.128.39,"Mozilla/5.0 (Macintosh; Intel Mac OS X 10_15_7) AppleWebKit/537.36 (KHTML, like Gecko) Chrome/94.0.4606.61 Safari/537.36",Macintosh,Chrome,94.0.4606.61,"OS X",10_15_7,fe3c1d035a65c549f7011c5446f73ede
23,1,null,null,psychophysics,122,1104881,0.0-3.0-1.58,"""",key,null,16.665999999999904,480,500.5,"""","""","""","""","""","""","""","""","2021-10-04 16:43:11",142.114.128.39,"Mozilla/5.0 (Macintosh; Intel Mac OS X 10_15_7) AppleWebKit/537.36 (KHTML, like Gecko) Chrome/94.0.4606.61 Safari/537.36",Macintosh,Chrome,94.0.4606.61,"OS X",10_15_7,fe3c1d035a65c549f7011c5446f73ede
23,1,1182.8000000000466,arrowleft,psychophysics,123,1106071,0.0-3.0-0.59,"""",key,arrowleft,16.665999999999933,480,500.5,60,3,-1,27,15,25,35,true,"2021-10-04 16:43:11",142.114.128.39,"Mozilla/5.0 (Macintosh; Intel Mac OS X 10_15_7) AppleWebKit/537.36 (KHTML, like Gecko) Chrome/94.0.4606.61 Safari/537.36",Macintosh,Chrome,94.0.4606.61,"OS X",10_15_7,fe3c1d035a65c549f7011c5446f73ede
23,1,null,null,psychophysics,124,1107074,0.0-3.0-1.59,"""",key,null,16.665999999999904,480,500.5,"""","""","""","""","""","""","""","""","2021-10-04 16:43:11",142.114.128.39,"Mozilla/5.0 (Macintosh; Intel Mac OS X 10_15_7) AppleWebKit/537.36 (KHTML, like Gecko) Chrome/94.0.4606.61 Safari/537.36",Macintosh,Chrome,94.0.4606.61,"OS X",10_15_7,fe3c1d035a65c549f7011c5446f73ede
23,1,4664.800000000047,arrowright,psychophysics,125,1111745,0.0-3.0-0.60,"""",key,arrowright,16.666721428571535,480,500.5,61,3,1,26,15,25,35,true,"2021-10-04 16:43:11",142.114.128.39,"Mozilla/5.0 (Macintosh; Intel Mac OS X 10_15_7) AppleWebKit/537.36 (KHTML, like Gecko) Chrome/94.0.4606.61 Safari/537.36",Macintosh,Chrome,94.0.4606.61,"OS X",10_15_7,fe3c1d035a65c549f7011c5446f73ede
23,1,null,null,psychophysics,126,1112749,0.0-3.0-1.60,"""",key,null,16.665999999999904,480,500.5,"""","""","""","""","""","""","""","""","2021-10-04 16:43:11",142.114.128.39,"Mozilla/5.0 (Macintosh; Intel Mac OS X 10_15_7) AppleWebKit/537.36 (KHTML, like Gecko) Chrome/94.0.4606.61 Safari/537.36",Macintosh,Chrome,94.0.4606.61,"OS X",10_15_7,fe3c1d035a65c549f7011c5446f73ede
23,1,2585.7000000001863,arrowleft,psychophysics,127,1115338,0.0-3.0-0.61,"""",key,arrowleft,16.666000000000086,480,500.5,62,3,1,25,15,25,35,false,"2021-10-04 16:43:11",142.114.128.39,"Mozilla/5.0 (Macintosh; Intel Mac OS X 10_15_7) AppleWebKit/537.36 (KHTML, like Gecko) Chrome/94.0.4606.61 Safari/537.36",Macintosh,Chrome,94.0.4606.61,"OS X",10_15_7,fe3c1d035a65c549f7011c5446f73ede
23,1,null,null,psychophysics,128,1116343,0.0-3.0-1.61,"""",key,null,16.66599999999938,480,500.5,"""","""","""","""","""","""","""","""","2021-10-04 16:43:11",142.114.128.39,"Mozilla/5.0 (Macintosh; Intel Mac OS X 10_15_7) AppleWebKit/537.36 (KHTML, like Gecko) Chrome/94.0.4606.61 Safari/537.36",Macintosh,Chrome,94.0.4606.61,"OS X",10_15_7,fe3c1d035a65c549f7011c5446f73ede
23,1,2135.5,arrowright,psychophysics,129,1118481,0.0-3.0-0.62,"""",key,arrowright,16.66600000000042,480,500.5,63,3,1,30,35,25,35,true,"2021-10-04 16:43:11",142.114.128.39,"Mozilla/5.0 (Macintosh; Intel Mac OS X 10_15_7) AppleWebKit/537.36 (KHTML, like Gecko) Chrome/94.0.4606.61 Safari/537.36",Macintosh,Chrome,94.0.4606.61,"OS X",10_15_7,fe3c1d035a65c549f7011c5446f73ede
23,1,null,null,psychophysics,130,1119485,0.0-3.0-1.62,"""",key,null,16.665999999999904,480,500.5,"""","""","""","""","""","""","""","""","2021-10-04 16:43:11",142.114.128.39,"Mozilla/5.0 (Macintosh; Intel Mac OS X 10_15_7) AppleWebKit/537.36 (KHTML, like Gecko) Chrome/94.0.4606.61 Safari/537.36",Macintosh,Chrome,94.0.4606.61,"OS X",10_15_7,fe3c1d035a65c549f7011c5446f73ede
23,1,1604.8000000000466,arrowright,psychophysics,131,1121094,0.0-3.0-0.63,"""",key,arrowright,16.668812500000058,480,500.5,64,3,1,27,35,25,35,true,"2021-10-04 16:43:11",142.114.128.39,"Mozilla/5.0 (Macintosh; Intel Mac OS X 10_15_7) AppleWebKit/537.36 (KHTML, like Gecko) Chrome/94.0.4606.61 Safari/537.36",Macintosh,Chrome,94.0.4606.61,"OS X",10_15_7,fe3c1d035a65c549f7011c5446f73ede
23,1,null,null,psychophysics,132,1122096,0.0-3.0-1.63,"""",key,null,16.665999999999904,480,500.5,"""","""","""","""","""","""","""","""","2021-10-04 16:43:11",142.114.128.39,"Mozilla/5.0 (Macintosh; Intel Mac OS X 10_15_7) AppleWebKit/537.36 (KHTML, like Gecko) Chrome/94.0.4606.61 Safari/537.36",Macintosh,Chrome,94.0.4606.61,"OS X",10_15_7,fe3c1d035a65c549f7011c5446f73ede
23,1,1946.3000000000466,arrowleft,psychophysics,133,1124046,0.0-3.0-0.64,"""",key,arrowleft,16.665999999999446,480,500.5,65,3,1,23,15,25,35,false,"2021-10-04 16:43:11",142.114.128.39,"Mozilla/5.0 (Macintosh; Intel Mac OS X 10_15_7) AppleWebKit/537.36 (KHTML, like Gecko) Chrome/94.0.4606.61 Safari/537.36",Macintosh,Chrome,94.0.4606.61,"OS X",10_15_7,fe3c1d035a65c549f7011c5446f73ede
23,1,null,null,psychophysics,134,1125049,0.0-3.0-1.64,"""",key,null,16.665999999999904,480,500.5,"""","""","""","""","""","""","""","""","2021-10-04 16:43:11",142.114.128.39,"Mozilla/5.0 (Macintosh; Intel Mac OS X 10_15_7) AppleWebKit/537.36 (KHTML, like Gecko) Chrome/94.0.4606.61 Safari/537.36",Macintosh,Chrome,94.0.4606.61,"OS X",10_15_7,fe3c1d035a65c549f7011c5446f73ede
23,1,3949.899999999907,arrowright,psychophysics,135,1129002,0.0-3.0-0.65,"""",key,arrowright,16.665999999999904,480,500.5,66,3,-1,23,15,25,35,false,"2021-10-04 16:43:11",142.114.128.39,"Mozilla/5.0 (Macintosh; Intel Mac OS X 10_15_7) AppleWebKit/537.36 (KHTML, like Gecko) Chrome/94.0.4606.61 Safari/537.36",Macintosh,Chrome,94.0.4606.61,"OS X",10_15_7,fe3c1d035a65c549f7011c5446f73ede
23,1,null,null,psychophysics,136,1130003,0.0-3.0-1.65,"""",key,null,16.67106779661006,480,500.5,"""","""","""","""","""","""","""","""","2021-10-04 16:43:11",142.114.128.39,"Mozilla/5.0 (Macintosh; Intel Mac OS X 10_15_7) AppleWebKit/537.36 (KHTML, like Gecko) Chrome/94.0.4606.61 Safari/537.36",Macintosh,Chrome,94.0.4606.61,"OS X",10_15_7,fe3c1d035a65c549f7011c5446f73ede
23,1,845.9000000001397,arrowright,psychophysics,137,1130857,0.0-3.0-0.66,"""",key,arrowright,16.665999999998604,480,500.5,67,3,1,30,35,25,35,true,"2021-10-04 16:43:11",142.114.128.39,"Mozilla/5.0 (Macintosh; Intel Mac OS X 10_15_7) AppleWebKit/537.36 (KHTML, like Gecko) Chrome/94.0.4606.61 Safari/537.36",Macintosh,Chrome,94.0.4606.61,"OS X",10_15_7,fe3c1d035a65c549f7011c5446f73ede
23,1,null,null,psychophysics,138,1131858,0.0-3.0-1.66,"""",key,null,16.66599999999938,480,500.5,"""","""","""","""","""","""","""","""","2021-10-04 16:43:11",142.114.128.39,"Mozilla/5.0 (Macintosh; Intel Mac OS X 10_15_7) AppleWebKit/537.36 (KHTML, like Gecko) Chrome/94.0.4606.61 Safari/537.36",Macintosh,Chrome,94.0.4606.61,"OS X",10_15_7,fe3c1d035a65c549f7011c5446f73ede
23,1,1652.1000000000931,arrowright,psychophysics,139,1133513,0.0-3.0-0.67,"""",key,arrowright,16.66600000000041,480,500.5,68,3,1,27,35,25,35,true,"2021-10-04 16:43:11",142.114.128.39,"Mozilla/5.0 (Macintosh; Intel Mac OS X 10_15_7) AppleWebKit/537.36 (KHTML, like Gecko) Chrome/94.0.4606.61 Safari/537.36",Macintosh,Chrome,94.0.4606.61,"OS X",10_15_7,fe3c1d035a65c549f7011c5446f73ede
23,1,null,null,psychophysics,140,1134515,0.0-3.0-1.67,"""",key,null,16.665999999999904,480,500.5,"""","""","""","""","""","""","""","""","2021-10-04 16:43:11",142.114.128.39,"Mozilla/5.0 (Macintosh; Intel Mac OS X 10_15_7) AppleWebKit/537.36 (KHTML, like Gecko) Chrome/94.0.4606.61 Safari/537.36",Macintosh,Chrome,94.0.4606.61,"OS X",10_15_7,fe3c1d035a65c549f7011c5446f73ede
23,1,1959.1000000000931,arrowright,psychophysics,141,1136478,0.0-3.0-0.68,"""",key,arrowright,16.66599999999918,480,500.5,69,3,1,25,35,25,35,true,"2021-10-04 16:43:11",142.114.128.39,"Mozilla/5.0 (Macintosh; Intel Mac OS X 10_15_7) AppleWebKit/537.36 (KHTML, like Gecko) Chrome/94.0.4606.61 Safari/537.36",Macintosh,Chrome,94.0.4606.61,"OS X",10_15_7,fe3c1d035a65c549f7011c5446f73ede
23,1,null,null,psychophysics,142,1137483,0.0-3.0-1.68,"""",key,null,16.665999999999904,480,500.5,"""","""","""","""","""","""","""","""","2021-10-04 16:43:11",142.114.128.39,"Mozilla/5.0 (Macintosh; Intel Mac OS X 10_15_7) AppleWebKit/537.36 (KHTML, like Gecko) Chrome/94.0.4606.61 Safari/537.36",Macintosh,Chrome,94.0.4606.61,"OS X",10_15_7,fe3c1d035a65c549f7011c5446f73ede
23,1,910.8999999999069,arrowleft,psychophysics,143,1138398,0.0-3.0-0.69,"""",key,arrowleft,16.666000000000672,480,500.5,70,3,1,20,35,25,35,false,"2021-10-04 16:43:11",142.114.128.39,"Mozilla/5.0 (Macintosh; Intel Mac OS X 10_15_7) AppleWebKit/537.36 (KHTML, like Gecko) Chrome/94.0.4606.61 Safari/537.36",Macintosh,Chrome,94.0.4606.61,"OS X",10_15_7,fe3c1d035a65c549f7011c5446f73ede
23,1,null,null,psychophysics,144,1139400,0.0-3.0-1.69,"""",key,null,16.665999999999904,480,500.5,"""","""","""","""","""","""","""","""","2021-10-04 16:43:11",142.114.128.39,"Mozilla/5.0 (Macintosh; Intel Mac OS X 10_15_7) AppleWebKit/537.36 (KHTML, like Gecko) Chrome/94.0.4606.61 Safari/537.36",Macintosh,Chrome,94.0.4606.61,"OS X",10_15_7,fe3c1d035a65c549f7011c5446f73ede
23,1,1030.0999999999767,arrowleft,psychophysics,145,1140435,0.0-3.0-0.70,"""",key,arrowleft,16.66981967213205,480,500.5,71,3,1,25,15,25,35,false,"2021-10-04 16:43:11",142.114.128.39,"Mozilla/5.0 (Macintosh; Intel Mac OS X 10_15_7) AppleWebKit/537.36 (KHTML, like Gecko) Chrome/94.0.4606.61 Safari/537.36",Macintosh,Chrome,94.0.4606.61,"OS X",10_15_7,fe3c1d035a65c549f7011c5446f73ede
23,1,null,null,psychophysics,146,1141436,0.0-3.0-1.70,"""",key,null,16.665999999999904,480,500.5,"""","""","""","""","""","""","""","""","2021-10-04 16:43:11",142.114.128.39,"Mozilla/5.0 (Macintosh; Intel Mac OS X 10_15_7) AppleWebKit/537.36 (KHTML, like Gecko) Chrome/94.0.4606.61 Safari/537.36",Macintosh,Chrome,94.0.4606.61,"OS X",10_15_7,fe3c1d035a65c549f7011c5446f73ede
23,1,1868.5,arrowright,psychophysics,147,1143309,0.0-3.0-0.71,"""",key,arrowright,16.665999999999517,480,500.5,72,3,1,27,35,25,35,true,"2021-10-04 16:43:11",142.114.128.39,"Mozilla/5.0 (Macintosh; Intel Mac OS X 10_15_7) AppleWebKit/537.36 (KHTML, like Gecko) Chrome/94.0.4606.61 Safari/537.36",Macintosh,Chrome,94.0.4606.61,"OS X",10_15_7,fe3c1d035a65c549f7011c5446f73ede
23,1,null,null,psychophysics,148,1144312,0.0-3.0-1.71,"""",key,null,16.665999999999904,480,500.5,"""","""","""","""","""","""","""","""","2021-10-04 16:43:11",142.114.128.39,"Mozilla/5.0 (Macintosh; Intel Mac OS X 10_15_7) AppleWebKit/537.36 (KHTML, like Gecko) Chrome/94.0.4606.61 Safari/537.36",Macintosh,Chrome,94.0.4606.61,"OS X",10_15_7,fe3c1d035a65c549f7011c5446f73ede
23,1,1112.5,arrowleft,psychophysics,149,1145428,0.0-3.0-0.72,"""",key,arrowleft,16.666000000000086,480,500.5,73,3,-1,27,35,25,35,true,"2021-10-04 16:43:11",142.114.128.39,"Mozilla/5.0 (Macintosh; Intel Mac OS X 10_15_7) AppleWebKit/537.36 (KHTML, like Gecko) Chrome/94.0.4606.61 Safari/537.36",Macintosh,Chrome,94.0.4606.61,"OS X",10_15_7,fe3c1d035a65c549f7011c5446f73ede
23,1,null,null,psychophysics,150,1146429,0.0-3.0-1.72,"""",key,null,16.665999999999904,480,500.5,"""","""","""","""","""","""","""","""","2021-10-04 16:43:11",142.114.128.39,"Mozilla/5.0 (Macintosh; Intel Mac OS X 10_15_7) AppleWebKit/537.36 (KHTML, like Gecko) Chrome/94.0.4606.61 Safari/537.36",Macintosh,Chrome,94.0.4606.61,"OS X",10_15_7,fe3c1d035a65c549f7011c5446f73ede
23,1,1023,arrowleft,psychophysics,151,1147455,0.0-3.0-0.73,"""",key,arrowleft,16.66599999999938,480,500.5,74,3,1,20,15,25,35,false,"2021-10-04 16:43:11",142.114.128.39,"Mozilla/5.0 (Macintosh; Intel Mac OS X 10_15_7) AppleWebKit/537.36 (KHTML, like Gecko) Chrome/94.0.4606.61 Safari/537.36",Macintosh,Chrome,94.0.4606.61,"OS X",10_15_7,fe3c1d035a65c549f7011c5446f73ede
23,1,null,null,psychophysics,152,1148456,0.0-3.0-1.73,"""",key,null,16.665999999999904,480,500.5,"""","""","""","""","""","""","""","""","2021-10-04 16:43:11",142.114.128.39,"Mozilla/5.0 (Macintosh; Intel Mac OS X 10_15_7) AppleWebKit/537.36 (KHTML, like Gecko) Chrome/94.0.4606.61 Safari/537.36",Macintosh,Chrome,94.0.4606.61,"OS X",10_15_7,fe3c1d035a65c549f7011c5446f73ede
23,1,887.8000000002794,arrowleft,psychophysics,153,1149348,0.0-3.0-0.74,"""",key,arrowleft,16.66600000000348,480,500.5,75,3,-1,30,35,25,35,true,"2021-10-04 16:43:11",142.114.128.39,"Mozilla/5.0 (Macintosh; Intel Mac OS X 10_15_7) AppleWebKit/537.36 (KHTML, like Gecko) Chrome/94.0.4606.61 Safari/537.36",Macintosh,Chrome,94.0.4606.61,"OS X",10_15_7,fe3c1d035a65c549f7011c5446f73ede
23,1,null,null,psychophysics,154,1150351,0.0-3.0-1.74,"""",key,null,16.671491525424013,480,500.5,"""","""","""","""","""","""","""","""","2021-10-04 16:43:11",142.114.128.39,"Mozilla/5.0 (Macintosh; Intel Mac OS X 10_15_7) AppleWebKit/537.36 (KHTML, like Gecko) Chrome/94.0.4606.61 Safari/537.36",Macintosh,Chrome,94.0.4606.61,"OS X",10_15_7,fe3c1d035a65c549f7011c5446f73ede
23,1,1429.2000000001863,arrowright,psychophysics,155,1151784,0.0-3.0-0.75,"""",key,arrowright,16.665999999998466,480,500.5,76,3,1,26,15,25,35,true,"2021-10-04 16:43:11",142.114.128.39,"Mozilla/5.0 (Macintosh; Intel Mac OS X 10_15_7) AppleWebKit/537.36 (KHTML, like Gecko) Chrome/94.0.4606.61 Safari/537.36",Macintosh,Chrome,94.0.4606.61,"OS X",10_15_7,fe3c1d035a65c549f7011c5446f73ede
23,1,null,null,psychophysics,156,1152785,0.0-3.0-1.75,"""",key,null,16.665999999999904,480,500.5,"""","""","""","""","""","""","""","""","2021-10-04 16:43:11",142.114.128.39,"Mozilla/5.0 (Macintosh; Intel Mac OS X 10_15_7) AppleWebKit/537.36 (KHTML, like Gecko) Chrome/94.0.4606.61 Safari/537.36",Macintosh,Chrome,94.0.4606.61,"OS X",10_15_7,fe3c1d035a65c549f7011c5446f73ede
23,1,1240.7000000001863,arrowleft,psychophysics,157,1154030,0.0-3.0-0.76,"""",key,arrowleft,16.665999999999798,480,500.5,77,3,-1,27,15,25,35,true,"2021-10-04 16:43:11",142.114.128.39,"Mozilla/5.0 (Macintosh; Intel Mac OS X 10_15_7) AppleWebKit/537.36 (KHTML, like Gecko) Chrome/94.0.4606.61 Safari/537.36",Macintosh,Chrome,94.0.4606.61,"OS X",10_15_7,fe3c1d035a65c549f7011c5446f73ede
23,1,null,null,psychophysics,158,1155031,0.0-3.0-1.76,"""",key,null,16.665999999999904,480,500.5,"""","""","""","""","""","""","""","""","2021-10-04 16:43:11",142.114.128.39,"Mozilla/5.0 (Macintosh; Intel Mac OS X 10_15_7) AppleWebKit/537.36 (KHTML, like Gecko) Chrome/94.0.4606.61 Safari/537.36",Macintosh,Chrome,94.0.4606.61,"OS X",10_15_7,fe3c1d035a65c549f7011c5446f73ede
23,1,1246.7999999998137,arrowright,psychophysics,159,1156281,0.0-3.0-0.77,"""",key,arrowright,16.665999999999798,480,500.5,78,3,-1,23,15,25,35,false,"2021-10-04 16:43:11",142.114.128.39,"Mozilla/5.0 (Macintosh; Intel Mac OS X 10_15_7) AppleWebKit/537.36 (KHTML, like Gecko) Chrome/94.0.4606.61 Safari/537.36",Macintosh,Chrome,94.0.4606.61,"OS X",10_15_7,fe3c1d035a65c549f7011c5446f73ede
23,1,null,null,psychophysics,160,1157285,0.0-3.0-1.77,"""",key,null,16.665999999999904,480,500.5,"""","""","""","""","""","""","""","""","2021-10-04 16:43:11",142.114.128.39,"Mozilla/5.0 (Macintosh; Intel Mac OS X 10_15_7) AppleWebKit/537.36 (KHTML, like Gecko) Chrome/94.0.4606.61 Safari/537.36",Macintosh,Chrome,94.0.4606.61,"OS X",10_15_7,fe3c1d035a65c549f7011c5446f73ede
23,1,708.8000000002794,arrowright,psychophysics,161,1157997,0.0-3.0-0.78,"""",key,arrowright,16.666000000001596,480,500.5,79,3,1,30,35,25,35,true,"2021-10-04 16:43:11",142.114.128.39,"Mozilla/5.0 (Macintosh; Intel Mac OS X 10_15_7) AppleWebKit/537.36 (KHTML, like Gecko) Chrome/94.0.4606.61 Safari/537.36",Macintosh,Chrome,94.0.4606.61,"OS X",10_15_7,fe3c1d035a65c549f7011c5446f73ede
23,1,null,null,psychophysics,162,1158999,0.0-3.0-1.78,"""",key,null,16.665999999999904,480,500.5,"""","""","""","""","""","""","""","""","2021-10-04 16:43:11",142.114.128.39,"Mozilla/5.0 (Macintosh; Intel Mac OS X 10_15_7) AppleWebKit/537.36 (KHTML, like Gecko) Chrome/94.0.4606.61 Safari/537.36",Macintosh,Chrome,94.0.4606.61,"OS X",10_15_7,fe3c1d035a65c549f7011c5446f73ede
23,1,1272.8000000002794,arrowright,psychophysics,163,1160275,0.0-3.0-0.79,"""",key,arrowright,16.66950000000284,480,500.5,80,3,-1,24,35,25,35,false,"2021-10-04 16:43:11",142.114.128.39,"Mozilla/5.0 (Macintosh; Intel Mac OS X 10_15_7) AppleWebKit/537.36 (KHTML, like Gecko) Chrome/94.0.4606.61 Safari/537.36",Macintosh,Chrome,94.0.4606.61,"OS X",10_15_7,fe3c1d035a65c549f7011c5446f73ede
23,1,null,null,psychophysics,164,1161276,0.0-3.0-1.79,"""",key,null,16.665999999999904,480,500.5,"""","""","""","""","""","""","""","""","2021-10-04 16:43:11",142.114.128.39,"Mozilla/5.0 (Macintosh; Intel Mac OS X 10_15_7) AppleWebKit/537.36 (KHTML, like Gecko) Chrome/94.0.4606.61 Safari/537.36",Macintosh,Chrome,94.0.4606.61,"OS X",10_15_7,fe3c1d035a65c549f7011c5446f73ede
23,1,1038.6999999997206,arrowright,psychophysics,165,1162318,0.0-3.0-0.80,"""",key,arrowright,16.66599999999887,480,500.5,81,3,-1,25,35,25,35,false,"2021-10-04 16:43:11",142.114.128.39,"Mozilla/5.0 (Macintosh; Intel Mac OS X 10_15_7) AppleWebKit/537.36 (KHTML, like Gecko) Chrome/94.0.4606.61 Safari/537.36",Macintosh,Chrome,94.0.4606.61,"OS X",10_15_7,fe3c1d035a65c549f7011c5446f73ede
23,1,null,null,psychophysics,166,1163327,0.0-3.0-1.80,"""",key,null,16.66599999999938,480,500.5,"""","""","""","""","""","""","""","""","2021-10-04 16:43:11",142.114.128.39,"Mozilla/5.0 (Macintosh; Intel Mac OS X 10_15_7) AppleWebKit/537.36 (KHTML, like Gecko) Chrome/94.0.4606.61 Safari/537.36",Macintosh,Chrome,94.0.4606.61,"OS X",10_15_7,fe3c1d035a65c549f7011c5446f73ede
23,1,1121.5,arrowleft,psychophysics,167,1164451,0.0-3.0-0.81,"""",key,arrowleft,16.666000000000086,480,500.5,82,3,-1,26,15,25,35,true,"2021-10-04 16:43:11",142.114.128.39,"Mozilla/5.0 (Macintosh; Intel Mac OS X 10_15_7) AppleWebKit/537.36 (KHTML, like Gecko) Chrome/94.0.4606.61 Safari/537.36",Macintosh,Chrome,94.0.4606.61,"OS X",10_15_7,fe3c1d035a65c549f7011c5446f73ede
23,1,null,null,psychophysics,168,1165452,0.0-3.0-1.81,"""",key,null,16.665999999999904,480,500.5,"""","""","""","""","""","""","""","""","2021-10-04 16:43:11",142.114.128.39,"Mozilla/5.0 (Macintosh; Intel Mac OS X 10_15_7) AppleWebKit/537.36 (KHTML, like Gecko) Chrome/94.0.4606.61 Safari/537.36",Macintosh,Chrome,94.0.4606.61,"OS X",10_15_7,fe3c1d035a65c549f7011c5446f73ede
23,1,792.1000000000931,arrowleft,psychophysics,169,1166248,0.0-3.0-0.82,"""",key,arrowleft,16.665999999998057,480,500.5,83,3,1,23,15,25,35,false,"2021-10-04 16:43:11",142.114.128.39,"Mozilla/5.0 (Macintosh; Intel Mac OS X 10_15_7) AppleWebKit/537.36 (KHTML, like Gecko) Chrome/94.0.4606.61 Safari/537.36",Macintosh,Chrome,94.0.4606.61,"OS X",10_15_7,fe3c1d035a65c549f7011c5446f73ede
23,1,null,null,psychophysics,170,1167249,0.0-3.0-1.82,"""",key,null,16.665999999999904,480,500.5,"""","""","""","""","""","""","""","""","2021-10-04 16:43:11",142.114.128.39,"Mozilla/5.0 (Macintosh; Intel Mac OS X 10_15_7) AppleWebKit/537.36 (KHTML, like Gecko) Chrome/94.0.4606.61 Safari/537.36",Macintosh,Chrome,94.0.4606.61,"OS X",10_15_7,fe3c1d035a65c549f7011c5446f73ede
23,1,927.6000000000931,arrowright,psychophysics,171,1168180,0.0-3.0-0.83,"""",key,arrowright,16.666000000002203,480,500.5,84,4,1,30,35,25,35,true,"2021-10-04 16:43:11",142.114.128.39,"Mozilla/5.0 (Macintosh; Intel Mac OS X 10_15_7) AppleWebKit/537.36 (KHTML, like Gecko) Chrome/94.0.4606.61 Safari/537.36",Macintosh,Chrome,94.0.4606.61,"OS X",10_15_7,fe3c1d035a65c549f7011c5446f73ede
23,1,null,null,psychophysics,172,1169185,0.0-3.0-1.83,"""",key,null,16.665999999999904,480,500.5,"""","""","""","""","""","""","""","""","2021-10-04 16:43:11",142.114.128.39,"Mozilla/5.0 (Macintosh; Intel Mac OS X 10_15_7) AppleWebKit/537.36 (KHTML, like Gecko) Chrome/94.0.4606.61 Safari/537.36",Macintosh,Chrome,94.0.4606.61,"OS X",10_15_7,fe3c1d035a65c549f7011c5446f73ede
23,1,1164.5," ",html-keyboard-response,173,1170351,0.0-3.0-2.83-0.83,"<div style=""color: white; text-align: center; vertical-align: top; display: inline-block; width: 800px; margin: auto""><p>You have completed 30% of the trials. You are on block 4 of 10. <br>Good job! Take a break if you need to.</p><p>Press any key to continue the experiment.</p></div>","""","""","""","""","""","""","""","""","""","""","""","""","""","2021-10-04 16:43:11",142.114.128.39,"Mozilla/5.0 (Macintosh; Intel Mac OS X 10_15_7) AppleWebKit/537.36 (KHTML, like Gecko) Chrome/94.0.4606.61 Safari/537.36",Macintosh,Chrome,94.0.4606.61,"OS X",10_15_7,fe3c1d035a65c549f7011c5446f73ede
23,1,2130.600000000093,arrowright,psychophysics,174,1173489,0.0-3.0-0.84,"""",key,arrowright,16.66771653543344,480,500.5,85,4,-1,23,15,25,35,false,"2021-10-04 16:43:11",142.114.128.39,"Mozilla/5.0 (Macintosh; Intel Mac OS X 10_15_7) AppleWebKit/537.36 (KHTML, like Gecko) Chrome/94.0.4606.61 Safari/537.36",Macintosh,Chrome,94.0.4606.61,"OS X",10_15_7,fe3c1d035a65c549f7011c5446f73ede
23,1,null,null,psychophysics,175,1174491,0.0-3.0-1.84,"""",key,null,16.66599999999938,480,500.5,"""","""","""","""","""","""","""","""","2021-10-04 16:43:11",142.114.128.39,"Mozilla/5.0 (Macintosh; Intel Mac OS X 10_15_7) AppleWebKit/537.36 (KHTML, like Gecko) Chrome/94.0.4606.61 Safari/537.36",Macintosh,Chrome,94.0.4606.61,"OS X",10_15_7,fe3c1d035a65c549f7011c5446f73ede
23,1,1129,arrowright,psychophysics,176,1175630,0.0-3.0-0.85,"""",key,arrowright,16.66599999999961,480,500.5,86,4,1,27,15,25,35,true,"2021-10-04 16:43:11",142.114.128.39,"Mozilla/5.0 (Macintosh; Intel Mac OS X 10_15_7) AppleWebKit/537.36 (KHTML, like Gecko) Chrome/94.0.4606.61 Safari/537.36",Macintosh,Chrome,94.0.4606.61,"OS X",10_15_7,fe3c1d035a65c549f7011c5446f73ede
23,1,null,null,psychophysics,177,1176632,0.0-3.0-1.85,"""",key,null,16.665999999999904,480,500.5,"""","""","""","""","""","""","""","""","2021-10-04 16:43:11",142.114.128.39,"Mozilla/5.0 (Macintosh; Intel Mac OS X 10_15_7) AppleWebKit/537.36 (KHTML, like Gecko) Chrome/94.0.4606.61 Safari/537.36",Macintosh,Chrome,94.0.4606.61,"OS X",10_15_7,fe3c1d035a65c549f7011c5446f73ede
23,1,2581.6999999997206,arrowleft,psychophysics,178,1179217,0.0-3.0-0.86,"""",key,arrowleft,16.666000000000086,480,500.5,87,4,-1,26,35,25,35,true,"2021-10-04 16:43:11",142.114.128.39,"Mozilla/5.0 (Macintosh; Intel Mac OS X 10_15_7) AppleWebKit/537.36 (KHTML, like Gecko) Chrome/94.0.4606.61 Safari/537.36",Macintosh,Chrome,94.0.4606.61,"OS X",10_15_7,fe3c1d035a65c549f7011c5446f73ede
23,1,null,null,psychophysics,179,1180219,0.0-3.0-1.86,"""",key,null,16.665999999999904,480,500.5,"""","""","""","""","""","""","""","""","2021-10-04 16:43:11",142.114.128.39,"Mozilla/5.0 (Macintosh; Intel Mac OS X 10_15_7) AppleWebKit/537.36 (KHTML, like Gecko) Chrome/94.0.4606.61 Safari/537.36",Macintosh,Chrome,94.0.4606.61,"OS X",10_15_7,fe3c1d035a65c549f7011c5446f73ede
23,1,775.7999999998137,arrowleft,psychophysics,180,1181005,0.0-3.0-0.87,"""",key,arrowleft,16.67323913043567,480,500.5,88,4,1,20,35,25,35,false,"2021-10-04 16:43:11",142.114.128.39,"Mozilla/5.0 (Macintosh; Intel Mac OS X 10_15_7) AppleWebKit/537.36 (KHTML, like Gecko) Chrome/94.0.4606.61 Safari/537.36",Macintosh,Chrome,94.0.4606.61,"OS X",10_15_7,fe3c1d035a65c549f7011c5446f73ede
23,1,null,null,psychophysics,181,1182006,0.0-3.0-1.87,"""",key,null,16.66599999999938,480,500.5,"""","""","""","""","""","""","""","""","2021-10-04 16:43:11",142.114.128.39,"Mozilla/5.0 (Macintosh; Intel Mac OS X 10_15_7) AppleWebKit/537.36 (KHTML, like Gecko) Chrome/94.0.4606.61 Safari/537.36",Macintosh,Chrome,94.0.4606.61,"OS X",10_15_7,fe3c1d035a65c549f7011c5446f73ede
23,1,1818,arrowleft,psychophysics,182,1183828,0.0-3.0-0.88,"""",key,arrowleft,16.666000000000672,480,500.5,89,4,-1,25,15,25,35,true,"2021-10-04 16:43:11",142.114.128.39,"Mozilla/5.0 (Macintosh; Intel Mac OS X 10_15_7) AppleWebKit/537.36 (KHTML, like Gecko) Chrome/94.0.4606.61 Safari/537.36",Macintosh,Chrome,94.0.4606.61,"OS X",10_15_7,fe3c1d035a65c549f7011c5446f73ede
23,1,null,null,psychophysics,183,1184830,0.0-3.0-1.88,"""",key,null,16.665999999999904,480,500.5,"""","""","""","""","""","""","""","""","2021-10-04 16:43:11",142.114.128.39,"Mozilla/5.0 (Macintosh; Intel Mac OS X 10_15_7) AppleWebKit/537.36 (KHTML, like Gecko) Chrome/94.0.4606.61 Safari/537.36",Macintosh,Chrome,94.0.4606.61,"OS X",10_15_7,fe3c1d035a65c549f7011c5446f73ede
23,1,977.8999999999069,arrowleft,psychophysics,184,1185811,0.0-3.0-0.89,"""",key,arrowleft,16.666000000000448,480,500.5,90,4,1,24,15,25,35,false,"2021-10-04 16:43:11",142.114.128.39,"Mozilla/5.0 (Macintosh; Intel Mac OS X 10_15_7) AppleWebKit/537.36 (KHTML, like Gecko) Chrome/94.0.4606.61 Safari/537.36",Macintosh,Chrome,94.0.4606.61,"OS X",10_15_7,fe3c1d035a65c549f7011c5446f73ede
23,1,null,null,psychophysics,185,1186815,0.0-3.0-1.89,"""",key,null,16.665999999999904,480,500.5,"""","""","""","""","""","""","""","""","2021-10-04 16:43:11",142.114.128.39,"Mozilla/5.0 (Macintosh; Intel Mac OS X 10_15_7) AppleWebKit/537.36 (KHTML, like Gecko) Chrome/94.0.4606.61 Safari/537.36",Macintosh,Chrome,94.0.4606.61,"OS X",10_15_7,fe3c1d035a65c549f7011c5446f73ede
23,1,2042.1000000000931,arrowright,psychophysics,186,1188860,0.0-3.0-0.90,"""",key,arrowright,16.66600000000078,480,500.5,91,4,-1,24,35,25,35,false,"2021-10-04 16:43:11",142.114.128.39,"Mozilla/5.0 (Macintosh; Intel Mac OS X 10_15_7) AppleWebKit/537.36 (KHTML, like Gecko) Chrome/94.0.4606.61 Safari/537.36",Macintosh,Chrome,94.0.4606.61,"OS X",10_15_7,fe3c1d035a65c549f7011c5446f73ede
23,1,null,null,psychophysics,187,1189861,0.0-3.0-1.90,"""",key,null,16.665999999999904,480,500.5,"""","""","""","""","""","""","""","""","2021-10-04 16:43:11",142.114.128.39,"Mozilla/5.0 (Macintosh; Intel Mac OS X 10_15_7) AppleWebKit/537.36 (KHTML, like Gecko) Chrome/94.0.4606.61 Safari/537.36",Macintosh,Chrome,94.0.4606.61,"OS X",10_15_7,fe3c1d035a65c549f7011c5446f73ede
23,1,1889.1999999997206,arrowright,psychophysics,188,1191753,0.0-3.0-0.91,"""",key,arrowright,16.667937500001113,480,500.5,92,4,-1,24,35,25,35,false,"2021-10-04 16:43:11",142.114.128.39,"Mozilla/5.0 (Macintosh; Intel Mac OS X 10_15_7) AppleWebKit/537.36 (KHTML, like Gecko) Chrome/94.0.4606.61 Safari/537.36",Macintosh,Chrome,94.0.4606.61,"OS X",10_15_7,fe3c1d035a65c549f7011c5446f73ede
23,1,null,null,psychophysics,189,1192757,0.0-3.0-1.91,"""",key,null,16.66599999999938,480,500.5,"""","""","""","""","""","""","""","""","2021-10-04 16:43:11",142.114.128.39,"Mozilla/5.0 (Macintosh; Intel Mac OS X 10_15_7) AppleWebKit/537.36 (KHTML, like Gecko) Chrome/94.0.4606.61 Safari/537.36",Macintosh,Chrome,94.0.4606.61,"OS X",10_15_7,fe3c1d035a65c549f7011c5446f73ede
23,1,1299.8000000002794,arrowright,psychophysics,190,1194061,0.0-3.0-0.92,"""",key,arrowright,16.666000000001596,480,500.5,93,4,1,26,15,25,35,true,"2021-10-04 16:43:11",142.114.128.39,"Mozilla/5.0 (Macintosh; Intel Mac OS X 10_15_7) AppleWebKit/537.36 (KHTML, like Gecko) Chrome/94.0.4606.61 Safari/537.36",Macintosh,Chrome,94.0.4606.61,"OS X",10_15_7,fe3c1d035a65c549f7011c5446f73ede
23,1,null,null,psychophysics,191,1195062,0.0-3.0-1.92,"""",key,null,16.665999999999904,480,500.5,"""","""","""","""","""","""","""","""","2021-10-04 16:43:11",142.114.128.39,"Mozilla/5.0 (Macintosh; Intel Mac OS X 10_15_7) AppleWebKit/537.36 (KHTML, like Gecko) Chrome/94.0.4606.61 Safari/537.36",Macintosh,Chrome,94.0.4606.61,"OS X",10_15_7,fe3c1d035a65c549f7011c5446f73ede
23,1,1412.8000000002794,arrowleft,psychophysics,192,1196477,0.0-3.0-0.93,"""",key,arrowleft,16.665999999998824,480,500.5,94,4,-1,26,15,25,35,true,"2021-10-04 16:43:11",142.114.128.39,"Mozilla/5.0 (Macintosh; Intel Mac OS X 10_15_7) AppleWebKit/537.36 (KHTML, like Gecko) Chrome/94.0.4606.61 Safari/537.36",Macintosh,Chrome,94.0.4606.61,"OS X",10_15_7,fe3c1d035a65c549f7011c5446f73ede
23,1,null,null,psychophysics,193,1197478,0.0-3.0-1.93,"""",key,null,16.665999999999904,480,500.5,"""","""","""","""","""","""","""","""","2021-10-04 16:43:11",142.114.128.39,"Mozilla/5.0 (Macintosh; Intel Mac OS X 10_15_7) AppleWebKit/537.36 (KHTML, like Gecko) Chrome/94.0.4606.61 Safari/537.36",Macintosh,Chrome,94.0.4606.61,"OS X",10_15_7,fe3c1d035a65c549f7011c5446f73ede
23,1,2254.100000000093,arrowleft,psychophysics,194,1199740,0.0-3.0-0.94,"""",key,arrowleft,16.66599999999961,480,500.5,95,4,1,23,15,25,35,false,"2021-10-04 16:43:11",142.114.128.39,"Mozilla/5.0 (Macintosh; Intel Mac OS X 10_15_7) AppleWebKit/537.36 (KHTML, like Gecko) Chrome/94.0.4606.61 Safari/537.36",Macintosh,Chrome,94.0.4606.61,"OS X",10_15_7,fe3c1d035a65c549f7011c5446f73ede
23,1,null,null,psychophysics,195,1200742,0.0-3.0-1.94,"""",key,null,16.671216666667412,480,500.5,"""","""","""","""","""","""","""","""","2021-10-04 16:43:11",142.114.128.39,"Mozilla/5.0 (Macintosh; Intel Mac OS X 10_15_7) AppleWebKit/537.36 (KHTML, like Gecko) Chrome/94.0.4606.61 Safari/537.36",Macintosh,Chrome,94.0.4606.61,"OS X",10_15_7,fe3c1d035a65c549f7011c5446f73ede
23,1,2014.8999999999069,arrowleft,psychophysics,196,1202761,0.0-3.0-0.95,"""",key,arrowleft,16.66599999999938,480,500.5,96,4,-1,25,35,25,35,true,"2021-10-04 16:43:11",142.114.128.39,"Mozilla/5.0 (Macintosh; Intel Mac OS X 10_15_7) AppleWebKit/537.36 (KHTML, like Gecko) Chrome/94.0.4606.61 Safari/537.36",Macintosh,Chrome,94.0.4606.61,"OS X",10_15_7,fe3c1d035a65c549f7011c5446f73ede
23,1,null,null,psychophysics,197,1203761,0.0-3.0-1.95,"""",key,null,16.665999999999904,480,500.5,"""","""","""","""","""","""","""","""","2021-10-04 16:43:11",142.114.128.39,"Mozilla/5.0 (Macintosh; Intel Mac OS X 10_15_7) AppleWebKit/537.36 (KHTML, like Gecko) Chrome/94.0.4606.61 Safari/537.36",Macintosh,Chrome,94.0.4606.61,"OS X",10_15_7,fe3c1d035a65c549f7011c5446f73ede
23,1,1653.7000000001863,arrowright,psychophysics,198,1205420,0.0-3.0-0.96,"""",key,arrowright,16.666000000001596,480,500.5,97,4,-1,24,35,25,35,false,"2021-10-04 16:43:11",142.114.128.39,"Mozilla/5.0 (Macintosh; Intel Mac OS X 10_15_7) AppleWebKit/537.36 (KHTML, like Gecko) Chrome/94.0.4606.61 Safari/537.36",Macintosh,Chrome,94.0.4606.61,"OS X",10_15_7,fe3c1d035a65c549f7011c5446f73ede
23,1,null,null,psychophysics,199,1206422,0.0-3.0-1.96,"""",key,null,16.665999999999904,480,500.5,"""","""","""","""","""","""","""","""","2021-10-04 16:43:11",142.114.128.39,"Mozilla/5.0 (Macintosh; Intel Mac OS X 10_15_7) AppleWebKit/537.36 (KHTML, like Gecko) Chrome/94.0.4606.61 Safari/537.36",Macintosh,Chrome,94.0.4606.61,"OS X",10_15_7,fe3c1d035a65c549f7011c5446f73ede
23,1,1300,arrowright,psychophysics,200,1207729,0.0-3.0-0.97,"""",key,arrowright,16.66600000000117,480,500.5,98,4,1,30,35,25,35,true,"2021-10-04 16:43:11",142.114.128.39,"Mozilla/5.0 (Macintosh; Intel Mac OS X 10_15_7) AppleWebKit/537.36 (KHTML, like Gecko) Chrome/94.0.4606.61 Safari/537.36",Macintosh,Chrome,94.0.4606.61,"OS X",10_15_7,fe3c1d035a65c549f7011c5446f73ede
23,1,null,null,psychophysics,201,1208730,0.0-3.0-1.97,"""",key,null,16.665999999999904,480,500.5,"""","""","""","""","""","""","""","""","2021-10-04 16:43:11",142.114.128.39,"Mozilla/5.0 (Macintosh; Intel Mac OS X 10_15_7) AppleWebKit/537.36 (KHTML, like Gecko) Chrome/94.0.4606.61 Safari/537.36",Macintosh,Chrome,94.0.4606.61,"OS X",10_15_7,fe3c1d035a65c549f7011c5446f73ede
23,1,1096.5999999996275,arrowright,psychophysics,202,1209829,0.0-3.0-0.98,"""",key,arrowright,16.666000000000572,480,500.5,99,4,-1,20,15,25,35,false,"2021-10-04 16:43:11",142.114.128.39,"Mozilla/5.0 (Macintosh; Intel Mac OS X 10_15_7) AppleWebKit/537.36 (KHTML, like Gecko) Chrome/94.0.4606.61 Safari/537.36",Macintosh,Chrome,94.0.4606.61,"OS X",10_15_7,fe3c1d035a65c549f7011c5446f73ede
23,1,null,null,psychophysics,203,1210837,0.0-3.0-1.98,"""",key,null,16.670644067796104,480,500.5,"""","""","""","""","""","""","""","""","2021-10-04 16:43:11",142.114.128.39,"Mozilla/5.0 (Macintosh; Intel Mac OS X 10_15_7) AppleWebKit/537.36 (KHTML, like Gecko) Chrome/94.0.4606.61 Safari/537.36",Macintosh,Chrome,94.0.4606.61,"OS X",10_15_7,fe3c1d035a65c549f7011c5446f73ede
23,1,1537.7000000001863,arrowleft,psychophysics,204,1212381,0.0-3.0-0.99,"""",key,arrowleft,16.666000000001237,480,500.5,100,4,-1,25,15,25,35,true,"2021-10-04 16:43:11",142.114.128.39,"Mozilla/5.0 (Macintosh; Intel Mac OS X 10_15_7) AppleWebKit/537.36 (KHTML, like Gecko) Chrome/94.0.4606.61 Safari/537.36",Macintosh,Chrome,94.0.4606.61,"OS X",10_15_7,fe3c1d035a65c549f7011c5446f73ede
23,1,null,null,psychophysics,205,1213383,0.0-3.0-1.99,"""",key,null,16.665999999999904,480,500.5,"""","""","""","""","""","""","""","""","2021-10-04 16:43:11",142.114.128.39,"Mozilla/5.0 (Macintosh; Intel Mac OS X 10_15_7) AppleWebKit/537.36 (KHTML, like Gecko) Chrome/94.0.4606.61 Safari/537.36",Macintosh,Chrome,94.0.4606.61,"OS X",10_15_7,fe3c1d035a65c549f7011c5446f73ede
23,1,1417.7000000001863,arrowleft,psychophysics,206,1214804,0.0-3.0-0.100,"""",key,arrowleft,16.665999999998824,480,500.5,101,4,-1,26,35,25,35,true,"2021-10-04 16:43:11",142.114.128.39,"Mozilla/5.0 (Macintosh; Intel Mac OS X 10_15_7) AppleWebKit/537.36 (KHTML, like Gecko) Chrome/94.0.4606.61 Safari/537.36",Macintosh,Chrome,94.0.4606.61,"OS X",10_15_7,fe3c1d035a65c549f7011c5446f73ede
23,1,null,null,psychophysics,207,1215805,0.0-3.0-1.100,"""",key,null,16.665999999999904,480,500.5,"""","""","""","""","""","""","""","""","2021-10-04 16:43:11",142.114.128.39,"Mozilla/5.0 (Macintosh; Intel Mac OS X 10_15_7) AppleWebKit/537.36 (KHTML, like Gecko) Chrome/94.0.4606.61 Safari/537.36",Macintosh,Chrome,94.0.4606.61,"OS X",10_15_7,fe3c1d035a65c549f7011c5446f73ede
23,1,1280.3999999999069,arrowleft,psychophysics,208,1217093,0.0-3.0-0.101,"""",key,arrowleft,16.665999999998572,480,500.5,102,4,-1,25,15,25,35,true,"2021-10-04 16:43:11",142.114.128.39,"Mozilla/5.0 (Macintosh; Intel Mac OS X 10_15_7) AppleWebKit/537.36 (KHTML, like Gecko) Chrome/94.0.4606.61 Safari/537.36",Macintosh,Chrome,94.0.4606.61,"OS X",10_15_7,fe3c1d035a65c549f7011c5446f73ede
23,1,null,null,psychophysics,209,1218094,0.0-3.0-1.101,"""",key,null,16.665999999999904,480,500.5,"""","""","""","""","""","""","""","""","2021-10-04 16:43:11",142.114.128.39,"Mozilla/5.0 (Macintosh; Intel Mac OS X 10_15_7) AppleWebKit/537.36 (KHTML, like Gecko) Chrome/94.0.4606.61 Safari/537.36",Macintosh,Chrome,94.0.4606.61,"OS X",10_15_7,fe3c1d035a65c549f7011c5446f73ede
23,1,1931.8999999999069,arrowleft,psychophysics,210,1220029,0.0-3.0-0.102,"""",key,arrowleft,16.665999999998704,480,500.5,103,4,1,24,15,25,35,false,"2021-10-04 16:43:11",142.114.128.39,"Mozilla/5.0 (Macintosh; Intel Mac OS X 10_15_7) AppleWebKit/537.36 (KHTML, like Gecko) Chrome/94.0.4606.61 Safari/537.36",Macintosh,Chrome,94.0.4606.61,"OS X",10_15_7,fe3c1d035a65c549f7011c5446f73ede
23,1,null,null,psychophysics,211,1221031,0.0-3.0-1.102,"""",key,null,16.669898305084335,480,500.5,"""","""","""","""","""","""","""","""","2021-10-04 16:43:11",142.114.128.39,"Mozilla/5.0 (Macintosh; Intel Mac OS X 10_15_7) AppleWebKit/537.36 (KHTML, like Gecko) Chrome/94.0.4606.61 Safari/537.36",Macintosh,Chrome,94.0.4606.61,"OS X",10_15_7,fe3c1d035a65c549f7011c5446f73ede
23,1,1809.3999999999069,arrowright,psychophysics,212,1222844,0.0-3.0-0.103,"""",key,arrowright,16.665999999998515,480,500.5,104,4,-1,24,35,25,35,false,"2021-10-04 16:43:11",142.114.128.39,"Mozilla/5.0 (Macintosh; Intel Mac OS X 10_15_7) AppleWebKit/537.36 (KHTML, like Gecko) Chrome/94.0.4606.61 Safari/537.36",Macintosh,Chrome,94.0.4606.61,"OS X",10_15_7,fe3c1d035a65c549f7011c5446f73ede
23,1,null,null,psychophysics,213,1223849,0.0-3.0-1.103,"""",key,null,16.665999999999904,480,500.5,"""","""","""","""","""","""","""","""","2021-10-04 16:43:11",142.114.128.39,"Mozilla/5.0 (Macintosh; Intel Mac OS X 10_15_7) AppleWebKit/537.36 (KHTML, like Gecko) Chrome/94.0.4606.61 Safari/537.36",Macintosh,Chrome,94.0.4606.61,"OS X",10_15_7,fe3c1d035a65c549f7011c5446f73ede
23,1,1489.2999999998137,arrowleft,psychophysics,214,1225341,0.0-3.0-0.104,"""",key,arrowleft,16.66599999999744,480,500.5,105,4,-1,27,35,25,35,true,"2021-10-04 16:43:11",142.114.128.39,"Mozilla/5.0 (Macintosh; Intel Mac OS X 10_15_7) AppleWebKit/537.36 (KHTML, like Gecko) Chrome/94.0.4606.61 Safari/537.36",Macintosh,Chrome,94.0.4606.61,"OS X",10_15_7,fe3c1d035a65c549f7011c5446f73ede
23,1,null,null,psychophysics,215,1226343,0.0-3.0-1.104,"""",key,null,16.66599999999938,480,500.5,"""","""","""","""","""","""","""","""","2021-10-04 16:43:11",142.114.128.39,"Mozilla/5.0 (Macintosh; Intel Mac OS X 10_15_7) AppleWebKit/537.36 (KHTML, like Gecko) Chrome/94.0.4606.61 Safari/537.36",Macintosh,Chrome,94.0.4606.61,"OS X",10_15_7,fe3c1d035a65c549f7011c5446f73ede
23,1,1136.7999999998137,arrowright,psychophysics,216,1227483,0.0-3.0-0.105,"""",key,arrowright,16.66599999999961,480,500.5,106,4,1,30,35,25,35,true,"2021-10-04 16:43:11",142.114.128.39,"Mozilla/5.0 (Macintosh; Intel Mac OS X 10_15_7) AppleWebKit/537.36 (KHTML, like Gecko) Chrome/94.0.4606.61 Safari/537.36",Macintosh,Chrome,94.0.4606.61,"OS X",10_15_7,fe3c1d035a65c549f7011c5446f73ede
23,1,null,null,psychophysics,217,1228485,0.0-3.0-1.105,"""",key,null,16.665999999999904,480,500.5,"""","""","""","""","""","""","""","""","2021-10-04 16:43:11",142.114.128.39,"Mozilla/5.0 (Macintosh; Intel Mac OS X 10_15_7) AppleWebKit/537.36 (KHTML, like Gecko) Chrome/94.0.4606.61 Safari/537.36",Macintosh,Chrome,94.0.4606.61,"OS X",10_15_7,fe3c1d035a65c549f7011c5446f73ede
23,1,1869,arrowright,psychophysics,218,1230362,0.0-3.0-0.106,"""",key,arrowright,16.666000000001596,480,500.5,107,4,-1,25,35,25,35,false,"2021-10-04 16:43:11",142.114.128.39,"Mozilla/5.0 (Macintosh; Intel Mac OS X 10_15_7) AppleWebKit/537.36 (KHTML, like Gecko) Chrome/94.0.4606.61 Safari/537.36",Macintosh,Chrome,94.0.4606.61,"OS X",10_15_7,fe3c1d035a65c549f7011c5446f73ede
23,1,null,null,psychophysics,219,1231363,0.0-3.0-1.106,"""",key,null,16.67096610169195,480,500.5,"""","""","""","""","""","""","""","""","2021-10-04 16:43:11",142.114.128.39,"Mozilla/5.0 (Macintosh; Intel Mac OS X 10_15_7) AppleWebKit/537.36 (KHTML, like Gecko) Chrome/94.0.4606.61 Safari/537.36",Macintosh,Chrome,94.0.4606.61,"OS X",10_15_7,fe3c1d035a65c549f7011c5446f73ede
23,1,1545.6999999997206,arrowleft,psychophysics,220,1232911,0.0-3.0-0.107,"""",key,arrowleft,16.665999999998704,480,500.5,108,4,1,24,15,25,35,false,"2021-10-04 16:43:11",142.114.128.39,"Mozilla/5.0 (Macintosh; Intel Mac OS X 10_15_7) AppleWebKit/537.36 (KHTML, like Gecko) Chrome/94.0.4606.61 Safari/537.36",Macintosh,Chrome,94.0.4606.61,"OS X",10_15_7,fe3c1d035a65c549f7011c5446f73ede
23,1,null,null,psychophysics,221,1233912,0.0-3.0-1.107,"""",key,null,16.665999999999904,480,500.5,"""","""","""","""","""","""","""","""","2021-10-04 16:43:11",142.114.128.39,"Mozilla/5.0 (Macintosh; Intel Mac OS X 10_15_7) AppleWebKit/537.36 (KHTML, like Gecko) Chrome/94.0.4606.61 Safari/537.36",Macintosh,Chrome,94.0.4606.61,"OS X",10_15_7,fe3c1d035a65c549f7011c5446f73ede
23,1,1679.2999999998137,arrowleft,psychophysics,222,1235594,0.0-3.0-0.108,"""",key,arrowleft,16.66600000000093,480,500.5,109,4,-1,25,35,25,35,true,"2021-10-04 16:43:11",142.114.128.39,"Mozilla/5.0 (Macintosh; Intel Mac OS X 10_15_7) AppleWebKit/537.36 (KHTML, like Gecko) Chrome/94.0.4606.61 Safari/537.36",Macintosh,Chrome,94.0.4606.61,"OS X",10_15_7,fe3c1d035a65c549f7011c5446f73ede
23,1,null,null,psychophysics,223,1236598,0.0-3.0-1.108,"""",key,null,16.665999999999904,480,500.5,"""","""","""","""","""","""","""","""","2021-10-04 16:43:11",142.114.128.39,"Mozilla/5.0 (Macintosh; Intel Mac OS X 10_15_7) AppleWebKit/537.36 (KHTML, like Gecko) Chrome/94.0.4606.61 Safari/537.36",Macintosh,Chrome,94.0.4606.61,"OS X",10_15_7,fe3c1d035a65c549f7011c5446f73ede
23,1,1010.1000000000931,arrowleft,psychophysics,224,1237612,0.0-3.0-0.109,"""",key,arrowleft,16.66599999999938,480,500.5,110,4,1,20,15,25,35,false,"2021-10-04 16:43:11",142.114.128.39,"Mozilla/5.0 (Macintosh; Intel Mac OS X 10_15_7) AppleWebKit/537.36 (KHTML, like Gecko) Chrome/94.0.4606.61 Safari/537.36",Macintosh,Chrome,94.0.4606.61,"OS X",10_15_7,fe3c1d035a65c549f7011c5446f73ede
23,1,null,null,psychophysics,225,1238613,0.0-3.0-1.109,"""",key,null,16.665999999999904,480,500.5,"""","""","""","""","""","""","""","""","2021-10-04 16:43:11",142.114.128.39,"Mozilla/5.0 (Macintosh; Intel Mac OS X 10_15_7) AppleWebKit/537.36 (KHTML, like Gecko) Chrome/94.0.4606.61 Safari/537.36",Macintosh,Chrome,94.0.4606.61,"OS X",10_15_7,fe3c1d035a65c549f7011c5446f73ede
23,1,1083.1000000000931,arrowleft,psychophysics,226,1239699,0.0-3.0-0.110,"""",key,arrowleft,16.66599999999744,480,500.5,111,4,-1,27,15,25,35,true,"2021-10-04 16:43:11",142.114.128.39,"Mozilla/5.0 (Macintosh; Intel Mac OS X 10_15_7) AppleWebKit/537.36 (KHTML, like Gecko) Chrome/94.0.4606.61 Safari/537.36",Macintosh,Chrome,94.0.4606.61,"OS X",10_15_7,fe3c1d035a65c549f7011c5446f73ede
23,1,null,null,psychophysics,227,1240700,0.0-3.0-1.110,"""",key,null,16.67050847457327,480,500.5,"""","""","""","""","""","""","""","""","2021-10-04 16:43:11",142.114.128.39,"Mozilla/5.0 (Macintosh; Intel Mac OS X 10_15_7) AppleWebKit/537.36 (KHTML, like Gecko) Chrome/94.0.4606.61 Safari/537.36",Macintosh,Chrome,94.0.4606.61,"OS X",10_15_7,fe3c1d035a65c549f7011c5446f73ede
23,1,1076.2000000001863,arrowleft,psychophysics,228,1241779,0.0-3.0-0.111,"""",key,arrowleft,16.666000000001077,480,500.5,112,5,1,23,35,25,35,false,"2021-10-04 16:43:11",142.114.128.39,"Mozilla/5.0 (Macintosh; Intel Mac OS X 10_15_7) AppleWebKit/537.36 (KHTML, like Gecko) Chrome/94.0.4606.61 Safari/537.36",Macintosh,Chrome,94.0.4606.61,"OS X",10_15_7,fe3c1d035a65c549f7011c5446f73ede
23,1,null,null,psychophysics,229,1242784,0.0-3.0-1.111,"""",key,null,16.665999999999904,480,500.5,"""","""","""","""","""","""","""","""","2021-10-04 16:43:11",142.114.128.39,"Mozilla/5.0 (Macintosh; Intel Mac OS X 10_15_7) AppleWebKit/537.36 (KHTML, like Gecko) Chrome/94.0.4606.61 Safari/537.36",Macintosh,Chrome,94.0.4606.61,"OS X",10_15_7,fe3c1d035a65c549f7011c5446f73ede
23,1,223749.80000000028," ",html-keyboard-response,230,1517158,0.0-3.0-2.111-0.111,"<div style=""color: white; text-align: center; vertical-align: top; display: inline-block; width: 800px; margin: auto""><p>You have completed 40% of the trials. You are on block 5 of 10. <br>Good job! Take a break if you need to.</p><p>Press any key to continue the experiment.</p></div>","""","""","""","""","""","""","""","""","""","""","""","""","""","2021-10-04 16:43:11",142.114.128.39,"Mozilla/5.0 (Macintosh; Intel Mac OS X 10_15_7) AppleWebKit/537.36 (KHTML, like Gecko) Chrome/94.0.4606.61 Safari/537.36",Macintosh,Chrome,94.0.4606.61,"OS X",10_15_7,fe3c1d035a65c549f7011c5446f73ede
23,1,1205,arrowright,psychophysics,231,1519398,0.0-3.0-0.112,"""",key,arrowright,16.66600000000023,480,500.5,113,5,1,26,35,25,35,true,"2021-10-04 16:43:11",142.114.128.39,"Mozilla/5.0 (Macintosh; Intel Mac OS X 10_15_7) AppleWebKit/537.36 (KHTML, like Gecko) Chrome/94.0.4606.61 Safari/537.36",Macintosh,Chrome,94.0.4606.61,"OS X",10_15_7,fe3c1d035a65c549f7011c5446f73ede
23,1,null,null,psychophysics,232,1520400,0.0-3.0-1.112,"""",key,null,16.95334482758611,480,500.5,"""","""","""","""","""","""","""","""","2021-10-04 16:43:11",142.114.128.39,"Mozilla/5.0 (Macintosh; Intel Mac OS X 10_15_7) AppleWebKit/537.36 (KHTML, like Gecko) Chrome/94.0.4606.61 Safari/537.36",Macintosh,Chrome,94.0.4606.61,"OS X",10_15_7,fe3c1d035a65c549f7011c5446f73ede
23,1,832.1999999997206,arrowright,psychophysics,233,1521234,0.0-3.0-0.113,"""",key,arrowright,16.666000000001596,480,500.5,114,5,1,27,35,25,35,true,"2021-10-04 16:43:11",142.114.128.39,"Mozilla/5.0 (Macintosh; Intel Mac OS X 10_15_7) AppleWebKit/537.36 (KHTML, like Gecko) Chrome/94.0.4606.61 Safari/537.36",Macintosh,Chrome,94.0.4606.61,"OS X",10_15_7,fe3c1d035a65c549f7011c5446f73ede
23,1,null,null,psychophysics,234,1522237,0.0-3.0-1.113,"""",key,null,16.572915254235742,480,500.5,"""","""","""","""","""","""","""","""","2021-10-04 16:43:11",142.114.128.39,"Mozilla/5.0 (Macintosh; Intel Mac OS X 10_15_7) AppleWebKit/537.36 (KHTML, like Gecko) Chrome/94.0.4606.61 Safari/537.36",Macintosh,Chrome,94.0.4606.61,"OS X",10_15_7,fe3c1d035a65c549f7011c5446f73ede
23,1,810,arrowleft,psychophysics,235,1523052,0.0-3.0-0.114,"""",key,arrowleft,16.66600000000229,480,500.5,115,5,-1,30,35,25,35,true,"2021-10-04 16:43:11",142.114.128.39,"Mozilla/5.0 (Macintosh; Intel Mac OS X 10_15_7) AppleWebKit/537.36 (KHTML, like Gecko) Chrome/94.0.4606.61 Safari/537.36",Macintosh,Chrome,94.0.4606.61,"OS X",10_15_7,fe3c1d035a65c549f7011c5446f73ede
23,1,null,null,psychophysics,236,1524054,0.0-3.0-1.114,"""",key,null,16.665999999999904,480,500.5,"""","""","""","""","""","""","""","""","2021-10-04 16:43:11",142.114.128.39,"Mozilla/5.0 (Macintosh; Intel Mac OS X 10_15_7) AppleWebKit/537.36 (KHTML, like Gecko) Chrome/94.0.4606.61 Safari/537.36",Macintosh,Chrome,94.0.4606.61,"OS X",10_15_7,fe3c1d035a65c549f7011c5446f73ede
23,1,788.3000000002794,arrowleft,psychophysics,237,1524855,0.0-3.0-0.115,"""",key,arrowleft,16.665999999998057,480,500.5,116,5,-1,26,15,25,35,true,"2021-10-04 16:43:11",142.114.128.39,"Mozilla/5.0 (Macintosh; Intel Mac OS X 10_15_7) AppleWebKit/537.36 (KHTML, like Gecko) Chrome/94.0.4606.61 Safari/537.36",Macintosh,Chrome,94.0.4606.61,"OS X",10_15_7,fe3c1d035a65c549f7011c5446f73ede
23,1,null,null,psychophysics,238,1525857,0.0-3.0-1.115,"""",key,null,16.66599999999938,480,500.5,"""","""","""","""","""","""","""","""","2021-10-04 16:43:11",142.114.128.39,"Mozilla/5.0 (Macintosh; Intel Mac OS X 10_15_7) AppleWebKit/537.36 (KHTML, like Gecko) Chrome/94.0.4606.61 Safari/537.36",Macintosh,Chrome,94.0.4606.61,"OS X",10_15_7,fe3c1d035a65c549f7011c5446f73ede
23,1,935.3999999999069,arrowright,psychophysics,239,1526795,0.0-3.0-0.116,"""",key,arrowright,16.665999999997968,480,500.5,117,5,-1,23,35,25,35,false,"2021-10-04 16:43:11",142.114.128.39,"Mozilla/5.0 (Macintosh; Intel Mac OS X 10_15_7) AppleWebKit/537.36 (KHTML, like Gecko) Chrome/94.0.4606.61 Safari/537.36",Macintosh,Chrome,94.0.4606.61,"OS X",10_15_7,fe3c1d035a65c549f7011c5446f73ede
23,1,null,null,psychophysics,240,1527798,0.0-3.0-1.116,"""",key,null,16.665999999999904,480,500.5,"""","""","""","""","""","""","""","""","2021-10-04 16:43:11",142.114.128.39,"Mozilla/5.0 (Macintosh; Intel Mac OS X 10_15_7) AppleWebKit/537.36 (KHTML, like Gecko) Chrome/94.0.4606.61 Safari/537.36",Macintosh,Chrome,94.0.4606.61,"OS X",10_15_7,fe3c1d035a65c549f7011c5446f73ede
23,1,658.7000000001863,arrowleft,psychophysics,241,1528460,0.0-3.0-0.117,"""",key,arrowleft,16.665999999998185,480,500.5,118,5,1,24,15,25,35,false,"2021-10-04 16:43:11",142.114.128.39,"Mozilla/5.0 (Macintosh; Intel Mac OS X 10_15_7) AppleWebKit/537.36 (KHTML, like Gecko) Chrome/94.0.4606.61 Safari/537.36",Macintosh,Chrome,94.0.4606.61,"OS X",10_15_7,fe3c1d035a65c549f7011c5446f73ede
23,1,null,null,psychophysics,242,1529461,0.0-3.0-1.117,"""",key,null,16.665999999999904,480,500.5,"""","""","""","""","""","""","""","""","2021-10-04 16:43:11",142.114.128.39,"Mozilla/5.0 (Macintosh; Intel Mac OS X 10_15_7) AppleWebKit/537.36 (KHTML, like Gecko) Chrome/94.0.4606.61 Safari/537.36",Macintosh,Chrome,94.0.4606.61,"OS X",10_15_7,fe3c1d035a65c549f7011c5446f73ede
23,1,1982.3999999999069,arrowright,psychophysics,243,1531446,0.0-3.0-0.118,"""",key,arrowright,16.665999999999904,480,500.5,119,5,1,26,35,25,35,true,"2021-10-04 16:43:11",142.114.128.39,"Mozilla/5.0 (Macintosh; Intel Mac OS X 10_15_7) AppleWebKit/537.36 (KHTML, like Gecko) Chrome/94.0.4606.61 Safari/537.36",Macintosh,Chrome,94.0.4606.61,"OS X",10_15_7,fe3c1d035a65c549f7011c5446f73ede
23,1,null,null,psychophysics,244,1532451,0.0-3.0-1.118,"""",key,null,16.67045762711915,480,500.5,"""","""","""","""","""","""","""","""","2021-10-04 16:43:11",142.114.128.39,"Mozilla/5.0 (Macintosh; Intel Mac OS X 10_15_7) AppleWebKit/537.36 (KHTML, like Gecko) Chrome/94.0.4606.61 Safari/537.36",Macintosh,Chrome,94.0.4606.61,"OS X",10_15_7,fe3c1d035a65c549f7011c5446f73ede
23,1,1555.2999999998137,arrowleft,psychophysics,245,1534010,0.0-3.0-0.119,"""",key,arrowleft,16.66600000000088,480,500.5,120,5,1,24,35,25,35,false,"2021-10-04 16:43:11",142.114.128.39,"Mozilla/5.0 (Macintosh; Intel Mac OS X 10_15_7) AppleWebKit/537.36 (KHTML, like Gecko) Chrome/94.0.4606.61 Safari/537.36",Macintosh,Chrome,94.0.4606.61,"OS X",10_15_7,fe3c1d035a65c549f7011c5446f73ede
23,1,null,null,psychophysics,246,1535011,0.0-3.0-1.119,"""",key,null,16.665999999999904,480,500.5,"""","""","""","""","""","""","""","""","2021-10-04 16:43:11",142.114.128.39,"Mozilla/5.0 (Macintosh; Intel Mac OS X 10_15_7) AppleWebKit/537.36 (KHTML, like Gecko) Chrome/94.0.4606.61 Safari/537.36",Macintosh,Chrome,94.0.4606.61,"OS X",10_15_7,fe3c1d035a65c549f7011c5446f73ede
23,1,1033.8999999999069,arrowright,psychophysics,247,1536047,0.0-3.0-0.120,"""",key,arrowright,16.666000000002686,480,500.5,121,5,1,30,15,25,35,true,"2021-10-04 16:43:11",142.114.128.39,"Mozilla/5.0 (Macintosh; Intel Mac OS X 10_15_7) AppleWebKit/537.36 (KHTML, like Gecko) Chrome/94.0.4606.61 Safari/537.36",Macintosh,Chrome,94.0.4606.61,"OS X",10_15_7,fe3c1d035a65c549f7011c5446f73ede
23,1,null,null,psychophysics,248,1537048,0.0-3.0-1.120,"""",key,null,16.665999999999904,480,500.5,"""","""","""","""","""","""","""","""","2021-10-04 16:43:11",142.114.128.39,"Mozilla/5.0 (Macintosh; Intel Mac OS X 10_15_7) AppleWebKit/537.36 (KHTML, like Gecko) Chrome/94.0.4606.61 Safari/537.36",Macintosh,Chrome,94.0.4606.61,"OS X",10_15_7,fe3c1d035a65c549f7011c5446f73ede
23,1,782.5,arrowright,psychophysics,249,1537834,0.0-3.0-0.121,"""",key,arrowright,16.665999999998704,480,500.5,122,5,1,30,35,25,35,true,"2021-10-04 16:43:11",142.114.128.39,"Mozilla/5.0 (Macintosh; Intel Mac OS X 10_15_7) AppleWebKit/537.36 (KHTML, like Gecko) Chrome/94.0.4606.61 Safari/537.36",Macintosh,Chrome,94.0.4606.61,"OS X",10_15_7,fe3c1d035a65c549f7011c5446f73ede
23,1,null,null,psychophysics,250,1538842,0.0-3.0-1.121,"""",key,null,16.666000000003258,480,500.5,"""","""","""","""","""","""","""","""","2021-10-04 16:43:11",142.114.128.39,"Mozilla/5.0 (Macintosh; Intel Mac OS X 10_15_7) AppleWebKit/537.36 (KHTML, like Gecko) Chrome/94.0.4606.61 Safari/537.36",Macintosh,Chrome,94.0.4606.61,"OS X",10_15_7,fe3c1d035a65c549f7011c5446f73ede
23,1,974.1999999997206,arrowright,psychophysics,251,1539820,0.0-3.0-0.122,"""",key,arrowright,16.665999999996927,480,500.5,123,5,-1,20,35,25,35,false,"2021-10-04 16:43:11",142.114.128.39,"Mozilla/5.0 (Macintosh; Intel Mac OS X 10_15_7) AppleWebKit/537.36 (KHTML, like Gecko) Chrome/94.0.4606.61 Safari/537.36",Macintosh,Chrome,94.0.4606.61,"OS X",10_15_7,fe3c1d035a65c549f7011c5446f73ede
23,1,null,null,psychophysics,252,1540822,0.0-3.0-1.122,"""",key,null,16.665999999999904,480,500.5,"""","""","""","""","""","""","""","""","2021-10-04 16:43:11",142.114.128.39,"Mozilla/5.0 (Macintosh; Intel Mac OS X 10_15_7) AppleWebKit/537.36 (KHTML, like Gecko) Chrome/94.0.4606.61 Safari/537.36",Macintosh,Chrome,94.0.4606.61,"OS X",10_15_7,fe3c1d035a65c549f7011c5446f73ede
23,1,1656,arrowleft,psychophysics,253,1542485,0.0-3.0-0.123,"""",key,arrowleft,16.669030303029682,480,500.5,124,5,1,23,15,25,35,false,"2021-10-04 16:43:11",142.114.128.39,"Mozilla/5.0 (Macintosh; Intel Mac OS X 10_15_7) AppleWebKit/537.36 (KHTML, like Gecko) Chrome/94.0.4606.61 Safari/537.36",Macintosh,Chrome,94.0.4606.61,"OS X",10_15_7,fe3c1d035a65c549f7011c5446f73ede
23,1,null,null,psychophysics,254,1543486,0.0-3.0-1.123,"""",key,null,16.665999999999904,480,500.5,"""","""","""","""","""","""","""","""","2021-10-04 16:43:11",142.114.128.39,"Mozilla/5.0 (Macintosh; Intel Mac OS X 10_15_7) AppleWebKit/537.36 (KHTML, like Gecko) Chrome/94.0.4606.61 Safari/537.36",Macintosh,Chrome,94.0.4606.61,"OS X",10_15_7,fe3c1d035a65c549f7011c5446f73ede
23,1,1174,arrowleft,psychophysics,255,1544672,0.0-3.0-0.124,"""",key,arrowleft,16.666000000001596,480,500.5,125,5,-1,24,15,25,35,true,"2021-10-04 16:43:11",142.114.128.39,"Mozilla/5.0 (Macintosh; Intel Mac OS X 10_15_7) AppleWebKit/537.36 (KHTML, like Gecko) Chrome/94.0.4606.61 Safari/537.36",Macintosh,Chrome,94.0.4606.61,"OS X",10_15_7,fe3c1d035a65c549f7011c5446f73ede
23,1,null,null,psychophysics,256,1545674,0.0-3.0-1.124,"""",key,null,16.66599999999938,480,500.5,"""","""","""","""","""","""","""","""","2021-10-04 16:43:11",142.114.128.39,"Mozilla/5.0 (Macintosh; Intel Mac OS X 10_15_7) AppleWebKit/537.36 (KHTML, like Gecko) Chrome/94.0.4606.61 Safari/537.36",Macintosh,Chrome,94.0.4606.61,"OS X",10_15_7,fe3c1d035a65c549f7011c5446f73ede
23,1,749.5,arrowright,psychophysics,257,1546426,0.0-3.0-0.125,"""",key,arrowright,16.666000000000086,480,500.5,126,5,1,30,15,25,35,true,"2021-10-04 16:43:11",142.114.128.39,"Mozilla/5.0 (Macintosh; Intel Mac OS X 10_15_7) AppleWebKit/537.36 (KHTML, like Gecko) Chrome/94.0.4606.61 Safari/537.36",Macintosh,Chrome,94.0.4606.61,"OS X",10_15_7,fe3c1d035a65c549f7011c5446f73ede
23,1,null,null,psychophysics,258,1547428,0.0-3.0-1.125,"""",key,null,16.665999999999904,480,500.5,"""","""","""","""","""","""","""","""","2021-10-04 16:43:11",142.114.128.39,"Mozilla/5.0 (Macintosh; Intel Mac OS X 10_15_7) AppleWebKit/537.36 (KHTML, like Gecko) Chrome/94.0.4606.61 Safari/537.36",Macintosh,Chrome,94.0.4606.61,"OS X",10_15_7,fe3c1d035a65c549f7011c5446f73ede
