run_id,condition,rt,response,trial_type,trial_index,time_elapsed,internal_node_id,stimulus,response_type,key_press,avg_frame_time,center_x,center_y,trial,block,test_pos,test_inner_radius,test_outer_radius,ref_inner_radius,ref_outer_radius,test_bigger,recorded_at,ip,user_agent,device,browser,browser_version,platform,platform_version,source_code_version
28,1,40633.200000047684,"{""p_id"":""8234"",""age"":""21"",""handedness"":""right"",""sex"":""male"",""other_sex"":""}",survey-html-form,0,40635,0.0-0.0,"""","""","""","""","""","""","""","""","""","""","""","""","""","""","2021-10-05 02:12:54",99.240.159.202,"Mozilla/5.0 (Windows NT 10.0; Win64; x64) AppleWebKit/537.36 (KHTML, like Gecko) Chrome/94.0.4606.61 Safari/537.36",WebKit,Chrome,94.0.4606.61,Windows,10.0,fe3c1d035a65c549f7011c5446f73ede
28,1,15954.900000095367," ",html-keyboard-response,1,56593,0.0-1.0,"<p style=""color: white"">Welcome to the Size Judgment Experiment. <br>There will be 10 blocks in this experiment. <br>There will be 28 trials in each block. <br>You will be given a chance to take a break between blocks. <br>Press any key to start the experiment.</p>","""","""","""","""","""","""","""","""","""","""","""","""","""","2021-10-05 02:12:54",99.240.159.202,"Mozilla/5.0 (Windows NT 10.0; Win64; x64) AppleWebKit/537.36 (KHTML, like Gecko) Chrome/94.0.4606.61 Safari/537.36",WebKit,Chrome,94.0.4606.61,Windows,10.0,fe3c1d035a65c549f7011c5446f73ede
28,1,10237.599999904633," ",psychophysics,2,66843,0.0-2.0,"""",key," ",6.9589375424304185,960,484.5,"""","""","""","""","""","""","""","""","2021-10-05 02:12:54",99.240.159.202,"Mozilla/5.0 (Windows NT 10.0; Win64; x64) AppleWebKit/537.36 (KHTML, like Gecko) Chrome/94.0.4606.61 Safari/537.36",WebKit,Chrome,94.0.4606.61,Windows,10.0,fe3c1d035a65c549f7011c5446f73ede
28,1,7457.5,arrowleft,psychophysics,3,74305,0.0-3.0-0.0,"""",key,arrowleft,6.957605042016808,960,484.5,1,1,1,24,15,25,35,false,"2021-10-05 02:12:54",99.240.159.202,"Mozilla/5.0 (Windows NT 10.0; Win64; x64) AppleWebKit/537.36 (KHTML, like Gecko) Chrome/94.0.4606.61 Safari/537.36",WebKit,Chrome,94.0.4606.61,Windows,10.0,fe3c1d035a65c549f7011c5446f73ede
28,1,null,null,psychophysics,4,75307,0.0-3.0-1.0,"""",key,null,6.945062937062938,960,484.5,"""","""","""","""","""","""","""","""","2021-10-05 02:12:54",99.240.159.202,"Mozilla/5.0 (Windows NT 10.0; Win64; x64) AppleWebKit/537.36 (KHTML, like Gecko) Chrome/94.0.4606.61 Safari/537.36",WebKit,Chrome,94.0.4606.61,Windows,10.0,fe3c1d035a65c549f7011c5446f73ede
28,1,2435.399999856949,arrowleft,psychophysics,5,77746,0.0-3.0-0.1,"""",key,arrowleft,6.944683760683768,960,484.5,2,1,-1,30,15,25,35,true,"2021-10-05 02:12:54",99.240.159.202,"Mozilla/5.0 (Windows NT 10.0; Win64; x64) AppleWebKit/537.36 (KHTML, like Gecko) Chrome/94.0.4606.61 Safari/537.36",WebKit,Chrome,94.0.4606.61,Windows,10.0,fe3c1d035a65c549f7011c5446f73ede
28,1,null,null,psychophysics,6,78751,0.0-3.0-1.1,"""",key,null,6.944545454545503,960,484.5,"""","""","""","""","""","""","""","""","2021-10-05 02:12:54",99.240.159.202,"Mozilla/5.0 (Windows NT 10.0; Win64; x64) AppleWebKit/537.36 (KHTML, like Gecko) Chrome/94.0.4606.61 Safari/537.36",WebKit,Chrome,94.0.4606.61,Windows,10.0,fe3c1d035a65c549f7011c5446f73ede
28,1,1040.2999999523163,arrowleft,psychophysics,7,79794,0.0-3.0-0.2,"""",key,arrowleft,6.944413333333311,960,484.5,3,1,-1,27,15,25,35,true,"2021-10-05 02:12:54",99.240.159.202,"Mozilla/5.0 (Windows NT 10.0; Win64; x64) AppleWebKit/537.36 (KHTML, like Gecko) Chrome/94.0.4606.61 Safari/537.36",WebKit,Chrome,94.0.4606.61,Windows,10.0,fe3c1d035a65c549f7011c5446f73ede
28,1,null,null,psychophysics,8,80800,0.0-3.0-1.2,"""",key,null,6.944426573426573,960,484.5,"""","""","""","""","""","""","""","""","2021-10-05 02:12:54",99.240.159.202,"Mozilla/5.0 (Windows NT 10.0; Win64; x64) AppleWebKit/537.36 (KHTML, like Gecko) Chrome/94.0.4606.61 Safari/537.36",WebKit,Chrome,94.0.4606.61,Windows,10.0,fe3c1d035a65c549f7011c5446f73ede
28,1,5668.199999809265,arrowleft,psychophysics,9,86471,0.0-3.0-0.3,"""",key,arrowleft,6.944618872549012,960,484.5,4,1,-1,27,35,25,35,true,"2021-10-05 02:12:54",99.240.159.202,"Mozilla/5.0 (Windows NT 10.0; Win64; x64) AppleWebKit/537.36 (KHTML, like Gecko) Chrome/94.0.4606.61 Safari/537.36",WebKit,Chrome,94.0.4606.61,Windows,10.0,fe3c1d035a65c549f7011c5446f73ede
28,1,null,null,psychophysics,10,87473,0.0-3.0-1.3,"""",key,null,6.9449930069930454,960,484.5,"""","""","""","""","""","""","""","""","2021-10-05 02:12:54",99.240.159.202,"Mozilla/5.0 (Windows NT 10.0; Win64; x64) AppleWebKit/537.36 (KHTML, like Gecko) Chrome/94.0.4606.61 Safari/537.36",WebKit,Chrome,94.0.4606.61,Windows,10.0,fe3c1d035a65c549f7011c5446f73ede
28,1,1217.7000000476837,arrowleft,psychophysics,11,88695,0.0-3.0-0.4,"""",key,arrowleft,6.944165714285752,960,484.5,5,1,-1,26,35,25,35,true,"2021-10-05 02:12:54",99.240.159.202,"Mozilla/5.0 (Windows NT 10.0; Win64; x64) AppleWebKit/537.36 (KHTML, like Gecko) Chrome/94.0.4606.61 Safari/537.36",WebKit,Chrome,94.0.4606.61,Windows,10.0,fe3c1d035a65c549f7011c5446f73ede
28,1,null,null,psychophysics,12,89696,0.0-3.0-1.4,"""",key,null,6.944791666666687,960,484.5,"""","""","""","""","""","""","""","""","2021-10-05 02:12:54",99.240.159.202,"Mozilla/5.0 (Windows NT 10.0; Win64; x64) AppleWebKit/537.36 (KHTML, like Gecko) Chrome/94.0.4606.61 Safari/537.36",WebKit,Chrome,94.0.4606.61,Windows,10.0,fe3c1d035a65c549f7011c5446f73ede
28,1,1398.7000000476837,arrowright,psychophysics,13,91098,0.0-3.0-0.5,"""",key,arrowright,6.94497000000003,960,484.5,6,1,1,26,35,25,35,true,"2021-10-05 02:12:54",99.240.159.202,"Mozilla/5.0 (Windows NT 10.0; Win64; x64) AppleWebKit/537.36 (KHTML, like Gecko) Chrome/94.0.4606.61 Safari/537.36",WebKit,Chrome,94.0.4606.61,Windows,10.0,fe3c1d035a65c549f7011c5446f73ede
28,1,null,null,psychophysics,14,92099,0.0-3.0-1.5,"""",key,null,6.944510489510404,960,484.5,"""","""","""","""","""","""","""","""","2021-10-05 02:12:54",99.240.159.202,"Mozilla/5.0 (Windows NT 10.0; Win64; x64) AppleWebKit/537.36 (KHTML, like Gecko) Chrome/94.0.4606.61 Safari/537.36",WebKit,Chrome,94.0.4606.61,Windows,10.0,fe3c1d035a65c549f7011c5446f73ede
28,1,2531.7999999523163,arrowleft,psychophysics,15,94633,0.0-3.0-0.6,"""",key,arrowleft,6.944802197802186,960,484.5,7,1,-1,26,15,25,35,true,"2021-10-05 02:12:54",99.240.159.202,"Mozilla/5.0 (Windows NT 10.0; Win64; x64) AppleWebKit/537.36 (KHTML, like Gecko) Chrome/94.0.4606.61 Safari/537.36",WebKit,Chrome,94.0.4606.61,Windows,10.0,fe3c1d035a65c549f7011c5446f73ede
28,1,null,null,psychophysics,16,95640,0.0-3.0-1.6,"""",key,null,6.945326388888942,960,484.5,"""","""","""","""","""","""","""","""","2021-10-05 02:12:54",99.240.159.202,"Mozilla/5.0 (Windows NT 10.0; Win64; x64) AppleWebKit/537.36 (KHTML, like Gecko) Chrome/94.0.4606.61 Safari/537.36",WebKit,Chrome,94.0.4606.61,Windows,10.0,fe3c1d035a65c549f7011c5446f73ede
28,1,604.6999998092651,arrowright,psychophysics,17,96247,0.0-3.0-0.7,"""",key,arrowright,6.943804597701033,960,484.5,8,1,1,30,15,25,35,true,"2021-10-05 02:12:54",99.240.159.202,"Mozilla/5.0 (Windows NT 10.0; Win64; x64) AppleWebKit/537.36 (KHTML, like Gecko) Chrome/94.0.4606.61 Safari/537.36",WebKit,Chrome,94.0.4606.61,Windows,10.0,fe3c1d035a65c549f7011c5446f73ede
28,1,null,null,psychophysics,18,97251,0.0-3.0-1.7,"""",key,null,6.944321678321682,960,484.5,"""","""","""","""","""","""","""","""","2021-10-05 02:12:54",99.240.159.202,"Mozilla/5.0 (Windows NT 10.0; Win64; x64) AppleWebKit/537.36 (KHTML, like Gecko) Chrome/94.0.4606.61 Safari/537.36",WebKit,Chrome,94.0.4606.61,Windows,10.0,fe3c1d035a65c549f7011c5446f73ede
28,1,811.5999999046326,arrowleft,psychophysics,19,98066,0.0-3.0-0.8,"""",key,arrowleft,6.94459829059826,960,484.5,9,1,1,27,35,25,35,false,"2021-10-05 02:12:54",99.240.159.202,"Mozilla/5.0 (Windows NT 10.0; Win64; x64) AppleWebKit/537.36 (KHTML, like Gecko) Chrome/94.0.4606.61 Safari/537.36",WebKit,Chrome,94.0.4606.61,Windows,10.0,fe3c1d035a65c549f7011c5446f73ede
28,1,null,null,psychophysics,20,99071,0.0-3.0-1.8,"""",key,null,6.943846153846162,960,484.5,"""","""","""","""","""","""","""","""","2021-10-05 02:12:54",99.240.159.202,"Mozilla/5.0 (Windows NT 10.0; Win64; x64) AppleWebKit/537.36 (KHTML, like Gecko) Chrome/94.0.4606.61 Safari/537.36",WebKit,Chrome,94.0.4606.61,Windows,10.0,fe3c1d035a65c549f7011c5446f73ede
28,1,445.2000000476837,arrowleft,psychophysics,21,99519,0.0-3.0-0.9,"""",key,arrowleft,6.944578124999907,960,484.5,10,1,1,20,35,25,35,false,"2021-10-05 02:12:54",99.240.159.202,"Mozilla/5.0 (Windows NT 10.0; Win64; x64) AppleWebKit/537.36 (KHTML, like Gecko) Chrome/94.0.4606.61 Safari/537.36",WebKit,Chrome,94.0.4606.61,Windows,10.0,fe3c1d035a65c549f7011c5446f73ede
28,1,null,null,psychophysics,22,100522,0.0-3.0-1.9,"""",key,null,6.944790209790181,960,484.5,"""","""","""","""","""","""","""","""","2021-10-05 02:12:54",99.240.159.202,"Mozilla/5.0 (Windows NT 10.0; Win64; x64) AppleWebKit/537.36 (KHTML, like Gecko) Chrome/94.0.4606.61 Safari/537.36",WebKit,Chrome,94.0.4606.61,Windows,10.0,fe3c1d035a65c549f7011c5446f73ede
28,1,422.7000000476837,arrowleft,psychophysics,23,100949,0.0-3.0-0.10,"""",key,arrowleft,6.944475409836025,960,484.5,11,1,-1,26,35,25,35,true,"2021-10-05 02:12:54",99.240.159.202,"Mozilla/5.0 (Windows NT 10.0; Win64; x64) AppleWebKit/537.36 (KHTML, like Gecko) Chrome/94.0.4606.61 Safari/537.36",WebKit,Chrome,94.0.4606.61,Windows,10.0,fe3c1d035a65c549f7011c5446f73ede
28,1,null,null,psychophysics,24,101951,0.0-3.0-1.10,"""",key,null,6.94493006993007,960,484.5,"""","""","""","""","""","""","""","""","2021-10-05 02:12:54",99.240.159.202,"Mozilla/5.0 (Windows NT 10.0; Win64; x64) AppleWebKit/537.36 (KHTML, like Gecko) Chrome/94.0.4606.61 Safari/537.36",WebKit,Chrome,94.0.4606.61,Windows,10.0,fe3c1d035a65c549f7011c5446f73ede
28,1,464.5,arrowleft,psychophysics,25,102419,0.0-3.0-0.11,"""",key,arrowleft,6.944283582089441,960,484.5,12,1,1,27,15,25,35,false,"2021-10-05 02:12:54",99.240.159.202,"Mozilla/5.0 (Windows NT 10.0; Win64; x64) AppleWebKit/537.36 (KHTML, like Gecko) Chrome/94.0.4606.61 Safari/537.36",WebKit,Chrome,94.0.4606.61,Windows,10.0,fe3c1d035a65c549f7011c5446f73ede
28,1,null,null,psychophysics,26,103425,0.0-3.0-1.11,"""",key,null,6.944370629370617,960,484.5,"""","""","""","""","""","""","""","""","2021-10-05 02:12:54",99.240.159.202,"Mozilla/5.0 (Windows NT 10.0; Win64; x64) AppleWebKit/537.36 (KHTML, like Gecko) Chrome/94.0.4606.61 Safari/537.36",WebKit,Chrome,94.0.4606.61,Windows,10.0,fe3c1d035a65c549f7011c5446f73ede
28,1,550.6000001430511,arrowleft,psychophysics,27,103978,0.0-3.0-0.12,"""",key,arrowleft,6.944518987341752,960,484.5,13,1,-1,27,15,25,35,true,"2021-10-05 02:12:54",99.240.159.202,"Mozilla/5.0 (Windows NT 10.0; Win64; x64) AppleWebKit/537.36 (KHTML, like Gecko) Chrome/94.0.4606.61 Safari/537.36",WebKit,Chrome,94.0.4606.61,Windows,10.0,fe3c1d035a65c549f7011c5446f73ede
28,1,null,null,psychophysics,28,104981,0.0-3.0-1.12,"""",key,null,6.944923076923152,960,484.5,"""","""","""","""","""","""","""","""","2021-10-05 02:12:54",99.240.159.202,"Mozilla/5.0 (Windows NT 10.0; Win64; x64) AppleWebKit/537.36 (KHTML, like Gecko) Chrome/94.0.4606.61 Safari/537.36",WebKit,Chrome,94.0.4606.61,Windows,10.0,fe3c1d035a65c549f7011c5446f73ede
28,1,1171.6000001430511,arrowright,psychophysics,29,106155,0.0-3.0-0.13,"""",key,arrowright,6.944727810650885,960,484.5,14,1,1,23,15,25,35,true,"2021-10-05 02:12:54",99.240.159.202,"Mozilla/5.0 (Windows NT 10.0; Win64; x64) AppleWebKit/537.36 (KHTML, like Gecko) Chrome/94.0.4606.61 Safari/537.36",WebKit,Chrome,94.0.4606.61,Windows,10.0,fe3c1d035a65c549f7011c5446f73ede
28,1,null,null,psychophysics,30,107161,0.0-3.0-1.13,"""",key,null,6.944874125874114,960,484.5,"""","""","""","""","""","""","""","""","2021-10-05 02:12:54",99.240.159.202,"Mozilla/5.0 (Windows NT 10.0; Win64; x64) AppleWebKit/537.36 (KHTML, like Gecko) Chrome/94.0.4606.61 Safari/537.36",WebKit,Chrome,94.0.4606.61,Windows,10.0,fe3c1d035a65c549f7011c5446f73ede
28,1,112029.29999995232,arrowright,psychophysics,31,219194,0.0-3.0-0.14,"""",key,arrowright,6.946347470238095,960,484.5,15,1,-1,20,35,25,35,false,"2021-10-05 02:12:54",99.240.159.202,"Mozilla/5.0 (Windows NT 10.0; Win64; x64) AppleWebKit/537.36 (KHTML, like Gecko) Chrome/94.0.4606.61 Safari/537.36",WebKit,Chrome,94.0.4606.61,Windows,10.0,fe3c1d035a65c549f7011c5446f73ede
28,1,null,null,psychophysics,32,220200,0.0-3.0-1.14,"""",key,null,6.944391608391474,960,484.5,"""","""","""","""","""","""","""","""","2021-10-05 02:12:54",99.240.159.202,"Mozilla/5.0 (Windows NT 10.0; Win64; x64) AppleWebKit/537.36 (KHTML, like Gecko) Chrome/94.0.4606.61 Safari/537.36",WebKit,Chrome,94.0.4606.61,Windows,10.0,fe3c1d035a65c549f7011c5446f73ede
28,1,1836.3999998569489,arrowright,psychophysics,33,222039,0.0-3.0-0.15,"""",key,arrowright,6.944231060606068,960,484.5,16,1,1,27,15,25,35,true,"2021-10-05 02:12:54",99.240.159.202,"Mozilla/5.0 (Windows NT 10.0; Win64; x64) AppleWebKit/537.36 (KHTML, like Gecko) Chrome/94.0.4606.61 Safari/537.36",WebKit,Chrome,94.0.4606.61,Windows,10.0,fe3c1d035a65c549f7011c5446f73ede
28,1,null,null,psychophysics,34,223040,0.0-3.0-1.15,"""",key,null,6.944965034965067,960,484.5,"""","""","""","""","""","""","""","""","2021-10-05 02:12:54",99.240.159.202,"Mozilla/5.0 (Windows NT 10.0; Win64; x64) AppleWebKit/537.36 (KHTML, like Gecko) Chrome/94.0.4606.61 Safari/537.36",WebKit,Chrome,94.0.4606.61,Windows,10.0,fe3c1d035a65c549f7011c5446f73ede
28,1,741.2000000476837,arrowleft,psychophysics,35,223784,0.0-3.0-0.16,"""",key,arrowleft,6.943579439252232,960,484.5,17,1,-1,30,15,25,35,true,"2021-10-05 02:12:54",99.240.159.202,"Mozilla/5.0 (Windows NT 10.0; Win64; x64) AppleWebKit/537.36 (KHTML, like Gecko) Chrome/94.0.4606.61 Safari/537.36",WebKit,Chrome,94.0.4606.61,Windows,10.0,fe3c1d035a65c549f7011c5446f73ede
28,1,null,null,psychophysics,36,224790,0.0-3.0-1.16,"""",key,null,6.944181818181895,960,484.5,"""","""","""","""","""","""","""","""","2021-10-05 02:12:54",99.240.159.202,"Mozilla/5.0 (Windows NT 10.0; Win64; x64) AppleWebKit/537.36 (KHTML, like Gecko) Chrome/94.0.4606.61 Safari/537.36",WebKit,Chrome,94.0.4606.61,Windows,10.0,fe3c1d035a65c549f7011c5446f73ede
28,1,596.5,arrowleft,psychophysics,37,225390,0.0-3.0-0.17,"""",key,arrowleft,6.944999999999879,960,484.5,18,1,-1,30,35,25,35,true,"2021-10-05 02:12:54",99.240.159.202,"Mozilla/5.0 (Windows NT 10.0; Win64; x64) AppleWebKit/537.36 (KHTML, like Gecko) Chrome/94.0.4606.61 Safari/537.36",WebKit,Chrome,94.0.4606.61,Windows,10.0,fe3c1d035a65c549f7011c5446f73ede
28,1,null,null,psychophysics,38,226392,0.0-3.0-1.17,"""",key,null,6.944839160839117,960,484.5,"""","""","""","""","""","""","""","""","2021-10-05 02:12:54",99.240.159.202,"Mozilla/5.0 (Windows NT 10.0; Win64; x64) AppleWebKit/537.36 (KHTML, like Gecko) Chrome/94.0.4606.61 Safari/537.36",WebKit,Chrome,94.0.4606.61,Windows,10.0,fe3c1d035a65c549f7011c5446f73ede
28,1,1318.0999999046326,arrowright,psychophysics,39,227712,0.0-3.0-0.18,"""",key,arrowright,6.944968253968187,960,484.5,19,1,1,30,35,25,35,true,"2021-10-05 02:12:54",99.240.159.202,"Mozilla/5.0 (Windows NT 10.0; Win64; x64) AppleWebKit/537.36 (KHTML, like Gecko) Chrome/94.0.4606.61 Safari/537.36",WebKit,Chrome,94.0.4606.61,Windows,10.0,fe3c1d035a65c549f7011c5446f73ede
28,1,null,null,psychophysics,40,228714,0.0-3.0-1.18,"""",key,null,6.945559440559416,960,484.5,"""","""","""","""","""","""","""","""","2021-10-05 02:12:54",99.240.159.202,"Mozilla/5.0 (Windows NT 10.0; Win64; x64) AppleWebKit/537.36 (KHTML, like Gecko) Chrome/94.0.4606.61 Safari/537.36",WebKit,Chrome,94.0.4606.61,Windows,10.0,fe3c1d035a65c549f7011c5446f73ede
28,1,1907.8000001907349,arrowleft,psychophysics,41,230624,0.0-3.0-0.19,"""",key,arrowleft,6.9443490909090775,960,484.5,20,1,-1,20,15,25,35,true,"2021-10-05 02:12:54",99.240.159.202,"Mozilla/5.0 (Windows NT 10.0; Win64; x64) AppleWebKit/537.36 (KHTML, like Gecko) Chrome/94.0.4606.61 Safari/537.36",WebKit,Chrome,94.0.4606.61,Windows,10.0,fe3c1d035a65c549f7011c5446f73ede
28,1,null,null,psychophysics,42,231631,0.0-3.0-1.19,"""",key,null,6.945104895104854,960,484.5,"""","""","""","""","""","""","""","""","2021-10-05 02:12:54",99.240.159.202,"Mozilla/5.0 (Windows NT 10.0; Win64; x64) AppleWebKit/537.36 (KHTML, like Gecko) Chrome/94.0.4606.61 Safari/537.36",WebKit,Chrome,94.0.4606.61,Windows,10.0,fe3c1d035a65c549f7011c5446f73ede
28,1,8963.5,arrowleft,psychophysics,43,240596,0.0-3.0-0.20,"""",key,arrowleft,6.944596436870656,960,484.5,21,1,-1,25,35,25,35,true,"2021-10-05 02:12:54",99.240.159.202,"Mozilla/5.0 (Windows NT 10.0; Win64; x64) AppleWebKit/537.36 (KHTML, like Gecko) Chrome/94.0.4606.61 Safari/537.36",WebKit,Chrome,94.0.4606.61,Windows,10.0,fe3c1d035a65c549f7011c5446f73ede
28,1,null,null,psychophysics,44,241602,0.0-3.0-1.20,"""",key,null,6.943685314685213,960,484.5,"""","""","""","""","""","""","""","""","2021-10-05 02:12:54",99.240.159.202,"Mozilla/5.0 (Windows NT 10.0; Win64; x64) AppleWebKit/537.36 (KHTML, like Gecko) Chrome/94.0.4606.61 Safari/537.36",WebKit,Chrome,94.0.4606.61,Windows,10.0,fe3c1d035a65c549f7011c5446f73ede
28,1,729.2000000476837,arrowleft,psychophysics,45,242333,0.0-3.0-0.21,"""",key,arrowleft,6.944904761904729,960,484.5,22,1,-1,24,15,25,35,true,"2021-10-05 02:12:54",99.240.159.202,"Mozilla/5.0 (Windows NT 10.0; Win64; x64) AppleWebKit/537.36 (KHTML, like Gecko) Chrome/94.0.4606.61 Safari/537.36",WebKit,Chrome,94.0.4606.61,Windows,10.0,fe3c1d035a65c549f7011c5446f73ede
28,1,null,null,psychophysics,46,243338,0.0-3.0-1.21,"""",key,null,6.945083916083896,960,484.5,"""","""","""","""","""","""","""","""","2021-10-05 02:12:54",99.240.159.202,"Mozilla/5.0 (Windows NT 10.0; Win64; x64) AppleWebKit/537.36 (KHTML, like Gecko) Chrome/94.0.4606.61 Safari/537.36",WebKit,Chrome,94.0.4606.61,Windows,10.0,fe3c1d035a65c549f7011c5446f73ede
28,1,1476.7000000476837,arrowleft,psychophysics,47,244818,0.0-3.0-0.22,"""",key,arrowleft,6.944646226415023,960,484.5,23,1,1,25,35,25,35,false,"2021-10-05 02:12:54",99.240.159.202,"Mozilla/5.0 (Windows NT 10.0; Win64; x64) AppleWebKit/537.36 (KHTML, like Gecko) Chrome/94.0.4606.61 Safari/537.36",WebKit,Chrome,94.0.4606.61,Windows,10.0,fe3c1d035a65c549f7011c5446f73ede
28,1,null,null,psychophysics,48,245825,0.0-3.0-1.22,"""",key,null,6.944708333333336,960,484.5,"""","""","""","""","""","""","""","""","2021-10-05 02:12:54",99.240.159.202,"Mozilla/5.0 (Windows NT 10.0; Win64; x64) AppleWebKit/537.36 (KHTML, like Gecko) Chrome/94.0.4606.61 Safari/537.36",WebKit,Chrome,94.0.4606.61,Windows,10.0,fe3c1d035a65c549f7011c5446f73ede
28,1,1971.2000000476837,arrowleft,psychophysics,49,247798,0.0-3.0-0.23,"""",key,arrowleft,6.944654929577488,960,484.5,24,1,1,23,15,25,35,false,"2021-10-05 02:12:54",99.240.159.202,"Mozilla/5.0 (Windows NT 10.0; Win64; x64) AppleWebKit/537.36 (KHTML, like Gecko) Chrome/94.0.4606.61 Safari/537.36",WebKit,Chrome,94.0.4606.61,Windows,10.0,fe3c1d035a65c549f7011c5446f73ede
28,1,null,null,psychophysics,50,248804,0.0-3.0-1.23,"""",key,null,6.944524475524545,960,484.5,"""","""","""","""","""","""","""","""","2021-10-05 02:12:54",99.240.159.202,"Mozilla/5.0 (Windows NT 10.0; Win64; x64) AppleWebKit/537.36 (KHTML, like Gecko) Chrome/94.0.4606.61 Safari/537.36",WebKit,Chrome,94.0.4606.61,Windows,10.0,fe3c1d035a65c549f7011c5446f73ede
28,1,727.2999999523163,arrowleft,psychophysics,51,249534,0.0-3.0-0.24,"""",key,arrowleft,6.9446190476190255,960,484.5,25,1,-1,23,15,25,35,true,"2021-10-05 02:12:54",99.240.159.202,"Mozilla/5.0 (Windows NT 10.0; Win64; x64) AppleWebKit/537.36 (KHTML, like Gecko) Chrome/94.0.4606.61 Safari/537.36",WebKit,Chrome,94.0.4606.61,Windows,10.0,fe3c1d035a65c549f7011c5446f73ede
28,1,null,null,psychophysics,52,250539,0.0-3.0-1.24,"""",key,null,6.944566433566258,960,484.5,"""","""","""","""","""","""","""","""","2021-10-05 02:12:54",99.240.159.202,"Mozilla/5.0 (Windows NT 10.0; Win64; x64) AppleWebKit/537.36 (KHTML, like Gecko) Chrome/94.0.4606.61 Safari/537.36",WebKit,Chrome,94.0.4606.61,Windows,10.0,fe3c1d035a65c549f7011c5446f73ede
28,1,1300.8999998569489,arrowleft,psychophysics,53,251843,0.0-3.0-0.25,"""",key,arrowleft,6.9445721925134185,960,484.5,26,1,1,30,35,25,35,false,"2021-10-05 02:12:54",99.240.159.202,"Mozilla/5.0 (Windows NT 10.0; Win64; x64) AppleWebKit/537.36 (KHTML, like Gecko) Chrome/94.0.4606.61 Safari/537.36",WebKit,Chrome,94.0.4606.61,Windows,10.0,fe3c1d035a65c549f7011c5446f73ede
28,1,null,null,psychophysics,54,252845,0.0-3.0-1.25,"""",key,null,6.9457412587413225,960,484.5,"""","""","""","""","""","""","""","""","2021-10-05 02:12:54",99.240.159.202,"Mozilla/5.0 (Windows NT 10.0; Win64; x64) AppleWebKit/537.36 (KHTML, like Gecko) Chrome/94.0.4606.61 Safari/537.36",WebKit,Chrome,94.0.4606.61,Windows,10.0,fe3c1d035a65c549f7011c5446f73ede
28,1,1130.1000001430511,arrowright,psychophysics,55,253978,0.0-3.0-0.26,"""",key,arrowright,6.944638036809786,960,484.5,27,1,1,27,15,25,35,true,"2021-10-05 02:12:54",99.240.159.202,"Mozilla/5.0 (Windows NT 10.0; Win64; x64) AppleWebKit/537.36 (KHTML, like Gecko) Chrome/94.0.4606.61 Safari/537.36",WebKit,Chrome,94.0.4606.61,Windows,10.0,fe3c1d035a65c549f7011c5446f73ede
28,1,null,null,psychophysics,56,254984,0.0-3.0-1.26,"""",key,null,6.94469930069933,960,484.5,"""","""","""","""","""","""","""","""","2021-10-05 02:12:54",99.240.159.202,"Mozilla/5.0 (Windows NT 10.0; Win64; x64) AppleWebKit/537.36 (KHTML, like Gecko) Chrome/94.0.4606.61 Safari/537.36",WebKit,Chrome,94.0.4606.61,Windows,10.0,fe3c1d035a65c549f7011c5446f73ede
28,1,2140.0999999046326,arrowleft,psychophysics,57,257127,0.0-3.0-0.27,"""",key,arrowleft,6.944493506493537,960,484.5,28,2,-1,30,35,25,35,true,"2021-10-05 02:12:54",99.240.159.202,"Mozilla/5.0 (Windows NT 10.0; Win64; x64) AppleWebKit/537.36 (KHTML, like Gecko) Chrome/94.0.4606.61 Safari/537.36",WebKit,Chrome,94.0.4606.61,Windows,10.0,fe3c1d035a65c549f7011c5446f73ede
28,1,null,null,psychophysics,58,258131,0.0-3.0-1.27,"""",key,null,6.944853146852953,960,484.5,"""","""","""","""","""","""","""","""","2021-10-05 02:12:54",99.240.159.202,"Mozilla/5.0 (Windows NT 10.0; Win64; x64) AppleWebKit/537.36 (KHTML, like Gecko) Chrome/94.0.4606.61 Safari/537.36",WebKit,Chrome,94.0.4606.61,Windows,10.0,fe3c1d035a65c549f7011c5446f73ede
28,1,21176," ",html-keyboard-response,59,279307,0.0-3.0-2.27-0.27,"<div style=""color: white; text-align: center; vertical-align: top; display: inline-block; width: 800px; margin: auto""><p>You have completed 10% of the trials. You are on block 2 of 10. <br>Good job! Take a break if you need to.</p><p>Press any key to continue the experiment.</p></div>","""","""","""","""","""","""","""","""","""","""","""","""","""","2021-10-05 02:12:54",99.240.159.202,"Mozilla/5.0 (Windows NT 10.0; Win64; x64) AppleWebKit/537.36 (KHTML, like Gecko) Chrome/94.0.4606.61 Safari/537.36",WebKit,Chrome,94.0.4606.61,Windows,10.0,fe3c1d035a65c549f7011c5446f73ede
28,1,632,arrowleft,psychophysics,60,280949,0.0-3.0-0.28,"""",key,arrowleft,6.946934065934409,960,484.5,29,2,-1,25,15,25,35,true,"2021-10-05 02:12:54",99.240.159.202,"Mozilla/5.0 (Windows NT 10.0; Win64; x64) AppleWebKit/537.36 (KHTML, like Gecko) Chrome/94.0.4606.61 Safari/537.36",WebKit,Chrome,94.0.4606.61,Windows,10.0,fe3c1d035a65c549f7011c5446f73ede
28,1,null,null,psychophysics,61,281950,0.0-3.0-1.28,"""",key,null,6.945258741258478,960,484.5,"""","""","""","""","""","""","""","""","2021-10-05 02:12:54",99.240.159.202,"Mozilla/5.0 (Windows NT 10.0; Win64; x64) AppleWebKit/537.36 (KHTML, like Gecko) Chrome/94.0.4606.61 Safari/537.36",WebKit,Chrome,94.0.4606.61,Windows,10.0,fe3c1d035a65c549f7011c5446f73ede
28,1,761.5,arrowleft,psychophysics,62,282714,0.0-3.0-0.29,"""",key,arrowleft,6.944559633027476,960,484.5,30,2,-1,26,15,25,35,true,"2021-10-05 02:12:54",99.240.159.202,"Mozilla/5.0 (Windows NT 10.0; Win64; x64) AppleWebKit/537.36 (KHTML, like Gecko) Chrome/94.0.4606.61 Safari/537.36",WebKit,Chrome,94.0.4606.61,Windows,10.0,fe3c1d035a65c549f7011c5446f73ede
28,1,null,null,psychophysics,63,283714,0.0-3.0-1.29,"""",key,null,6.944587412587419,960,484.5,"""","""","""","""","""","""","""","""","2021-10-05 02:12:54",99.240.159.202,"Mozilla/5.0 (Windows NT 10.0; Win64; x64) AppleWebKit/537.36 (KHTML, like Gecko) Chrome/94.0.4606.61 Safari/537.36",WebKit,Chrome,94.0.4606.61,Windows,10.0,fe3c1d035a65c549f7011c5446f73ede
28,1,20700.10000014305,arrowright,psychophysics,64,304417,0.0-3.0-0.30,"""",key,arrowright,6.9938996621621525,960,484.5,31,2,-1,23,35,25,35,false,"2021-10-05 02:12:54",99.240.159.202,"Mozilla/5.0 (Windows NT 10.0; Win64; x64) AppleWebKit/537.36 (KHTML, like Gecko) Chrome/94.0.4606.61 Safari/537.36",WebKit,Chrome,94.0.4606.61,Windows,10.0,fe3c1d035a65c549f7011c5446f73ede
28,1,null,null,psychophysics,65,305420,0.0-3.0-1.30,"""",key,null,6.944272727272848,960,484.5,"""","""","""","""","""","""","""","""","2021-10-05 02:12:54",99.240.159.202,"Mozilla/5.0 (Windows NT 10.0; Win64; x64) AppleWebKit/537.36 (KHTML, like Gecko) Chrome/94.0.4606.61 Safari/537.36",WebKit,Chrome,94.0.4606.61,Windows,10.0,fe3c1d035a65c549f7011c5446f73ede
28,1,1020.8000001907349,arrowleft,psychophysics,66,306443,0.0-3.0-0.31,"""",key,arrowleft,6.94428767123274,960,484.5,32,2,-1,30,35,25,35,true,"2021-10-05 02:12:54",99.240.159.202,"Mozilla/5.0 (Windows NT 10.0; Win64; x64) AppleWebKit/537.36 (KHTML, like Gecko) Chrome/94.0.4606.61 Safari/537.36",WebKit,Chrome,94.0.4606.61,Windows,10.0,fe3c1d035a65c549f7011c5446f73ede
28,1,null,null,psychophysics,67,307444,0.0-3.0-1.31,"""",key,null,6.944622377622417,960,484.5,"""","""","""","""","""","""","""","""","2021-10-05 02:12:54",99.240.159.202,"Mozilla/5.0 (Windows NT 10.0; Win64; x64) AppleWebKit/537.36 (KHTML, like Gecko) Chrome/94.0.4606.61 Safari/537.36",WebKit,Chrome,94.0.4606.61,Windows,10.0,fe3c1d035a65c549f7011c5446f73ede
28,1,1085.5,arrowright,psychophysics,68,308532,0.0-3.0-0.32,"""",key,arrowright,6.944634615384693,960,484.5,33,2,1,30,15,25,35,true,"2021-10-05 02:12:54",99.240.159.202,"Mozilla/5.0 (Windows NT 10.0; Win64; x64) AppleWebKit/537.36 (KHTML, like Gecko) Chrome/94.0.4606.61 Safari/537.36",WebKit,Chrome,94.0.4606.61,Windows,10.0,fe3c1d035a65c549f7011c5446f73ede
28,1,null,null,psychophysics,69,309535,0.0-3.0-1.32,"""",key,null,6.9938521126759055,960,484.5,"""","""","""","""","""","""","""","""","2021-10-05 02:12:54",99.240.159.202,"Mozilla/5.0 (Windows NT 10.0; Win64; x64) AppleWebKit/537.36 (KHTML, like Gecko) Chrome/94.0.4606.61 Safari/537.36",WebKit,Chrome,94.0.4606.61,Windows,10.0,fe3c1d035a65c549f7011c5446f73ede
28,1,1364.2000000476837,arrowleft,psychophysics,70,310901,0.0-3.0-0.33,"""",key,arrowleft,6.944688775510425,960,484.5,34,2,-1,23,35,25,35,true,"2021-10-05 02:12:54",99.240.159.202,"Mozilla/5.0 (Windows NT 10.0; Win64; x64) AppleWebKit/537.36 (KHTML, like Gecko) Chrome/94.0.4606.61 Safari/537.36",WebKit,Chrome,94.0.4606.61,Windows,10.0,fe3c1d035a65c549f7011c5446f73ede
28,1,null,null,psychophysics,71,311906,0.0-3.0-1.33,"""",key,null,6.945249999999861,960,484.5,"""","""","""","""","""","""","""","""","2021-10-05 02:12:54",99.240.159.202,"Mozilla/5.0 (Windows NT 10.0; Win64; x64) AppleWebKit/537.36 (KHTML, like Gecko) Chrome/94.0.4606.61 Safari/537.36",WebKit,Chrome,94.0.4606.61,Windows,10.0,fe3c1d035a65c549f7011c5446f73ede
28,1,2679.0999999046326,arrowleft,psychophysics,72,314587,0.0-3.0-0.34,"""",key,arrowleft,6.944522077922087,960,484.5,35,2,1,20,15,25,35,false,"2021-10-05 02:12:54",99.240.159.202,"Mozilla/5.0 (Windows NT 10.0; Win64; x64) AppleWebKit/537.36 (KHTML, like Gecko) Chrome/94.0.4606.61 Safari/537.36",WebKit,Chrome,94.0.4606.61,Windows,10.0,fe3c1d035a65c549f7011c5446f73ede
28,1,null,null,psychophysics,73,315591,0.0-3.0-1.34,"""",key,null,6.944104895105185,960,484.5,"""","""","""","""","""","""","""","""","2021-10-05 02:12:54",99.240.159.202,"Mozilla/5.0 (Windows NT 10.0; Win64; x64) AppleWebKit/537.36 (KHTML, like Gecko) Chrome/94.0.4606.61 Safari/537.36",WebKit,Chrome,94.0.4606.61,Windows,10.0,fe3c1d035a65c549f7011c5446f73ede
28,1,1308.1000001430511,arrowleft,psychophysics,74,316902,0.0-3.0-0.35,"""",key,arrowleft,6.944622340425725,960,484.5,36,2,1,20,15,25,35,false,"2021-10-05 02:12:54",99.240.159.202,"Mozilla/5.0 (Windows NT 10.0; Win64; x64) AppleWebKit/537.36 (KHTML, like Gecko) Chrome/94.0.4606.61 Safari/537.36",WebKit,Chrome,94.0.4606.61,Windows,10.0,fe3c1d035a65c549f7011c5446f73ede
28,1,null,null,psychophysics,75,317910,0.0-3.0-1.35,"""",key,null,6.944541666666838,960,484.5,"""","""","""","""","""","""","""","""","2021-10-05 02:12:54",99.240.159.202,"Mozilla/5.0 (Windows NT 10.0; Win64; x64) AppleWebKit/537.36 (KHTML, like Gecko) Chrome/94.0.4606.61 Safari/537.36",WebKit,Chrome,94.0.4606.61,Windows,10.0,fe3c1d035a65c549f7011c5446f73ede
28,1,1851.0999999046326,arrowright,psychophysics,76,319763,0.0-3.0-0.36,"""",key,arrowright,6.945078947368433,960,484.5,37,2,1,27,15,25,35,true,"2021-10-05 02:12:54",99.240.159.202,"Mozilla/5.0 (Windows NT 10.0; Win64; x64) AppleWebKit/537.36 (KHTML, like Gecko) Chrome/94.0.4606.61 Safari/537.36",WebKit,Chrome,94.0.4606.61,Windows,10.0,fe3c1d035a65c549f7011c5446f73ede
28,1,null,null,psychophysics,77,320764,0.0-3.0-1.36,"""",key,null,6.945027972027738,960,484.5,"""","""","""","""","""","""","""","""","2021-10-05 02:12:54",99.240.159.202,"Mozilla/5.0 (Windows NT 10.0; Win64; x64) AppleWebKit/537.36 (KHTML, like Gecko) Chrome/94.0.4606.61 Safari/537.36",WebKit,Chrome,94.0.4606.61,Windows,10.0,fe3c1d035a65c549f7011c5446f73ede
28,1,581.0999999046326,arrowleft,psychophysics,78,321347,0.0-3.0-0.37,"""",key,arrowleft,6.943951807228893,960,484.5,38,2,-1,25,35,25,35,true,"2021-10-05 02:12:54",99.240.159.202,"Mozilla/5.0 (Windows NT 10.0; Win64; x64) AppleWebKit/537.36 (KHTML, like Gecko) Chrome/94.0.4606.61 Safari/537.36",WebKit,Chrome,94.0.4606.61,Windows,10.0,fe3c1d035a65c549f7011c5446f73ede
28,1,null,null,psychophysics,79,322348,0.0-3.0-1.37,"""",key,null,6.94522222222238,960,484.5,"""","""","""","""","""","""","""","""","2021-10-05 02:12:54",99.240.159.202,"Mozilla/5.0 (Windows NT 10.0; Win64; x64) AppleWebKit/537.36 (KHTML, like Gecko) Chrome/94.0.4606.61 Safari/537.36",WebKit,Chrome,94.0.4606.61,Windows,10.0,fe3c1d035a65c549f7011c5446f73ede
28,1,638.1000001430511,arrowleft,psychophysics,80,322991,0.0-3.0-0.38,"""",key,arrowleft,6.943714285714572,960,484.5,39,2,-1,23,15,25,35,true,"2021-10-05 02:12:54",99.240.159.202,"Mozilla/5.0 (Windows NT 10.0; Win64; x64) AppleWebKit/537.36 (KHTML, like Gecko) Chrome/94.0.4606.61 Safari/537.36",WebKit,Chrome,94.0.4606.61,Windows,10.0,fe3c1d035a65c549f7011c5446f73ede
28,1,null,null,psychophysics,81,323993,0.0-3.0-1.38,"""",key,null,6.945000000000065,960,484.5,"""","""","""","""","""","""","""","""","2021-10-05 02:12:54",99.240.159.202,"Mozilla/5.0 (Windows NT 10.0; Win64; x64) AppleWebKit/537.36 (KHTML, like Gecko) Chrome/94.0.4606.61 Safari/537.36",WebKit,Chrome,94.0.4606.61,Windows,10.0,fe3c1d035a65c549f7011c5446f73ede
28,1,792.7000000476837,arrowleft,psychophysics,82,324788,0.0-3.0-0.39,"""",key,arrowleft,6.9449035087717785,960,484.5,40,2,1,30,35,25,35,false,"2021-10-05 02:12:54",99.240.159.202,"Mozilla/5.0 (Windows NT 10.0; Win64; x64) AppleWebKit/537.36 (KHTML, like Gecko) Chrome/94.0.4606.61 Safari/537.36",WebKit,Chrome,94.0.4606.61,Windows,10.0,fe3c1d035a65c549f7011c5446f73ede
28,1,null,null,psychophysics,83,325792,0.0-3.0-1.39,"""",key,null,6.944916083915826,960,484.5,"""","""","""","""","""","""","""","""","2021-10-05 02:12:54",99.240.159.202,"Mozilla/5.0 (Windows NT 10.0; Win64; x64) AppleWebKit/537.36 (KHTML, like Gecko) Chrome/94.0.4606.61 Safari/537.36",WebKit,Chrome,94.0.4606.61,Windows,10.0,fe3c1d035a65c549f7011c5446f73ede
28,1,693.2999999523163,arrowleft,psychophysics,84,326488,0.0-3.0-0.40,"""",key,arrowleft,6.943550000000396,960,484.5,41,2,-1,23,35,25,35,true,"2021-10-05 02:12:54",99.240.159.202,"Mozilla/5.0 (Windows NT 10.0; Win64; x64) AppleWebKit/537.36 (KHTML, like Gecko) Chrome/94.0.4606.61 Safari/537.36",WebKit,Chrome,94.0.4606.61,Windows,10.0,fe3c1d035a65c549f7011c5446f73ede
28,1,null,null,psychophysics,85,327490,0.0-3.0-1.40,"""",key,null,6.94513286713273,960,484.5,"""","""","""","""","""","""","""","""","2021-10-05 02:12:54",99.240.159.202,"Mozilla/5.0 (Windows NT 10.0; Win64; x64) AppleWebKit/537.36 (KHTML, like Gecko) Chrome/94.0.4606.61 Safari/537.36",WebKit,Chrome,94.0.4606.61,Windows,10.0,fe3c1d035a65c549f7011c5446f73ede
28,1,539.3999998569489,arrowleft,psychophysics,86,328032,0.0-3.0-0.41,"""",key,arrowleft,6.944298701298834,960,484.5,42,2,-1,26,15,25,35,true,"2021-10-05 02:12:54",99.240.159.202,"Mozilla/5.0 (Windows NT 10.0; Win64; x64) AppleWebKit/537.36 (KHTML, like Gecko) Chrome/94.0.4606.61 Safari/537.36",WebKit,Chrome,94.0.4606.61,Windows,10.0,fe3c1d035a65c549f7011c5446f73ede
28,1,null,null,psychophysics,87,329035,0.0-3.0-1.41,"""",key,null,6.9446503496500895,960,484.5,"""","""","""","""","""","""","""","""","2021-10-05 02:12:54",99.240.159.202,"Mozilla/5.0 (Windows NT 10.0; Win64; x64) AppleWebKit/537.36 (KHTML, like Gecko) Chrome/94.0.4606.61 Safari/537.36",WebKit,Chrome,94.0.4606.61,Windows,10.0,fe3c1d035a65c549f7011c5446f73ede
28,1,688,arrowright,psychophysics,88,329725,0.0-3.0-0.42,"""",key,arrowright,6.945828282828161,960,484.5,43,2,1,26,15,25,35,true,"2021-10-05 02:12:54",99.240.159.202,"Mozilla/5.0 (Windows NT 10.0; Win64; x64) AppleWebKit/537.36 (KHTML, like Gecko) Chrome/94.0.4606.61 Safari/537.36",WebKit,Chrome,94.0.4606.61,Windows,10.0,fe3c1d035a65c549f7011c5446f73ede
28,1,null,null,psychophysics,89,330730,0.0-3.0-1.42,"""",key,null,6.944776223776243,960,484.5,"""","""","""","""","""","""","""","""","2021-10-05 02:12:54",99.240.159.202,"Mozilla/5.0 (Windows NT 10.0; Win64; x64) AppleWebKit/537.36 (KHTML, like Gecko) Chrome/94.0.4606.61 Safari/537.36",WebKit,Chrome,94.0.4606.61,Windows,10.0,fe3c1d035a65c549f7011c5446f73ede
28,1,609.7000000476837,arrowleft,psychophysics,90,331342,0.0-3.0-0.43,"""",key,arrowleft,6.945420454545291,960,484.5,44,2,-1,27,35,25,35,true,"2021-10-05 02:12:54",99.240.159.202,"Mozilla/5.0 (Windows NT 10.0; Win64; x64) AppleWebKit/537.36 (KHTML, like Gecko) Chrome/94.0.4606.61 Safari/537.36",WebKit,Chrome,94.0.4606.61,Windows,10.0,fe3c1d035a65c549f7011c5446f73ede
28,1,null,null,psychophysics,91,332345,0.0-3.0-1.43,"""",key,null,6.944993006993147,960,484.5,"""","""","""","""","""","""","""","""","2021-10-05 02:12:54",99.240.159.202,"Mozilla/5.0 (Windows NT 10.0; Win64; x64) AppleWebKit/537.36 (KHTML, like Gecko) Chrome/94.0.4606.61 Safari/537.36",WebKit,Chrome,94.0.4606.61,Windows,10.0,fe3c1d035a65c549f7011c5446f73ede
28,1,1051.3000001907349,arrowright,psychophysics,92,333398,0.0-3.0-0.44,"""",key,arrowright,6.9451721854302075,960,484.5,45,2,1,26,15,25,35,true,"2021-10-05 02:12:54",99.240.159.202,"Mozilla/5.0 (Windows NT 10.0; Win64; x64) AppleWebKit/537.36 (KHTML, like Gecko) Chrome/94.0.4606.61 Safari/537.36",WebKit,Chrome,94.0.4606.61,Windows,10.0,fe3c1d035a65c549f7011c5446f73ede
28,1,null,null,psychophysics,93,334403,0.0-3.0-1.44,"""",key,null,6.94469930069933,960,484.5,"""","""","""","""","""","""","""","""","2021-10-05 02:12:54",99.240.159.202,"Mozilla/5.0 (Windows NT 10.0; Win64; x64) AppleWebKit/537.36 (KHTML, like Gecko) Chrome/94.0.4606.61 Safari/537.36",WebKit,Chrome,94.0.4606.61,Windows,10.0,fe3c1d035a65c549f7011c5446f73ede
28,1,1992.7000000476837,arrowright,psychophysics,94,336398,0.0-3.0-0.45,"""",key,arrowright,6.944770034843324,960,484.5,46,2,-1,20,15,25,35,false,"2021-10-05 02:12:54",99.240.159.202,"Mozilla/5.0 (Windows NT 10.0; Win64; x64) AppleWebKit/537.36 (KHTML, like Gecko) Chrome/94.0.4606.61 Safari/537.36",WebKit,Chrome,94.0.4606.61,Windows,10.0,fe3c1d035a65c549f7011c5446f73ede
28,1,null,null,psychophysics,95,337403,0.0-3.0-1.45,"""",key,null,6.944643356643578,960,484.5,"""","""","""","""","""","""","""","""","2021-10-05 02:12:54",99.240.159.202,"Mozilla/5.0 (Windows NT 10.0; Win64; x64) AppleWebKit/537.36 (KHTML, like Gecko) Chrome/94.0.4606.61 Safari/537.36",WebKit,Chrome,94.0.4606.61,Windows,10.0,fe3c1d035a65c549f7011c5446f73ede
28,1,987.7999999523163,arrowleft,psychophysics,96,338393,0.0-3.0-0.46,"""",key,arrowleft,6.9448380281691255,960,484.5,47,2,1,23,15,25,35,false,"2021-10-05 02:12:54",99.240.159.202,"Mozilla/5.0 (Windows NT 10.0; Win64; x64) AppleWebKit/537.36 (KHTML, like Gecko) Chrome/94.0.4606.61 Safari/537.36",WebKit,Chrome,94.0.4606.61,Windows,10.0,fe3c1d035a65c549f7011c5446f73ede
28,1,null,null,psychophysics,97,339397,0.0-3.0-1.46,"""",key,null,6.945391608391957,960,484.5,"""","""","""","""","""","""","""","""","2021-10-05 02:12:54",99.240.159.202,"Mozilla/5.0 (Windows NT 10.0; Win64; x64) AppleWebKit/537.36 (KHTML, like Gecko) Chrome/94.0.4606.61 Safari/537.36",WebKit,Chrome,94.0.4606.61,Windows,10.0,fe3c1d035a65c549f7011c5446f73ede
28,1,693.7999999523163,arrowright,psychophysics,98,340095,0.0-3.0-0.47,"""",key,arrowright,6.944210000000312,960,484.5,48,2,-1,20,35,25,35,false,"2021-10-05 02:12:54",99.240.159.202,"Mozilla/5.0 (Windows NT 10.0; Win64; x64) AppleWebKit/537.36 (KHTML, like Gecko) Chrome/94.0.4606.61 Safari/537.36",WebKit,Chrome,94.0.4606.61,Windows,10.0,fe3c1d035a65c549f7011c5446f73ede
28,1,null,null,psychophysics,99,341098,0.0-3.0-1.47,"""",key,null,6.9454265734265475,960,484.5,"""","""","""","""","""","""","""","""","2021-10-05 02:12:54",99.240.159.202,"Mozilla/5.0 (Windows NT 10.0; Win64; x64) AppleWebKit/537.36 (KHTML, like Gecko) Chrome/94.0.4606.61 Safari/537.36",WebKit,Chrome,94.0.4606.61,Windows,10.0,fe3c1d035a65c549f7011c5446f73ede
28,1,550.9000000953674,arrowright,psychophysics,100,341651,0.0-3.0-0.48,"""",key,arrowright,6.945126582278216,960,484.5,49,2,1,23,15,25,35,true,"2021-10-05 02:12:54",99.240.159.202,"Mozilla/5.0 (Windows NT 10.0; Win64; x64) AppleWebKit/537.36 (KHTML, like Gecko) Chrome/94.0.4606.61 Safari/537.36",WebKit,Chrome,94.0.4606.61,Windows,10.0,fe3c1d035a65c549f7011c5446f73ede
28,1,null,null,psychophysics,101,342654,0.0-3.0-1.48,"""",key,null,6.94430069930052,960,484.5,"""","""","""","""","""","""","""","""","2021-10-05 02:12:54",99.240.159.202,"Mozilla/5.0 (Windows NT 10.0; Win64; x64) AppleWebKit/537.36 (KHTML, like Gecko) Chrome/94.0.4606.61 Safari/537.36",WebKit,Chrome,94.0.4606.61,Windows,10.0,fe3c1d035a65c549f7011c5446f73ede
28,1,2696,arrowright,psychophysics,102,345352,0.0-3.0-0.49,"""",key,arrowright,6.944520618556669,960,484.5,50,2,-1,20,35,25,35,false,"2021-10-05 02:12:54",99.240.159.202,"Mozilla/5.0 (Windows NT 10.0; Win64; x64) AppleWebKit/537.36 (KHTML, like Gecko) Chrome/94.0.4606.61 Safari/537.36",WebKit,Chrome,94.0.4606.61,Windows,10.0,fe3c1d035a65c549f7011c5446f73ede
28,1,null,null,psychophysics,103,346355,0.0-3.0-1.49,"""",key,null,6.9444825174824265,960,484.5,"""","""","""","""","""","""","""","""","2021-10-05 02:12:54",99.240.159.202,"Mozilla/5.0 (Windows NT 10.0; Win64; x64) AppleWebKit/537.36 (KHTML, like Gecko) Chrome/94.0.4606.61 Safari/537.36",WebKit,Chrome,94.0.4606.61,Windows,10.0,fe3c1d035a65c549f7011c5446f73ede
28,1,1283.4000000953674,arrowright,psychophysics,104,347641,0.0-3.0-0.50,"""",key,arrowright,6.944345945946092,960,484.5,51,2,1,25,35,25,35,true,"2021-10-05 02:12:54",99.240.159.202,"Mozilla/5.0 (Windows NT 10.0; Win64; x64) AppleWebKit/537.36 (KHTML, like Gecko) Chrome/94.0.4606.61 Safari/537.36",WebKit,Chrome,94.0.4606.61,Windows,10.0,fe3c1d035a65c549f7011c5446f73ede
28,1,null,null,psychophysics,105,348642,0.0-3.0-1.50,"""",key,null,6.944769230768918,960,484.5,"""","""","""","""","""","""","""","""","2021-10-05 02:12:54",99.240.159.202,"Mozilla/5.0 (Windows NT 10.0; Win64; x64) AppleWebKit/537.36 (KHTML, like Gecko) Chrome/94.0.4606.61 Safari/537.36",WebKit,Chrome,94.0.4606.61,Windows,10.0,fe3c1d035a65c549f7011c5446f73ede
28,1,890,arrowright,psychophysics,106,349535,0.0-3.0-0.51,"""",key,arrowright,6.9440629921255885,960,484.5,52,2,1,30,35,25,35,true,"2021-10-05 02:12:54",99.240.159.202,"Mozilla/5.0 (Windows NT 10.0; Win64; x64) AppleWebKit/537.36 (KHTML, like Gecko) Chrome/94.0.4606.61 Safari/537.36",WebKit,Chrome,94.0.4606.61,Windows,10.0,fe3c1d035a65c549f7011c5446f73ede
28,1,null,null,psychophysics,107,350536,0.0-3.0-1.51,"""",key,null,6.94482638888884,960,484.5,"""","""","""","""","""","""","""","""","2021-10-05 02:12:54",99.240.159.202,"Mozilla/5.0 (Windows NT 10.0; Win64; x64) AppleWebKit/537.36 (KHTML, like Gecko) Chrome/94.0.4606.61 Safari/537.36",WebKit,Chrome,94.0.4606.61,Windows,10.0,fe3c1d035a65c549f7011c5446f73ede
28,1,808.4000000953674,arrowright,psychophysics,108,351347,0.0-3.0-0.52,"""",key,arrowright,6.944886956521836,960,484.5,53,2,1,27,35,25,35,true,"2021-10-05 02:12:54",99.240.159.202,"Mozilla/5.0 (Windows NT 10.0; Win64; x64) AppleWebKit/537.36 (KHTML, like Gecko) Chrome/94.0.4606.61 Safari/537.36",WebKit,Chrome,94.0.4606.61,Windows,10.0,fe3c1d035a65c549f7011c5446f73ede
28,1,null,null,psychophysics,109,352355,0.0-3.0-1.52,"""",key,null,6.945194444444496,960,484.5,"""","""","""","""","""","""","""","""","2021-10-05 02:12:54",99.240.159.202,"Mozilla/5.0 (Windows NT 10.0; Win64; x64) AppleWebKit/537.36 (KHTML, like Gecko) Chrome/94.0.4606.61 Safari/537.36",WebKit,Chrome,94.0.4606.61,Windows,10.0,fe3c1d035a65c549f7011c5446f73ede
28,1,724.8999998569489,arrowleft,psychophysics,110,353082,0.0-3.0-0.53,"""",key,arrowleft,6.945057692307343,960,484.5,54,2,-1,26,15,25,35,true,"2021-10-05 02:12:54",99.240.159.202,"Mozilla/5.0 (Windows NT 10.0; Win64; x64) AppleWebKit/537.36 (KHTML, like Gecko) Chrome/94.0.4606.61 Safari/537.36",WebKit,Chrome,94.0.4606.61,Windows,10.0,fe3c1d035a65c549f7011c5446f73ede
28,1,null,null,psychophysics,111,354084,0.0-3.0-1.53,"""",key,null,6.945020979021226,960,484.5,"""","""","""","""","""","""","""","""","2021-10-05 02:12:54",99.240.159.202,"Mozilla/5.0 (Windows NT 10.0; Win64; x64) AppleWebKit/537.36 (KHTML, like Gecko) Chrome/94.0.4606.61 Safari/537.36",WebKit,Chrome,94.0.4606.61,Windows,10.0,fe3c1d035a65c549f7011c5446f73ede
28,1,816.7999999523163,arrowright,psychophysics,112,354903,0.0-3.0-0.54,"""",key,arrowright,6.94518803418803,960,484.5,55,2,1,24,15,25,35,true,"2021-10-05 02:12:54",99.240.159.202,"Mozilla/5.0 (Windows NT 10.0; Win64; x64) AppleWebKit/537.36 (KHTML, like Gecko) Chrome/94.0.4606.61 Safari/537.36",WebKit,Chrome,94.0.4606.61,Windows,10.0,fe3c1d035a65c549f7011c5446f73ede
28,1,null,null,psychophysics,113,355905,0.0-3.0-1.54,"""",key,null,6.944520833333324,960,484.5,"""","""","""","""","""","""","""","""","2021-10-05 02:12:54",99.240.159.202,"Mozilla/5.0 (Windows NT 10.0; Win64; x64) AppleWebKit/537.36 (KHTML, like Gecko) Chrome/94.0.4606.61 Safari/537.36",WebKit,Chrome,94.0.4606.61,Windows,10.0,fe3c1d035a65c549f7011c5446f73ede
28,1,763.9000000953674,arrowleft,psychophysics,114,356672,0.0-3.0-0.55,"""",key,arrowleft,6.944110091743081,960,484.5,56,3,1,20,35,25,35,false,"2021-10-05 02:12:54",99.240.159.202,"Mozilla/5.0 (Windows NT 10.0; Win64; x64) AppleWebKit/537.36 (KHTML, like Gecko) Chrome/94.0.4606.61 Safari/537.36",WebKit,Chrome,94.0.4606.61,Windows,10.0,fe3c1d035a65c549f7011c5446f73ede
28,1,null,null,psychophysics,115,357675,0.0-3.0-1.55,"""",key,null,6.945166666666612,960,484.5,"""","""","""","""","""","""","""","""","2021-10-05 02:12:54",99.240.159.202,"Mozilla/5.0 (Windows NT 10.0; Win64; x64) AppleWebKit/537.36 (KHTML, like Gecko) Chrome/94.0.4606.61 Safari/537.36",WebKit,Chrome,94.0.4606.61,Windows,10.0,fe3c1d035a65c549f7011c5446f73ede
28,1,7092,arrowright,html-keyboard-response,116,364770,0.0-3.0-2.55-0.55,"<div style=""color: white; text-align: center; vertical-align: top; display: inline-block; width: 800px; margin: auto""><p>You have completed 20% of the trials. You are on block 3 of 10. <br>Good job! Take a break if you need to.</p><p>Press any key to continue the experiment.</p></div>","""","""","""","""","""","""","""","""","""","""","""","""","""","2021-10-05 02:12:54",99.240.159.202,"Mozilla/5.0 (Windows NT 10.0; Win64; x64) AppleWebKit/537.36 (KHTML, like Gecko) Chrome/94.0.4606.61 Safari/537.36",WebKit,Chrome,94.0.4606.61,Windows,10.0,fe3c1d035a65c549f7011c5446f73ede
28,1,639.0999999046326,arrowleft,psychophysics,117,366418,0.0-3.0-0.56,"""",key,arrowleft,6.946249999999924,960,484.5,57,3,-1,30,15,25,35,true,"2021-10-05 02:12:54",99.240.159.202,"Mozilla/5.0 (Windows NT 10.0; Win64; x64) AppleWebKit/537.36 (KHTML, like Gecko) Chrome/94.0.4606.61 Safari/537.36",WebKit,Chrome,94.0.4606.61,Windows,10.0,fe3c1d035a65c549f7011c5446f73ede
28,1,null,null,psychophysics,118,367421,0.0-3.0-1.56,"""",key,null,6.944861111111095,960,484.5,"""","""","""","""","""","""","""","""","2021-10-05 02:12:54",99.240.159.202,"Mozilla/5.0 (Windows NT 10.0; Win64; x64) AppleWebKit/537.36 (KHTML, like Gecko) Chrome/94.0.4606.61 Safari/537.36",WebKit,Chrome,94.0.4606.61,Windows,10.0,fe3c1d035a65c549f7011c5446f73ede
28,1,1098.8999998569489,arrowleft,psychophysics,119,368522,0.0-3.0-0.57,"""",key,arrowleft,6.944331210191142,960,484.5,58,3,-1,24,15,25,35,true,"2021-10-05 02:12:54",99.240.159.202,"Mozilla/5.0 (Windows NT 10.0; Win64; x64) AppleWebKit/537.36 (KHTML, like Gecko) Chrome/94.0.4606.61 Safari/537.36",WebKit,Chrome,94.0.4606.61,Windows,10.0,fe3c1d035a65c549f7011c5446f73ede
28,1,null,null,psychophysics,120,369523,0.0-3.0-1.57,"""",key,null,6.944797202797405,960,484.5,"""","""","""","""","""","""","""","""","2021-10-05 02:12:54",99.240.159.202,"Mozilla/5.0 (Windows NT 10.0; Win64; x64) AppleWebKit/537.36 (KHTML, like Gecko) Chrome/94.0.4606.61 Safari/537.36",WebKit,Chrome,94.0.4606.61,Windows,10.0,fe3c1d035a65c549f7011c5446f73ede
28,1,688.5999999046326,arrowleft,psychophysics,121,370214,0.0-3.0-0.58,"""",key,arrowleft,6.943909090908945,960,484.5,59,3,-1,27,15,25,35,true,"2021-10-05 02:12:54",99.240.159.202,"Mozilla/5.0 (Windows NT 10.0; Win64; x64) AppleWebKit/537.36 (KHTML, like Gecko) Chrome/94.0.4606.61 Safari/537.36",WebKit,Chrome,94.0.4606.61,Windows,10.0,fe3c1d035a65c549f7011c5446f73ede
28,1,null,null,psychophysics,122,371215,0.0-3.0-1.58,"""",key,null,6.9452447552450485,960,484.5,"""","""","""","""","""","""","""","""","2021-10-05 02:12:54",99.240.159.202,"Mozilla/5.0 (Windows NT 10.0; Win64; x64) AppleWebKit/537.36 (KHTML, like Gecko) Chrome/94.0.4606.61 Safari/537.36",WebKit,Chrome,94.0.4606.61,Windows,10.0,fe3c1d035a65c549f7011c5446f73ede
28,1,853.8000001907349,arrowright,psychophysics,123,372071,0.0-3.0-0.59,"""",key,arrowright,6.9450327868852,960,484.5,60,3,1,25,15,25,35,true,"2021-10-05 02:12:54",99.240.159.202,"Mozilla/5.0 (Windows NT 10.0; Win64; x64) AppleWebKit/537.36 (KHTML, like Gecko) Chrome/94.0.4606.61 Safari/537.36",WebKit,Chrome,94.0.4606.61,Windows,10.0,fe3c1d035a65c549f7011c5446f73ede
28,1,null,null,psychophysics,124,373074,0.0-3.0-1.59,"""",key,null,6.945347222222255,960,484.5,"""","""","""","""","""","""","""","""","2021-10-05 02:12:54",99.240.159.202,"Mozilla/5.0 (Windows NT 10.0; Win64; x64) AppleWebKit/537.36 (KHTML, like Gecko) Chrome/94.0.4606.61 Safari/537.36",WebKit,Chrome,94.0.4606.61,Windows,10.0,fe3c1d035a65c549f7011c5446f73ede
28,1,775.7000000476837,arrowleft,psychophysics,125,373852,0.0-3.0-0.60,"""",key,arrowleft,6.94476576576582,960,484.5,61,3,-1,25,35,25,35,true,"2021-10-05 02:12:54",99.240.159.202,"Mozilla/5.0 (Windows NT 10.0; Win64; x64) AppleWebKit/537.36 (KHTML, like Gecko) Chrome/94.0.4606.61 Safari/537.36",WebKit,Chrome,94.0.4606.61,Windows,10.0,fe3c1d035a65c549f7011c5446f73ede
28,1,null,null,psychophysics,126,374852,0.0-3.0-1.60,"""",key,null,6.944748251748164,960,484.5,"""","""","""","""","""","""","""","""","2021-10-05 02:12:54",99.240.159.202,"Mozilla/5.0 (Windows NT 10.0; Win64; x64) AppleWebKit/537.36 (KHTML, like Gecko) Chrome/94.0.4606.61 Safari/537.36",WebKit,Chrome,94.0.4606.61,Windows,10.0,fe3c1d035a65c549f7011c5446f73ede
28,1,689.3999998569489,arrowleft,psychophysics,127,375544,0.0-3.0-0.61,"""",key,arrowleft,6.944602040816289,960,484.5,62,3,-1,27,35,25,35,true,"2021-10-05 02:12:54",99.240.159.202,"Mozilla/5.0 (Windows NT 10.0; Win64; x64) AppleWebKit/537.36 (KHTML, like Gecko) Chrome/94.0.4606.61 Safari/537.36",WebKit,Chrome,94.0.4606.61,Windows,10.0,fe3c1d035a65c549f7011c5446f73ede
28,1,null,null,psychophysics,128,376545,0.0-3.0-1.61,"""",key,null,6.945479166666903,960,484.5,"""","""","""","""","""","""","""","""","2021-10-05 02:12:54",99.240.159.202,"Mozilla/5.0 (Windows NT 10.0; Win64; x64) AppleWebKit/537.36 (KHTML, like Gecko) Chrome/94.0.4606.61 Safari/537.36",WebKit,Chrome,94.0.4606.61,Windows,10.0,fe3c1d035a65c549f7011c5446f73ede
28,1,779.3000001907349,arrowleft,psychophysics,129,377327,0.0-3.0-0.62,"""",key,arrowleft,6.945351351351427,960,484.5,63,3,-1,26,35,25,35,true,"2021-10-05 02:12:54",99.240.159.202,"Mozilla/5.0 (Windows NT 10.0; Win64; x64) AppleWebKit/537.36 (KHTML, like Gecko) Chrome/94.0.4606.61 Safari/537.36",WebKit,Chrome,94.0.4606.61,Windows,10.0,fe3c1d035a65c549f7011c5446f73ede
28,1,null,null,psychophysics,130,378327,0.0-3.0-1.62,"""",key,null,6.945062937063142,960,484.5,"""","""","""","""","""","""","""","""","2021-10-05 02:12:54",99.240.159.202,"Mozilla/5.0 (Windows NT 10.0; Win64; x64) AppleWebKit/537.36 (KHTML, like Gecko) Chrome/94.0.4606.61 Safari/537.36",WebKit,Chrome,94.0.4606.61,Windows,10.0,fe3c1d035a65c549f7011c5446f73ede
28,1,1179.1000001430511,arrowleft,psychophysics,131,379511,0.0-3.0-0.63,"""",key,arrowleft,6.94473529411788,960,484.5,64,3,1,20,15,25,35,false,"2021-10-05 02:12:54",99.240.159.202,"Mozilla/5.0 (Windows NT 10.0; Win64; x64) AppleWebKit/537.36 (KHTML, like Gecko) Chrome/94.0.4606.61 Safari/537.36",WebKit,Chrome,94.0.4606.61,Windows,10.0,fe3c1d035a65c549f7011c5446f73ede
28,1,null,null,psychophysics,132,380512,0.0-3.0-1.63,"""",key,null,6.9443146853147635,960,484.5,"""","""","""","""","""","""","""","""","2021-10-05 02:12:54",99.240.159.202,"Mozilla/5.0 (Windows NT 10.0; Win64; x64) AppleWebKit/537.36 (KHTML, like Gecko) Chrome/94.0.4606.61 Safari/537.36",WebKit,Chrome,94.0.4606.61,Windows,10.0,fe3c1d035a65c549f7011c5446f73ede
28,1,3729.5999999046326,arrowleft,psychophysics,133,384245,0.0-3.0-0.64,"""",key,arrowleft,6.944509328358178,960,484.5,65,3,-1,23,15,25,35,true,"2021-10-05 02:12:54",99.240.159.202,"Mozilla/5.0 (Windows NT 10.0; Win64; x64) AppleWebKit/537.36 (KHTML, like Gecko) Chrome/94.0.4606.61 Safari/537.36",WebKit,Chrome,94.0.4606.61,Windows,10.0,fe3c1d035a65c549f7011c5446f73ede
28,1,null,null,psychophysics,134,385248,0.0-3.0-1.64,"""",key,null,6.94530555555563,960,484.5,"""","""","""","""","""","""","""","""","2021-10-05 02:12:54",99.240.159.202,"Mozilla/5.0 (Windows NT 10.0; Win64; x64) AppleWebKit/537.36 (KHTML, like Gecko) Chrome/94.0.4606.61 Safari/537.36",WebKit,Chrome,94.0.4606.61,Windows,10.0,fe3c1d035a65c549f7011c5446f73ede
28,1,693.0999999046326,arrowright,psychophysics,135,385945,0.0-3.0-0.65,"""",key,arrowright,6.945313131313235,960,484.5,66,3,1,25,15,25,35,true,"2021-10-05 02:12:54",99.240.159.202,"Mozilla/5.0 (Windows NT 10.0; Win64; x64) AppleWebKit/537.36 (KHTML, like Gecko) Chrome/94.0.4606.61 Safari/537.36",WebKit,Chrome,94.0.4606.61,Windows,10.0,fe3c1d035a65c549f7011c5446f73ede
28,1,null,null,psychophysics,136,386947,0.0-3.0-1.65,"""",key,null,6.944524475524342,960,484.5,"""","""","""","""","""","""","""","""","2021-10-05 02:12:54",99.240.159.202,"Mozilla/5.0 (Windows NT 10.0; Win64; x64) AppleWebKit/537.36 (KHTML, like Gecko) Chrome/94.0.4606.61 Safari/537.36",WebKit,Chrome,94.0.4606.61,Windows,10.0,fe3c1d035a65c549f7011c5446f73ede
28,1,750.3999998569489,arrowleft,psychophysics,137,387702,0.0-3.0-0.66,"""",key,arrowleft,6.943824074074251,960,484.5,67,3,-1,25,35,25,35,true,"2021-10-05 02:12:54",99.240.159.202,"Mozilla/5.0 (Windows NT 10.0; Win64; x64) AppleWebKit/537.36 (KHTML, like Gecko) Chrome/94.0.4606.61 Safari/537.36",WebKit,Chrome,94.0.4606.61,Windows,10.0,fe3c1d035a65c549f7011c5446f73ede
28,1,null,null,psychophysics,138,388703,0.0-3.0-1.66,"""",key,null,6.9448391608393205,960,484.5,"""","""","""","""","""","""","""","""","2021-10-05 02:12:54",99.240.159.202,"Mozilla/5.0 (Windows NT 10.0; Win64; x64) AppleWebKit/537.36 (KHTML, like Gecko) Chrome/94.0.4606.61 Safari/537.36",WebKit,Chrome,94.0.4606.61,Windows,10.0,fe3c1d035a65c549f7011c5446f73ede
28,1,766.6000001430511,arrowright,psychophysics,139,389473,0.0-3.0-0.67,"""",key,arrowright,6.944009090909226,960,484.5,68,3,-1,24,35,25,35,false,"2021-10-05 02:12:54",99.240.159.202,"Mozilla/5.0 (Windows NT 10.0; Win64; x64) AppleWebKit/537.36 (KHTML, like Gecko) Chrome/94.0.4606.61 Safari/537.36",WebKit,Chrome,94.0.4606.61,Windows,10.0,fe3c1d035a65c549f7011c5446f73ede
28,1,null,null,psychophysics,140,390474,0.0-3.0-1.67,"""",key,null,6.944090909090941,960,484.5,"""","""","""","""","""","""","""","""","2021-10-05 02:12:54",99.240.159.202,"Mozilla/5.0 (Windows NT 10.0; Win64; x64) AppleWebKit/537.36 (KHTML, like Gecko) Chrome/94.0.4606.61 Safari/537.36",WebKit,Chrome,94.0.4606.61,Windows,10.0,fe3c1d035a65c549f7011c5446f73ede
28,1,1008.7999999523163,arrowright,psychophysics,141,391487,0.0-3.0-0.68,"""",key,arrowright,6.945317241379285,960,484.5,69,3,-1,25,35,25,35,false,"2021-10-05 02:12:54",99.240.159.202,"Mozilla/5.0 (Windows NT 10.0; Win64; x64) AppleWebKit/537.36 (KHTML, like Gecko) Chrome/94.0.4606.61 Safari/537.36",WebKit,Chrome,94.0.4606.61,Windows,10.0,fe3c1d035a65c549f7011c5446f73ede
28,1,null,null,psychophysics,142,392489,0.0-3.0-1.68,"""",key,null,6.945279720279639,960,484.5,"""","""","""","""","""","""","""","""","2021-10-05 02:12:54",99.240.159.202,"Mozilla/5.0 (Windows NT 10.0; Win64; x64) AppleWebKit/537.36 (KHTML, like Gecko) Chrome/94.0.4606.61 Safari/537.36",WebKit,Chrome,94.0.4606.61,Windows,10.0,fe3c1d035a65c549f7011c5446f73ede
28,1,5590.899999856949,arrowright,psychophysics,143,398082,0.0-3.0-0.69,"""",key,arrowright,6.944566459627389,960,484.5,70,3,1,24,35,25,35,true,"2021-10-05 02:12:54",99.240.159.202,"Mozilla/5.0 (Windows NT 10.0; Win64; x64) AppleWebKit/537.36 (KHTML, like Gecko) Chrome/94.0.4606.61 Safari/537.36",WebKit,Chrome,94.0.4606.61,Windows,10.0,fe3c1d035a65c549f7011c5446f73ede
28,1,null,null,psychophysics,144,399084,0.0-3.0-1.69,"""",key,null,6.9448531468531565,960,484.5,"""","""","""","""","""","""","""","""","2021-10-05 02:12:54",99.240.159.202,"Mozilla/5.0 (Windows NT 10.0; Win64; x64) AppleWebKit/537.36 (KHTML, like Gecko) Chrome/94.0.4606.61 Safari/537.36",WebKit,Chrome,94.0.4606.61,Windows,10.0,fe3c1d035a65c549f7011c5446f73ede
28,1,862.0999999046326,arrowleft,psychophysics,145,399950,0.0-3.0-0.70,"""",key,arrowleft,6.945508064515795,960,484.5,71,3,-1,30,15,25,35,true,"2021-10-05 02:12:54",99.240.159.202,"Mozilla/5.0 (Windows NT 10.0; Win64; x64) AppleWebKit/537.36 (KHTML, like Gecko) Chrome/94.0.4606.61 Safari/537.36",WebKit,Chrome,94.0.4606.61,Windows,10.0,fe3c1d035a65c549f7011c5446f73ede
28,1,null,null,psychophysics,146,400951,0.0-3.0-1.70,"""",key,null,6.94403496503519,960,484.5,"""","""","""","""","""","""","""","""","2021-10-05 02:12:54",99.240.159.202,"Mozilla/5.0 (Windows NT 10.0; Win64; x64) AppleWebKit/537.36 (KHTML, like Gecko) Chrome/94.0.4606.61 Safari/537.36",WebKit,Chrome,94.0.4606.61,Windows,10.0,fe3c1d035a65c549f7011c5446f73ede
28,1,6743.299999952316,arrowright,psychophysics,147,407697,0.0-3.0-0.71,"""",key,arrowright,6.944616494845351,960,484.5,72,3,1,27,15,25,35,true,"2021-10-05 02:12:54",99.240.159.202,"Mozilla/5.0 (Windows NT 10.0; Win64; x64) AppleWebKit/537.36 (KHTML, like Gecko) Chrome/94.0.4606.61 Safari/537.36",WebKit,Chrome,94.0.4606.61,Windows,10.0,fe3c1d035a65c549f7011c5446f73ede
28,1,null,null,psychophysics,148,408701,0.0-3.0-1.71,"""",key,null,6.945374999999735,960,484.5,"""","""","""","""","""","""","""","""","2021-10-05 02:12:54",99.240.159.202,"Mozilla/5.0 (Windows NT 10.0; Win64; x64) AppleWebKit/537.36 (KHTML, like Gecko) Chrome/94.0.4606.61 Safari/537.36",WebKit,Chrome,94.0.4606.61,Windows,10.0,fe3c1d035a65c549f7011c5446f73ede
28,1,864.2999999523163,arrowright,psychophysics,149,409567,0.0-3.0-0.72,"""",key,arrowright,6.9441451612905025,960,484.5,73,3,1,27,15,25,35,true,"2021-10-05 02:12:54",99.240.159.202,"Mozilla/5.0 (Windows NT 10.0; Win64; x64) AppleWebKit/537.36 (KHTML, like Gecko) Chrome/94.0.4606.61 Safari/537.36",WebKit,Chrome,94.0.4606.61,Windows,10.0,fe3c1d035a65c549f7011c5446f73ede
28,1,null,null,psychophysics,150,410568,0.0-3.0-1.72,"""",key,null,6.944923076923152,960,484.5,"""","""","""","""","""","""","""","""","2021-10-05 02:12:54",99.240.159.202,"Mozilla/5.0 (Windows NT 10.0; Win64; x64) AppleWebKit/537.36 (KHTML, like Gecko) Chrome/94.0.4606.61 Safari/537.36",WebKit,Chrome,94.0.4606.61,Windows,10.0,fe3c1d035a65c549f7011c5446f73ede
28,1,1016.9000000953674,arrowright,psychophysics,151,411587,0.0-3.0-0.73,"""",key,arrowright,6.943821917807887,960,484.5,74,3,-1,23,35,25,35,false,"2021-10-05 02:12:54",99.240.159.202,"Mozilla/5.0 (Windows NT 10.0; Win64; x64) AppleWebKit/537.36 (KHTML, like Gecko) Chrome/94.0.4606.61 Safari/537.36",WebKit,Chrome,94.0.4606.61,Windows,10.0,fe3c1d035a65c549f7011c5446f73ede
28,1,null,null,psychophysics,152,412589,0.0-3.0-1.73,"""",key,null,6.943650349650623,960,484.5,"""","""","""","""","""","""","""","""","2021-10-05 02:12:54",99.240.159.202,"Mozilla/5.0 (Windows NT 10.0; Win64; x64) AppleWebKit/537.36 (KHTML, like Gecko) Chrome/94.0.4606.61 Safari/537.36",WebKit,Chrome,94.0.4606.61,Windows,10.0,fe3c1d035a65c549f7011c5446f73ede
28,1,582.7000000476837,arrowleft,psychophysics,153,413174,0.0-3.0-0.74,"""",key,arrowleft,6.943746987951875,960,484.5,75,3,1,23,35,25,35,false,"2021-10-05 02:12:54",99.240.159.202,"Mozilla/5.0 (Windows NT 10.0; Win64; x64) AppleWebKit/537.36 (KHTML, like Gecko) Chrome/94.0.4606.61 Safari/537.36",WebKit,Chrome,94.0.4606.61,Windows,10.0,fe3c1d035a65c549f7011c5446f73ede
28,1,null,null,psychophysics,154,414177,0.0-3.0-1.74,"""",key,null,6.944636363636253,960,484.5,"""","""","""","""","""","""","""","""","2021-10-05 02:12:54",99.240.159.202,"Mozilla/5.0 (Windows NT 10.0; Win64; x64) AppleWebKit/537.36 (KHTML, like Gecko) Chrome/94.0.4606.61 Safari/537.36",WebKit,Chrome,94.0.4606.61,Windows,10.0,fe3c1d035a65c549f7011c5446f73ede
28,1,586.6999998092651,arrowleft,psychophysics,155,414766,0.0-3.0-0.75,"""",key,arrowleft,6.945261904761927,960,484.5,76,3,-1,24,15,25,35,true,"2021-10-05 02:12:54",99.240.159.202,"Mozilla/5.0 (Windows NT 10.0; Win64; x64) AppleWebKit/537.36 (KHTML, like Gecko) Chrome/94.0.4606.61 Safari/537.36",WebKit,Chrome,94.0.4606.61,Windows,10.0,fe3c1d035a65c549f7011c5446f73ede
28,1,null,null,psychophysics,156,415767,0.0-3.0-1.75,"""",key,null,6.944888111887747,960,484.5,"""","""","""","""","""","""","""","""","2021-10-05 02:12:54",99.240.159.202,"Mozilla/5.0 (Windows NT 10.0; Win64; x64) AppleWebKit/537.36 (KHTML, like Gecko) Chrome/94.0.4606.61 Safari/537.36",WebKit,Chrome,94.0.4606.61,Windows,10.0,fe3c1d035a65c549f7011c5446f73ede
28,1,641.7000000476837,arrowright,psychophysics,157,416411,0.0-3.0-0.76,"""",key,arrowright,6.944217391303897,960,484.5,77,3,1,26,15,25,35,true,"2021-10-05 02:12:54",99.240.159.202,"Mozilla/5.0 (Windows NT 10.0; Win64; x64) AppleWebKit/537.36 (KHTML, like Gecko) Chrome/94.0.4606.61 Safari/537.36",WebKit,Chrome,94.0.4606.61,Windows,10.0,fe3c1d035a65c549f7011c5446f73ede
28,1,null,null,psychophysics,158,417413,0.0-3.0-1.76,"""",key,null,6.9443006993009275,960,484.5,"""","""","""","""","""","""","""","""","2021-10-05 02:12:54",99.240.159.202,"Mozilla/5.0 (Windows NT 10.0; Win64; x64) AppleWebKit/537.36 (KHTML, like Gecko) Chrome/94.0.4606.61 Safari/537.36",WebKit,Chrome,94.0.4606.61,Windows,10.0,fe3c1d035a65c549f7011c5446f73ede
28,1,653.5,arrowright,psychophysics,159,418069,0.0-3.0-0.77,"""",key,arrowright,6.94502127659569,960,484.5,78,3,-1,20,35,25,35,false,"2021-10-05 02:12:54",99.240.159.202,"Mozilla/5.0 (Windows NT 10.0; Win64; x64) AppleWebKit/537.36 (KHTML, like Gecko) Chrome/94.0.4606.61 Safari/537.36",WebKit,Chrome,94.0.4606.61,Windows,10.0,fe3c1d035a65c549f7011c5446f73ede
28,1,null,null,psychophysics,160,419069,0.0-3.0-1.77,"""",key,null,6.944636363636253,960,484.5,"""","""","""","""","""","""","""","""","2021-10-05 02:12:54",99.240.159.202,"Mozilla/5.0 (Windows NT 10.0; Win64; x64) AppleWebKit/537.36 (KHTML, like Gecko) Chrome/94.0.4606.61 Safari/537.36",WebKit,Chrome,94.0.4606.61,Windows,10.0,fe3c1d035a65c549f7011c5446f73ede
28,1,1277.4000000953674,arrowright,psychophysics,161,420350,0.0-3.0-0.78,"""",key,arrowright,6.94453005464474,960,484.5,79,3,-1,20,15,25,35,false,"2021-10-05 02:12:54",99.240.159.202,"Mozilla/5.0 (Windows NT 10.0; Win64; x64) AppleWebKit/537.36 (KHTML, like Gecko) Chrome/94.0.4606.61 Safari/537.36",WebKit,Chrome,94.0.4606.61,Windows,10.0,fe3c1d035a65c549f7011c5446f73ede
28,1,null,null,psychophysics,162,421351,0.0-3.0-1.78,"""",key,null,6.944604166666573,960,484.5,"""","""","""","""","""","""","""","""","2021-10-05 02:12:54",99.240.159.202,"Mozilla/5.0 (Windows NT 10.0; Win64; x64) AppleWebKit/537.36 (KHTML, like Gecko) Chrome/94.0.4606.61 Safari/537.36",WebKit,Chrome,94.0.4606.61,Windows,10.0,fe3c1d035a65c549f7011c5446f73ede
28,1,932.3999998569489,arrowright,psychophysics,163,422286,0.0-3.0-0.79,"""",key,arrowright,6.944315789473992,960,484.5,80,3,-1,20,15,25,35,false,"2021-10-05 02:12:54",99.240.159.202,"Mozilla/5.0 (Windows NT 10.0; Win64; x64) AppleWebKit/537.36 (KHTML, like Gecko) Chrome/94.0.4606.61 Safari/537.36",WebKit,Chrome,94.0.4606.61,Windows,10.0,fe3c1d035a65c549f7011c5446f73ede
28,1,null,null,psychophysics,164,423289,0.0-3.0-1.79,"""",key,null,6.944770833333475,960,484.5,"""","""","""","""","""","""","""","""","2021-10-05 02:12:54",99.240.159.202,"Mozilla/5.0 (Windows NT 10.0; Win64; x64) AppleWebKit/537.36 (KHTML, like Gecko) Chrome/94.0.4606.61 Safari/537.36",WebKit,Chrome,94.0.4606.61,Windows,10.0,fe3c1d035a65c549f7011c5446f73ede
28,1,1399.2999999523163,arrowright,psychophysics,165,424692,0.0-3.0-0.80,"""",key,arrowright,6.944273631840791,960,484.5,81,3,1,27,35,25,35,true,"2021-10-05 02:12:54",99.240.159.202,"Mozilla/5.0 (Windows NT 10.0; Win64; x64) AppleWebKit/537.36 (KHTML, like Gecko) Chrome/94.0.4606.61 Safari/537.36",WebKit,Chrome,94.0.4606.61,Windows,10.0,fe3c1d035a65c549f7011c5446f73ede
28,1,null,null,psychophysics,166,425698,0.0-3.0-1.80,"""",key,null,7.093092857142827,960,484.5,"""","""","""","""","""","""","""","""","2021-10-05 02:12:54",99.240.159.202,"Mozilla/5.0 (Windows NT 10.0; Win64; x64) AppleWebKit/537.36 (KHTML, like Gecko) Chrome/94.0.4606.61 Safari/537.36",WebKit,Chrome,94.0.4606.61,Windows,10.0,fe3c1d035a65c549f7011c5446f73ede
28,1,867.4000000953674,arrowleft,psychophysics,167,426568,0.0-3.0-0.81,"""",key,arrowleft,6.944864000000059,960,484.5,82,3,1,23,15,25,35,false,"2021-10-05 02:12:54",99.240.159.202,"Mozilla/5.0 (Windows NT 10.0; Win64; x64) AppleWebKit/537.36 (KHTML, like Gecko) Chrome/94.0.4606.61 Safari/537.36",WebKit,Chrome,94.0.4606.61,Windows,10.0,fe3c1d035a65c549f7011c5446f73ede
28,1,null,null,psychophysics,168,427573,0.0-3.0-1.81,"""",key,null,6.944545454545503,960,484.5,"""","""","""","""","""","""","""","""","2021-10-05 02:12:54",99.240.159.202,"Mozilla/5.0 (Windows NT 10.0; Win64; x64) AppleWebKit/537.36 (KHTML, like Gecko) Chrome/94.0.4606.61 Safari/537.36",WebKit,Chrome,94.0.4606.61,Windows,10.0,fe3c1d035a65c549f7011c5446f73ede
28,1,941,arrowleft,psychophysics,169,428517,0.0-3.0-0.82,"""",key,arrowleft,6.944525925925916,960,484.5,83,3,1,24,35,25,35,false,"2021-10-05 02:12:54",99.240.159.202,"Mozilla/5.0 (Windows NT 10.0; Win64; x64) AppleWebKit/537.36 (KHTML, like Gecko) Chrome/94.0.4606.61 Safari/537.36",WebKit,Chrome,94.0.4606.61,Windows,10.0,fe3c1d035a65c549f7011c5446f73ede
28,1,null,null,psychophysics,170,429518,0.0-3.0-1.82,"""",key,null,6.944916083915826,960,484.5,"""","""","""","""","""","""","""","""","2021-10-05 02:12:54",99.240.159.202,"Mozilla/5.0 (Windows NT 10.0; Win64; x64) AppleWebKit/537.36 (KHTML, like Gecko) Chrome/94.0.4606.61 Safari/537.36",WebKit,Chrome,94.0.4606.61,Windows,10.0,fe3c1d035a65c549f7011c5446f73ede
28,1,935.4000000953674,arrowright,psychophysics,171,430456,0.0-3.0-0.83,"""",key,arrowright,6.944207407407359,960,484.5,84,4,-1,23,15,25,35,false,"2021-10-05 02:12:54",99.240.159.202,"Mozilla/5.0 (Windows NT 10.0; Win64; x64) AppleWebKit/537.36 (KHTML, like Gecko) Chrome/94.0.4606.61 Safari/537.36",WebKit,Chrome,94.0.4606.61,Windows,10.0,fe3c1d035a65c549f7011c5446f73ede
28,1,null,null,psychophysics,172,431462,0.0-3.0-1.83,"""",key,null,6.944951048951231,960,484.5,"""","""","""","""","""","""","""","""","2021-10-05 02:12:54",99.240.159.202,"Mozilla/5.0 (Windows NT 10.0; Win64; x64) AppleWebKit/537.36 (KHTML, like Gecko) Chrome/94.0.4606.61 Safari/537.36",WebKit,Chrome,94.0.4606.61,Windows,10.0,fe3c1d035a65c549f7011c5446f73ede
28,1,1773.2999999523163,arrowright,html-keyboard-response,173,433236,0.0-3.0-2.83-0.83,"<div style=""color: white; text-align: center; vertical-align: top; display: inline-block; width: 800px; margin: auto""><p>You have completed 30% of the trials. You are on block 4 of 10. <br>Good job! Take a break if you need to.</p><p>Press any key to continue the experiment.</p></div>","""","""","""","""","""","""","""","""","""","""","""","""","""","2021-10-05 02:12:54",99.240.159.202,"Mozilla/5.0 (Windows NT 10.0; Win64; x64) AppleWebKit/537.36 (KHTML, like Gecko) Chrome/94.0.4606.61 Safari/537.36",WebKit,Chrome,94.0.4606.61,Windows,10.0,fe3c1d035a65c549f7011c5446f73ede
28,1,1652.9000000953674,arrowright,psychophysics,174,435897,0.0-3.0-0.84,"""",key,arrowright,6.945352941176496,960,484.5,85,4,-1,20,35,25,35,false,"2021-10-05 02:12:54",99.240.159.202,"Mozilla/5.0 (Windows NT 10.0; Win64; x64) AppleWebKit/537.36 (KHTML, like Gecko) Chrome/94.0.4606.61 Safari/537.36",WebKit,Chrome,94.0.4606.61,Windows,10.0,fe3c1d035a65c549f7011c5446f73ede
28,1,null,null,psychophysics,175,436898,0.0-3.0-1.84,"""",key,null,6.944902097902397,960,484.5,"""","""","""","""","""","""","""","""","2021-10-05 02:12:54",99.240.159.202,"Mozilla/5.0 (Windows NT 10.0; Win64; x64) AppleWebKit/537.36 (KHTML, like Gecko) Chrome/94.0.4606.61 Safari/537.36",WebKit,Chrome,94.0.4606.61,Windows,10.0,fe3c1d035a65c549f7011c5446f73ede
28,1,1186.5,arrowleft,psychophysics,176,438089,0.0-3.0-0.85,"""",key,arrowleft,6.944409356725181,960,484.5,86,4,-1,24,35,25,35,true,"2021-10-05 02:12:54",99.240.159.202,"Mozilla/5.0 (Windows NT 10.0; Win64; x64) AppleWebKit/537.36 (KHTML, like Gecko) Chrome/94.0.4606.61 Safari/537.36",WebKit,Chrome,94.0.4606.61,Windows,10.0,fe3c1d035a65c549f7011c5446f73ede
28,1,null,null,psychophysics,177,439089,0.0-3.0-1.85,"""",key,null,6.944538461538178,960,484.5,"""","""","""","""","""","""","""","""","2021-10-05 02:12:54",99.240.159.202,"Mozilla/5.0 (Windows NT 10.0; Win64; x64) AppleWebKit/537.36 (KHTML, like Gecko) Chrome/94.0.4606.61 Safari/537.36",WebKit,Chrome,94.0.4606.61,Windows,10.0,fe3c1d035a65c549f7011c5446f73ede
28,1,517.5999999046326,arrowleft,psychophysics,178,439609,0.0-3.0-0.86,"""",key,arrowleft,6.943797297297499,960,484.5,87,4,-1,30,35,25,35,true,"2021-10-05 02:12:54",99.240.159.202,"Mozilla/5.0 (Windows NT 10.0; Win64; x64) AppleWebKit/537.36 (KHTML, like Gecko) Chrome/94.0.4606.61 Safari/537.36",WebKit,Chrome,94.0.4606.61,Windows,10.0,fe3c1d035a65c549f7011c5446f73ede
28,1,null,null,psychophysics,179,440611,0.0-3.0-1.86,"""",key,null,6.943867132867527,960,484.5,"""","""","""","""","""","""","""","""","2021-10-05 02:12:54",99.240.159.202,"Mozilla/5.0 (Windows NT 10.0; Win64; x64) AppleWebKit/537.36 (KHTML, like Gecko) Chrome/94.0.4606.61 Safari/537.36",WebKit,Chrome,94.0.4606.61,Windows,10.0,fe3c1d035a65c549f7011c5446f73ede
28,1,719,arrowleft,psychophysics,180,441332,0.0-3.0-0.87,"""",key,arrowleft,6.9436407766985315,960,484.5,88,4,-1,24,15,25,35,true,"2021-10-05 02:12:54",99.240.159.202,"Mozilla/5.0 (Windows NT 10.0; Win64; x64) AppleWebKit/537.36 (KHTML, like Gecko) Chrome/94.0.4606.61 Safari/537.36",WebKit,Chrome,94.0.4606.61,Windows,10.0,fe3c1d035a65c549f7011c5446f73ede
28,1,null,null,psychophysics,181,442333,0.0-3.0-1.87,"""",key,null,6.944734265734327,960,484.5,"""","""","""","""","""","""","""","""","2021-10-05 02:12:54",99.240.159.202,"Mozilla/5.0 (Windows NT 10.0; Win64; x64) AppleWebKit/537.36 (KHTML, like Gecko) Chrome/94.0.4606.61 Safari/537.36",WebKit,Chrome,94.0.4606.61,Windows,10.0,fe3c1d035a65c549f7011c5446f73ede
28,1,570.6999998092651,arrowleft,psychophysics,182,442909,0.0-3.0-0.88,"""",key,arrowleft,6.94421951219485,960,484.5,89,4,-1,26,15,25,35,true,"2021-10-05 02:12:54",99.240.159.202,"Mozilla/5.0 (Windows NT 10.0; Win64; x64) AppleWebKit/537.36 (KHTML, like Gecko) Chrome/94.0.4606.61 Safari/537.36",WebKit,Chrome,94.0.4606.61,Windows,10.0,fe3c1d035a65c549f7011c5446f73ede
28,1,null,null,psychophysics,183,443910,0.0-3.0-1.88,"""",key,null,6.9439090909090355,960,484.5,"""","""","""","""","""","""","""","""","2021-10-05 02:12:54",99.240.159.202,"Mozilla/5.0 (Windows NT 10.0; Win64; x64) AppleWebKit/537.36 (KHTML, like Gecko) Chrome/94.0.4606.61 Safari/537.36",WebKit,Chrome,94.0.4606.61,Windows,10.0,fe3c1d035a65c549f7011c5446f73ede
28,1,828.4000000953674,arrowleft,psychophysics,184,444741,0.0-3.0-0.89,"""",key,arrowleft,6.944067226890612,960,484.5,90,4,-1,26,35,25,35,true,"2021-10-05 02:12:54",99.240.159.202,"Mozilla/5.0 (Windows NT 10.0; Win64; x64) AppleWebKit/537.36 (KHTML, like Gecko) Chrome/94.0.4606.61 Safari/537.36",WebKit,Chrome,94.0.4606.61,Windows,10.0,fe3c1d035a65c549f7011c5446f73ede
28,1,null,null,psychophysics,185,445743,0.0-3.0-1.89,"""",key,null,6.944426573426267,960,484.5,"""","""","""","""","""","""","""","""","2021-10-05 02:12:54",99.240.159.202,"Mozilla/5.0 (Windows NT 10.0; Win64; x64) AppleWebKit/537.36 (KHTML, like Gecko) Chrome/94.0.4606.61 Safari/537.36",WebKit,Chrome,94.0.4606.61,Windows,10.0,fe3c1d035a65c549f7011c5446f73ede
28,1,743.7000000476837,arrowleft,psychophysics,186,446490,0.0-3.0-0.90,"""",key,arrowleft,6.943764150943848,960,484.5,91,4,-1,30,35,25,35,true,"2021-10-05 02:12:54",99.240.159.202,"Mozilla/5.0 (Windows NT 10.0; Win64; x64) AppleWebKit/537.36 (KHTML, like Gecko) Chrome/94.0.4606.61 Safari/537.36",WebKit,Chrome,94.0.4606.61,Windows,10.0,fe3c1d035a65c549f7011c5446f73ede
28,1,null,null,psychophysics,187,447491,0.0-3.0-1.90,"""",key,null,6.945076388888588,960,484.5,"""","""","""","""","""","""","""","""","2021-10-05 02:12:54",99.240.159.202,"Mozilla/5.0 (Windows NT 10.0; Win64; x64) AppleWebKit/537.36 (KHTML, like Gecko) Chrome/94.0.4606.61 Safari/537.36",WebKit,Chrome,94.0.4606.61,Windows,10.0,fe3c1d035a65c549f7011c5446f73ede
28,1,2497.7000000476837,arrowright,psychophysics,188,449991,0.0-3.0-0.91,"""",key,arrowright,6.944428969359461,960,484.5,92,4,1,30,35,25,35,true,"2021-10-05 02:12:54",99.240.159.202,"Mozilla/5.0 (Windows NT 10.0; Win64; x64) AppleWebKit/537.36 (KHTML, like Gecko) Chrome/94.0.4606.61 Safari/537.36",WebKit,Chrome,94.0.4606.61,Windows,10.0,fe3c1d035a65c549f7011c5446f73ede
28,1,null,null,psychophysics,189,450995,0.0-3.0-1.91,"""",key,null,6.944622377622417,960,484.5,"""","""","""","""","""","""","""","""","2021-10-05 02:12:54",99.240.159.202,"Mozilla/5.0 (Windows NT 10.0; Win64; x64) AppleWebKit/537.36 (KHTML, like Gecko) Chrome/94.0.4606.61 Safari/537.36",WebKit,Chrome,94.0.4606.61,Windows,10.0,fe3c1d035a65c549f7011c5446f73ede
28,1,743.5,arrowright,psychophysics,190,451740,0.0-3.0-0.92,"""",key,arrowright,6.944188679245582,960,484.5,93,4,1,26,35,25,35,true,"2021-10-05 02:12:54",99.240.159.202,"Mozilla/5.0 (Windows NT 10.0; Win64; x64) AppleWebKit/537.36 (KHTML, like Gecko) Chrome/94.0.4606.61 Safari/537.36",WebKit,Chrome,94.0.4606.61,Windows,10.0,fe3c1d035a65c549f7011c5446f73ede
28,1,null,null,psychophysics,191,452741,0.0-3.0-1.92,"""",key,null,6.944493055555439,960,484.5,"""","""","""","""","""","""","""","""","2021-10-05 02:12:54",99.240.159.202,"Mozilla/5.0 (Windows NT 10.0; Win64; x64) AppleWebKit/537.36 (KHTML, like Gecko) Chrome/94.0.4606.61 Safari/537.36",WebKit,Chrome,94.0.4606.61,Windows,10.0,fe3c1d035a65c549f7011c5446f73ede
28,1,624,arrowleft,psychophysics,192,453367,0.0-3.0-0.93,"""",key,arrowleft,6.945471910112328,960,484.5,94,4,1,24,35,25,35,false,"2021-10-05 02:12:54",99.240.159.202,"Mozilla/5.0 (Windows NT 10.0; Win64; x64) AppleWebKit/537.36 (KHTML, like Gecko) Chrome/94.0.4606.61 Safari/537.36",WebKit,Chrome,94.0.4606.61,Windows,10.0,fe3c1d035a65c549f7011c5446f73ede
28,1,null,null,psychophysics,193,454369,0.0-3.0-1.93,"""",key,null,6.944881118881236,960,484.5,"""","""","""","""","""","""","""","""","2021-10-05 02:12:54",99.240.159.202,"Mozilla/5.0 (Windows NT 10.0; Win64; x64) AppleWebKit/537.36 (KHTML, like Gecko) Chrome/94.0.4606.61 Safari/537.36",WebKit,Chrome,94.0.4606.61,Windows,10.0,fe3c1d035a65c549f7011c5446f73ede
28,1,597.6999998092651,arrowright,psychophysics,194,454971,0.0-3.0-0.94,"""",key,arrowright,6.943465116278804,960,484.5,95,4,1,30,35,25,35,true,"2021-10-05 02:12:54",99.240.159.202,"Mozilla/5.0 (Windows NT 10.0; Win64; x64) AppleWebKit/537.36 (KHTML, like Gecko) Chrome/94.0.4606.61 Safari/537.36",WebKit,Chrome,94.0.4606.61,Windows,10.0,fe3c1d035a65c549f7011c5446f73ede
28,1,null,null,psychophysics,195,455972,0.0-3.0-1.94,"""",key,null,6.944062937062863,960,484.5,"""","""","""","""","""","""","""","""","2021-10-05 02:12:54",99.240.159.202,"Mozilla/5.0 (Windows NT 10.0; Win64; x64) AppleWebKit/537.36 (KHTML, like Gecko) Chrome/94.0.4606.61 Safari/537.36",WebKit,Chrome,94.0.4606.61,Windows,10.0,fe3c1d035a65c549f7011c5446f73ede
28,1,1089.2000000476837,arrowleft,psychophysics,196,457067,0.0-3.0-0.95,"""",key,arrowleft,6.944243589743751,960,484.5,96,4,-1,25,15,25,35,true,"2021-10-05 02:12:54",99.240.159.202,"Mozilla/5.0 (Windows NT 10.0; Win64; x64) AppleWebKit/537.36 (KHTML, like Gecko) Chrome/94.0.4606.61 Safari/537.36",WebKit,Chrome,94.0.4606.61,Windows,10.0,fe3c1d035a65c549f7011c5446f73ede
28,1,null,null,psychophysics,197,458068,0.0-3.0-1.95,"""",key,null,7.194999999999866,960,484.5,"""","""","""","""","""","""","""","""","2021-10-05 02:12:54",99.240.159.202,"Mozilla/5.0 (Windows NT 10.0; Win64; x64) AppleWebKit/537.36 (KHTML, like Gecko) Chrome/94.0.4606.61 Safari/537.36",WebKit,Chrome,94.0.4606.61,Windows,10.0,fe3c1d035a65c549f7011c5446f73ede
28,1,1289.2000000476837,arrowright,psychophysics,198,459360,0.0-3.0-0.96,"""",key,arrowright,7.178988764044865,960,484.5,97,4,-1,23,35,25,35,false,"2021-10-05 02:12:54",99.240.159.202,"Mozilla/5.0 (Windows NT 10.0; Win64; x64) AppleWebKit/537.36 (KHTML, like Gecko) Chrome/94.0.4606.61 Safari/537.36",WebKit,Chrome,94.0.4606.61,Windows,10.0,fe3c1d035a65c549f7011c5446f73ede
28,1,null,null,psychophysics,199,460361,0.0-3.0-1.96,"""",key,null,7.193316546762479,960,484.5,"""","""","""","""","""","""","""","""","2021-10-05 02:12:54",99.240.159.202,"Mozilla/5.0 (Windows NT 10.0; Win64; x64) AppleWebKit/537.36 (KHTML, like Gecko) Chrome/94.0.4606.61 Safari/537.36",WebKit,Chrome,94.0.4606.61,Windows,10.0,fe3c1d035a65c549f7011c5446f73ede
28,1,515.3000001907349,arrowleft,psychophysics,200,460879,0.0-3.0-0.97,"""",key,arrowleft,7.140126760563695,960,484.5,98,4,-1,26,15,25,35,true,"2021-10-05 02:12:54",99.240.159.202,"Mozilla/5.0 (Windows NT 10.0; Win64; x64) AppleWebKit/537.36 (KHTML, like Gecko) Chrome/94.0.4606.61 Safari/537.36",WebKit,Chrome,94.0.4606.61,Windows,10.0,fe3c1d035a65c549f7011c5446f73ede
28,1,null,null,psychophysics,201,461880,0.0-3.0-1.97,"""",key,null,6.944832167832402,960,484.5,"""","""","""","""","""","""","""","""","2021-10-05 02:12:54",99.240.159.202,"Mozilla/5.0 (Windows NT 10.0; Win64; x64) AppleWebKit/537.36 (KHTML, like Gecko) Chrome/94.0.4606.61 Safari/537.36",WebKit,Chrome,94.0.4606.61,Windows,10.0,fe3c1d035a65c549f7011c5446f73ede
28,1,458.10000014305115,arrowleft,psychophysics,202,462342,0.0-3.0-0.98,"""",key,arrowleft,6.944227272727541,960,484.5,99,4,-1,30,15,25,35,true,"2021-10-05 02:12:54",99.240.159.202,"Mozilla/5.0 (Windows NT 10.0; Win64; x64) AppleWebKit/537.36 (KHTML, like Gecko) Chrome/94.0.4606.61 Safari/537.36",WebKit,Chrome,94.0.4606.61,Windows,10.0,fe3c1d035a65c549f7011c5446f73ede
28,1,null,null,psychophysics,203,463344,0.0-3.0-1.98,"""",key,null,6.944321678321682,960,484.5,"""","""","""","""","""","""","""","""","2021-10-05 02:12:54",99.240.159.202,"Mozilla/5.0 (Windows NT 10.0; Win64; x64) AppleWebKit/537.36 (KHTML, like Gecko) Chrome/94.0.4606.61 Safari/537.36",WebKit,Chrome,94.0.4606.61,Windows,10.0,fe3c1d035a65c549f7011c5446f73ede
28,1,503.5,arrowleft,psychophysics,204,463850,0.0-3.0-0.99,"""",key,arrowleft,6.945013888889258,960,484.5,100,4,1,20,35,25,35,false,"2021-10-05 02:12:54",99.240.159.202,"Mozilla/5.0 (Windows NT 10.0; Win64; x64) AppleWebKit/537.36 (KHTML, like Gecko) Chrome/94.0.4606.61 Safari/537.36",WebKit,Chrome,94.0.4606.61,Windows,10.0,fe3c1d035a65c549f7011c5446f73ede
28,1,null,null,psychophysics,205,464852,0.0-3.0-1.99,"""",key,null,6.9450069930069835,960,484.5,"""","""","""","""","""","""","""","""","2021-10-05 02:12:54",99.240.159.202,"Mozilla/5.0 (Windows NT 10.0; Win64; x64) AppleWebKit/537.36 (KHTML, like Gecko) Chrome/94.0.4606.61 Safari/537.36",WebKit,Chrome,94.0.4606.61,Windows,10.0,fe3c1d035a65c549f7011c5446f73ede
28,1,547.3000001907349,arrowleft,psychophysics,206,465401,0.0-3.0-0.100,"""",key,arrowleft,6.945474358974771,960,484.5,101,4,-1,23,15,25,35,true,"2021-10-05 02:12:54",99.240.159.202,"Mozilla/5.0 (Windows NT 10.0; Win64; x64) AppleWebKit/537.36 (KHTML, like Gecko) Chrome/94.0.4606.61 Safari/537.36",WebKit,Chrome,94.0.4606.61,Windows,10.0,fe3c1d035a65c549f7011c5446f73ede
28,1,null,null,psychophysics,207,466402,0.0-3.0-1.100,"""",key,null,6.945173611110982,960,484.5,"""","""","""","""","""","""","""","""","2021-10-05 02:12:54",99.240.159.202,"Mozilla/5.0 (Windows NT 10.0; Win64; x64) AppleWebKit/537.36 (KHTML, like Gecko) Chrome/94.0.4606.61 Safari/537.36",WebKit,Chrome,94.0.4606.61,Windows,10.0,fe3c1d035a65c549f7011c5446f73ede
28,1,871.7999999523163,arrowleft,psychophysics,208,467276,0.0-3.0-0.101,"""",key,arrowleft,6.943895161290364,960,484.5,102,4,1,23,35,25,35,false,"2021-10-05 02:12:54",99.240.159.202,"Mozilla/5.0 (Windows NT 10.0; Win64; x64) AppleWebKit/537.36 (KHTML, like Gecko) Chrome/94.0.4606.61 Safari/537.36",WebKit,Chrome,94.0.4606.61,Windows,10.0,fe3c1d035a65c549f7011c5446f73ede
28,1,null,null,psychophysics,209,468280,0.0-3.0-1.101,"""",key,null,6.945423611111134,960,484.5,"""","""","""","""","""","""","""","""","2021-10-05 02:12:54",99.240.159.202,"Mozilla/5.0 (Windows NT 10.0; Win64; x64) AppleWebKit/537.36 (KHTML, like Gecko) Chrome/94.0.4606.61 Safari/537.36",WebKit,Chrome,94.0.4606.61,Windows,10.0,fe3c1d035a65c549f7011c5446f73ede
28,1,683.5,arrowright,psychophysics,210,468968,0.0-3.0-0.102,"""",key,arrowright,6.944265306122453,960,484.5,103,4,-1,25,35,25,35,false,"2021-10-05 02:12:54",99.240.159.202,"Mozilla/5.0 (Windows NT 10.0; Win64; x64) AppleWebKit/537.36 (KHTML, like Gecko) Chrome/94.0.4606.61 Safari/537.36",WebKit,Chrome,94.0.4606.61,Windows,10.0,fe3c1d035a65c549f7011c5446f73ede
28,1,null,null,psychophysics,211,469969,0.0-3.0-1.102,"""",key,null,6.945181818181564,960,484.5,"""","""","""","""","""","""","""","""","2021-10-05 02:12:54",99.240.159.202,"Mozilla/5.0 (Windows NT 10.0; Win64; x64) AppleWebKit/537.36 (KHTML, like Gecko) Chrome/94.0.4606.61 Safari/537.36",WebKit,Chrome,94.0.4606.61,Windows,10.0,fe3c1d035a65c549f7011c5446f73ede
28,1,537.8000001907349,arrowright,psychophysics,212,470510,0.0-3.0-0.103,"""",key,arrowright,6.945467532467998,960,484.5,104,4,1,30,15,25,35,true,"2021-10-05 02:12:54",99.240.159.202,"Mozilla/5.0 (Windows NT 10.0; Win64; x64) AppleWebKit/537.36 (KHTML, like Gecko) Chrome/94.0.4606.61 Safari/537.36",WebKit,Chrome,94.0.4606.61,Windows,10.0,fe3c1d035a65c549f7011c5446f73ede
28,1,null,null,psychophysics,213,471511,0.0-3.0-1.103,"""",key,null,6.944454545454347,960,484.5,"""","""","""","""","""","""","""","""","2021-10-05 02:12:54",99.240.159.202,"Mozilla/5.0 (Windows NT 10.0; Win64; x64) AppleWebKit/537.36 (KHTML, like Gecko) Chrome/94.0.4606.61 Safari/537.36",WebKit,Chrome,94.0.4606.61,Windows,10.0,fe3c1d035a65c549f7011c5446f73ede
28,1,1626.9000000953674,arrowright,psychophysics,214,473141,0.0-3.0-0.104,"""",key,arrowright,7.0045818965518265,960,484.5,105,4,1,25,35,25,35,true,"2021-10-05 02:12:54",99.240.159.202,"Mozilla/5.0 (Windows NT 10.0; Win64; x64) AppleWebKit/537.36 (KHTML, like Gecko) Chrome/94.0.4606.61 Safari/537.36",WebKit,Chrome,94.0.4606.61,Windows,10.0,fe3c1d035a65c549f7011c5446f73ede
28,1,null,null,psychophysics,215,474144,0.0-3.0-1.104,"""",key,null,6.944951048950824,960,484.5,"""","""","""","""","""","""","""","""","2021-10-05 02:12:54",99.240.159.202,"Mozilla/5.0 (Windows NT 10.0; Win64; x64) AppleWebKit/537.36 (KHTML, like Gecko) Chrome/94.0.4606.61 Safari/537.36",WebKit,Chrome,94.0.4606.61,Windows,10.0,fe3c1d035a65c549f7011c5446f73ede
28,1,1267.7000000476837,arrowleft,psychophysics,216,475417,0.0-3.0-0.105,"""",key,arrowleft,6.944868852459136,960,484.5,106,4,-1,23,15,25,35,true,"2021-10-05 02:12:54",99.240.159.202,"Mozilla/5.0 (Windows NT 10.0; Win64; x64) AppleWebKit/537.36 (KHTML, like Gecko) Chrome/94.0.4606.61 Safari/537.36",WebKit,Chrome,94.0.4606.61,Windows,10.0,fe3c1d035a65c549f7011c5446f73ede
28,1,null,null,psychophysics,217,476421,0.0-3.0-1.105,"""",key,null,6.945195804195808,960,484.5,"""","""","""","""","""","""","""","""","2021-10-05 02:12:54",99.240.159.202,"Mozilla/5.0 (Windows NT 10.0; Win64; x64) AppleWebKit/537.36 (KHTML, like Gecko) Chrome/94.0.4606.61 Safari/537.36",WebKit,Chrome,94.0.4606.61,Windows,10.0,fe3c1d035a65c549f7011c5446f73ede
28,1,1393.0999999046326,arrowleft,psychophysics,218,477817,0.0-3.0-0.106,"""",key,arrowleft,6.944560000000056,960,484.5,107,4,1,20,15,25,35,false,"2021-10-05 02:12:54",99.240.159.202,"Mozilla/5.0 (Windows NT 10.0; Win64; x64) AppleWebKit/537.36 (KHTML, like Gecko) Chrome/94.0.4606.61 Safari/537.36",WebKit,Chrome,94.0.4606.61,Windows,10.0,fe3c1d035a65c549f7011c5446f73ede
28,1,null,null,psychophysics,219,478818,0.0-3.0-1.106,"""",key,null,6.944631944444457,960,484.5,"""","""","""","""","""","""","""","""","2021-10-05 02:12:54",99.240.159.202,"Mozilla/5.0 (Windows NT 10.0; Win64; x64) AppleWebKit/537.36 (KHTML, like Gecko) Chrome/94.0.4606.61 Safari/537.36",WebKit,Chrome,94.0.4606.61,Windows,10.0,fe3c1d035a65c549f7011c5446f73ede
28,1,987.2000000476837,arrowleft,psychophysics,220,479808,0.0-3.0-0.107,"""",key,arrowleft,6.945524822694749,960,484.5,108,4,1,25,35,25,35,false,"2021-10-05 02:12:54",99.240.159.202,"Mozilla/5.0 (Windows NT 10.0; Win64; x64) AppleWebKit/537.36 (KHTML, like Gecko) Chrome/94.0.4606.61 Safari/537.36",WebKit,Chrome,94.0.4606.61,Windows,10.0,fe3c1d035a65c549f7011c5446f73ede
28,1,null,null,psychophysics,221,480818,0.0-3.0-1.107,"""",key,null,6.945055555555478,960,484.5,"""","""","""","""","""","""","""","""","2021-10-05 02:12:54",99.240.159.202,"Mozilla/5.0 (Windows NT 10.0; Win64; x64) AppleWebKit/537.36 (KHTML, like Gecko) Chrome/94.0.4606.61 Safari/537.36",WebKit,Chrome,94.0.4606.61,Windows,10.0,fe3c1d035a65c549f7011c5446f73ede
28,1,597.5,arrowright,psychophysics,222,481418,0.0-3.0-0.108,"""",key,arrowright,6.943302325580843,960,484.5,109,4,1,30,15,25,35,true,"2021-10-05 02:12:54",99.240.159.202,"Mozilla/5.0 (Windows NT 10.0; Win64; x64) AppleWebKit/537.36 (KHTML, like Gecko) Chrome/94.0.4606.61 Safari/537.36",WebKit,Chrome,94.0.4606.61,Windows,10.0,fe3c1d035a65c549f7011c5446f73ede
28,1,null,null,psychophysics,223,482422,0.0-3.0-1.108,"""",key,null,6.944608391608581,960,484.5,"""","""","""","""","""","""","""","""","2021-10-05 02:12:54",99.240.159.202,"Mozilla/5.0 (Windows NT 10.0; Win64; x64) AppleWebKit/537.36 (KHTML, like Gecko) Chrome/94.0.4606.61 Safari/537.36",WebKit,Chrome,94.0.4606.61,Windows,10.0,fe3c1d035a65c549f7011c5446f73ede
28,1,578.5,arrowleft,psychophysics,224,483003,0.0-3.0-0.109,"""",key,arrowleft,6.943867469879698,960,484.5,110,4,1,20,35,25,35,false,"2021-10-05 02:12:54",99.240.159.202,"Mozilla/5.0 (Windows NT 10.0; Win64; x64) AppleWebKit/537.36 (KHTML, like Gecko) Chrome/94.0.4606.61 Safari/537.36",WebKit,Chrome,94.0.4606.61,Windows,10.0,fe3c1d035a65c549f7011c5446f73ede
28,1,null,null,psychophysics,225,484005,0.0-3.0-1.109,"""",key,null,6.944489510489344,960,484.5,"""","""","""","""","""","""","""","""","2021-10-05 02:12:54",99.240.159.202,"Mozilla/5.0 (Windows NT 10.0; Win64; x64) AppleWebKit/537.36 (KHTML, like Gecko) Chrome/94.0.4606.61 Safari/537.36",WebKit,Chrome,94.0.4606.61,Windows,10.0,fe3c1d035a65c549f7011c5446f73ede
28,1,490.40000009536743,arrowright,psychophysics,226,484497,0.0-3.0-0.110,"""",key,arrowright,6.944671428571122,960,484.5,111,4,1,30,15,25,35,true,"2021-10-05 02:12:54",99.240.159.202,"Mozilla/5.0 (Windows NT 10.0; Win64; x64) AppleWebKit/537.36 (KHTML, like Gecko) Chrome/94.0.4606.61 Safari/537.36",WebKit,Chrome,94.0.4606.61,Windows,10.0,fe3c1d035a65c549f7011c5446f73ede
28,1,null,null,psychophysics,227,485499,0.0-3.0-1.110,"""",key,null,6.944506944444179,960,484.5,"""","""","""","""","""","""","""","""","2021-10-05 02:12:54",99.240.159.202,"Mozilla/5.0 (Windows NT 10.0; Win64; x64) AppleWebKit/537.36 (KHTML, like Gecko) Chrome/94.0.4606.61 Safari/537.36",WebKit,Chrome,94.0.4606.61,Windows,10.0,fe3c1d035a65c549f7011c5446f73ede
28,1,1700.6000001430511,arrowleft,psychophysics,228,487204,0.0-3.0-0.111,"""",key,arrowleft,6.944290983606584,960,484.5,112,5,1,23,15,25,35,false,"2021-10-05 02:12:54",99.240.159.202,"Mozilla/5.0 (Windows NT 10.0; Win64; x64) AppleWebKit/537.36 (KHTML, like Gecko) Chrome/94.0.4606.61 Safari/537.36",WebKit,Chrome,94.0.4606.61,Windows,10.0,fe3c1d035a65c549f7011c5446f73ede
28,1,null,null,psychophysics,229,488206,0.0-3.0-1.111,"""",key,null,6.9445314685312605,960,484.5,"""","""","""","""","""","""","""","""","2021-10-05 02:12:54",99.240.159.202,"Mozilla/5.0 (Windows NT 10.0; Win64; x64) AppleWebKit/537.36 (KHTML, like Gecko) Chrome/94.0.4606.61 Safari/537.36",WebKit,Chrome,94.0.4606.61,Windows,10.0,fe3c1d035a65c549f7011c5446f73ede
28,1,807016.9000000954,arrowright,html-keyboard-response,230,1295224,0.0-3.0-2.111-0.111,"<div style=""color: white; text-align: center; vertical-align: top; display: inline-block; width: 800px; margin: auto""><p>You have completed 40% of the trials. You are on block 5 of 10. <br>Good job! Take a break if you need to.</p><p>Press any key to continue the experiment.</p></div>","""","""","""","""","""","""","""","""","""","""","""","""","""","2021-10-05 02:12:54",99.240.159.202,"Mozilla/5.0 (Windows NT 10.0; Win64; x64) AppleWebKit/537.36 (KHTML, like Gecko) Chrome/94.0.4606.61 Safari/537.36",WebKit,Chrome,94.0.4606.61,Windows,10.0,fe3c1d035a65c549f7011c5446f73ede
28,1,1357.3000001907349,arrowleft,psychophysics,231,1297597,0.0-3.0-0.112,"""",key,arrowleft,6.945112244897208,960,484.5,113,5,-1,25,15,25,35,true,"2021-10-05 02:12:54",99.240.159.202,"Mozilla/5.0 (Windows NT 10.0; Win64; x64) AppleWebKit/537.36 (KHTML, like Gecko) Chrome/94.0.4606.61 Safari/537.36",WebKit,Chrome,94.0.4606.61,Windows,10.0,fe3c1d035a65c549f7011c5446f73ede
28,1,null,null,psychophysics,232,1298598,0.0-3.0-1.112,"""",key,null,6.94546853146887,960,484.5,"""","""","""","""","""","""","""","""","2021-10-05 02:12:54",99.240.159.202,"Mozilla/5.0 (Windows NT 10.0; Win64; x64) AppleWebKit/537.36 (KHTML, like Gecko) Chrome/94.0.4606.61 Safari/537.36",WebKit,Chrome,94.0.4606.61,Windows,10.0,fe3c1d035a65c549f7011c5446f73ede
28,1,1274.3999998569489,arrowleft,psychophysics,233,1299875,0.0-3.0-0.113,"""",key,arrowleft,6.944863387977684,960,484.5,114,5,1,26,35,25,35,false,"2021-10-05 02:12:54",99.240.159.202,"Mozilla/5.0 (Windows NT 10.0; Win64; x64) AppleWebKit/537.36 (KHTML, like Gecko) Chrome/94.0.4606.61 Safari/537.36",WebKit,Chrome,94.0.4606.61,Windows,10.0,fe3c1d035a65c549f7011c5446f73ede
28,1,null,null,psychophysics,234,1300877,0.0-3.0-1.113,"""",key,null,6.9451118881123834,960,484.5,"""","""","""","""","""","""","""","""","2021-10-05 02:12:54",99.240.159.202,"Mozilla/5.0 (Windows NT 10.0; Win64; x64) AppleWebKit/537.36 (KHTML, like Gecko) Chrome/94.0.4606.61 Safari/537.36",WebKit,Chrome,94.0.4606.61,Windows,10.0,fe3c1d035a65c549f7011c5446f73ede
28,1,5424.900000095367,arrowleft,psychophysics,235,1306305,0.0-3.0-0.114,"""",key,arrowleft,6.944500640204901,960,484.5,115,5,1,20,15,25,35,false,"2021-10-05 02:12:54",99.240.159.202,"Mozilla/5.0 (Windows NT 10.0; Win64; x64) AppleWebKit/537.36 (KHTML, like Gecko) Chrome/94.0.4606.61 Safari/537.36",WebKit,Chrome,94.0.4606.61,Windows,10.0,fe3c1d035a65c549f7011c5446f73ede
28,1,null,null,psychophysics,236,1307309,0.0-3.0-1.114,"""",key,null,6.944692307692412,960,484.5,"""","""","""","""","""","""","""","""","2021-10-05 02:12:54",99.240.159.202,"Mozilla/5.0 (Windows NT 10.0; Win64; x64) AppleWebKit/537.36 (KHTML, like Gecko) Chrome/94.0.4606.61 Safari/537.36",WebKit,Chrome,94.0.4606.61,Windows,10.0,fe3c1d035a65c549f7011c5446f73ede
28,1,305.40000009536743,arrowleft,psychophysics,237,1307617,0.0-3.0-0.115,"""",key,arrowleft,6.943863636364271,960,484.5,116,5,-1,30,35,25,35,true,"2021-10-05 02:12:54",99.240.159.202,"Mozilla/5.0 (Windows NT 10.0; Win64; x64) AppleWebKit/537.36 (KHTML, like Gecko) Chrome/94.0.4606.61 Safari/537.36",WebKit,Chrome,94.0.4606.61,Windows,10.0,fe3c1d035a65c549f7011c5446f73ede
28,1,null,null,psychophysics,238,1308618,0.0-3.0-1.115,"""",key,null,6.9444825174824265,960,484.5,"""","""","""","""","""","""","""","""","2021-10-05 02:12:54",99.240.159.202,"Mozilla/5.0 (Windows NT 10.0; Win64; x64) AppleWebKit/537.36 (KHTML, like Gecko) Chrome/94.0.4606.61 Safari/537.36",WebKit,Chrome,94.0.4606.61,Windows,10.0,fe3c1d035a65c549f7011c5446f73ede
28,1,1643.5999999046326,arrowleft,psychophysics,239,1310264,0.0-3.0-0.116,"""",key,arrowleft,6.944491525423334,960,484.5,117,5,1,23,35,25,35,false,"2021-10-05 02:12:54",99.240.159.202,"Mozilla/5.0 (Windows NT 10.0; Win64; x64) AppleWebKit/537.36 (KHTML, like Gecko) Chrome/94.0.4606.61 Safari/537.36",WebKit,Chrome,94.0.4606.61,Windows,10.0,fe3c1d035a65c549f7011c5446f73ede
28,1,null,null,psychophysics,240,1311265,0.0-3.0-1.116,"""",key,null,6.945125874125405,960,484.5,"""","""","""","""","""","""","""","""","2021-10-05 02:12:54",99.240.159.202,"Mozilla/5.0 (Windows NT 10.0; Win64; x64) AppleWebKit/537.36 (KHTML, like Gecko) Chrome/94.0.4606.61 Safari/537.36",WebKit,Chrome,94.0.4606.61,Windows,10.0,fe3c1d035a65c549f7011c5446f73ede
28,1,2848.2999999523163,arrowright,psychophysics,241,1314117,0.0-3.0-0.117,"""",key,arrowright,6.944419512195263,960,484.5,118,5,-1,20,15,25,35,false,"2021-10-05 02:12:54",99.240.159.202,"Mozilla/5.0 (Windows NT 10.0; Win64; x64) AppleWebKit/537.36 (KHTML, like Gecko) Chrome/94.0.4606.61 Safari/537.36",WebKit,Chrome,94.0.4606.61,Windows,10.0,fe3c1d035a65c549f7011c5446f73ede
28,1,null,null,psychophysics,242,1315122,0.0-3.0-1.117,"""",key,null,6.944699300698923,960,484.5,"""","""","""","""","""","""","""","""","2021-10-05 02:12:54",99.240.159.202,"Mozilla/5.0 (Windows NT 10.0; Win64; x64) AppleWebKit/537.36 (KHTML, like Gecko) Chrome/94.0.4606.61 Safari/537.36",WebKit,Chrome,94.0.4606.61,Windows,10.0,fe3c1d035a65c549f7011c5446f73ede
28,1,550.1000001430511,arrowleft,psychophysics,243,1315675,0.0-3.0-0.118,"""",key,arrowleft,6.944924050632605,960,484.5,119,5,-1,30,15,25,35,true,"2021-10-05 02:12:54",99.240.159.202,"Mozilla/5.0 (Windows NT 10.0; Win64; x64) AppleWebKit/537.36 (KHTML, like Gecko) Chrome/94.0.4606.61 Safari/537.36",WebKit,Chrome,94.0.4606.61,Windows,10.0,fe3c1d035a65c549f7011c5446f73ede
28,1,null,null,psychophysics,244,1316676,0.0-3.0-1.118,"""",key,null,6.9453286713288795,960,484.5,"""","""","""","""","""","""","""","""","2021-10-05 02:12:54",99.240.159.202,"Mozilla/5.0 (Windows NT 10.0; Win64; x64) AppleWebKit/537.36 (KHTML, like Gecko) Chrome/94.0.4606.61 Safari/537.36",WebKit,Chrome,94.0.4606.61,Windows,10.0,fe3c1d035a65c549f7011c5446f73ede
28,1,1060.7999999523163,arrowleft,psychophysics,245,1317739,0.0-3.0-0.119,"""",key,arrowleft,6.943828947367269,960,484.5,120,5,-1,24,15,25,35,true,"2021-10-05 02:12:54",99.240.159.202,"Mozilla/5.0 (Windows NT 10.0; Win64; x64) AppleWebKit/537.36 (KHTML, like Gecko) Chrome/94.0.4606.61 Safari/537.36",WebKit,Chrome,94.0.4606.61,Windows,10.0,fe3c1d035a65c549f7011c5446f73ede
28,1,null,null,psychophysics,246,1318740,0.0-3.0-1.119,"""",key,null,6.944160839161751,960,484.5,"""","""","""","""","""","""","""","""","2021-10-05 02:12:54",99.240.159.202,"Mozilla/5.0 (Windows NT 10.0; Win64; x64) AppleWebKit/537.36 (KHTML, like Gecko) Chrome/94.0.4606.61 Safari/537.36",WebKit,Chrome,94.0.4606.61,Windows,10.0,fe3c1d035a65c549f7011c5446f73ede
28,1,965.1999998092651,arrowright,psychophysics,247,1319708,0.0-3.0-0.120,"""",key,arrowright,6.944611510792881,960,484.5,121,5,-1,24,35,25,35,false,"2021-10-05 02:12:54",99.240.159.202,"Mozilla/5.0 (Windows NT 10.0; Win64; x64) AppleWebKit/537.36 (KHTML, like Gecko) Chrome/94.0.4606.61 Safari/537.36",WebKit,Chrome,94.0.4606.61,Windows,10.0,fe3c1d035a65c549f7011c5446f73ede
28,1,null,null,psychophysics,248,1320712,0.0-3.0-1.120,"""",key,null,6.944251748252907,960,484.5,"""","""","""","""","""","""","""","""","2021-10-05 02:12:54",99.240.159.202,"Mozilla/5.0 (Windows NT 10.0; Win64; x64) AppleWebKit/537.36 (KHTML, like Gecko) Chrome/94.0.4606.61 Safari/537.36",WebKit,Chrome,94.0.4606.61,Windows,10.0,fe3c1d035a65c549f7011c5446f73ede
28,1,656.0999999046326,arrowleft,psychophysics,249,1321370,0.0-3.0-0.121,"""",key,arrowleft,6.944372340424997,960,484.5,122,5,-1,27,15,25,35,true,"2021-10-05 02:12:54",99.240.159.202,"Mozilla/5.0 (Windows NT 10.0; Win64; x64) AppleWebKit/537.36 (KHTML, like Gecko) Chrome/94.0.4606.61 Safari/537.36",WebKit,Chrome,94.0.4606.61,Windows,10.0,fe3c1d035a65c549f7011c5446f73ede
28,1,null,null,psychophysics,250,1322371,0.0-3.0-1.121,"""",key,null,6.944412587412431,960,484.5,"""","""","""","""","""","""","""","""","2021-10-05 02:12:54",99.240.159.202,"Mozilla/5.0 (Windows NT 10.0; Win64; x64) AppleWebKit/537.36 (KHTML, like Gecko) Chrome/94.0.4606.61 Safari/537.36",WebKit,Chrome,94.0.4606.61,Windows,10.0,fe3c1d035a65c549f7011c5446f73ede
28,1,804.2000000476837,arrowright,psychophysics,251,1323178,0.0-3.0-0.122,"""",key,arrowright,6.944495652172633,960,484.5,123,5,1,27,35,25,35,true,"2021-10-05 02:12:54",99.240.159.202,"Mozilla/5.0 (Windows NT 10.0; Win64; x64) AppleWebKit/537.36 (KHTML, like Gecko) Chrome/94.0.4606.61 Safari/537.36",WebKit,Chrome,94.0.4606.61,Windows,10.0,fe3c1d035a65c549f7011c5446f73ede
28,1,null,null,psychophysics,252,1324178,0.0-3.0-1.122,"""",key,null,6.94520279720354,960,484.5,"""","""","""","""","""","""","""","""","2021-10-05 02:12:54",99.240.159.202,"Mozilla/5.0 (Windows NT 10.0; Win64; x64) AppleWebKit/537.36 (KHTML, like Gecko) Chrome/94.0.4606.61 Safari/537.36",WebKit,Chrome,94.0.4606.61,Windows,10.0,fe3c1d035a65c549f7011c5446f73ede
28,1,1647.9000000953674,arrowright,psychophysics,253,1325829,0.0-3.0-0.123,"""",key,arrowright,6.9446708860763895,960,484.5,124,5,1,25,15,25,35,true,"2021-10-05 02:12:54",99.240.159.202,"Mozilla/5.0 (Windows NT 10.0; Win64; x64) AppleWebKit/537.36 (KHTML, like Gecko) Chrome/94.0.4606.61 Safari/537.36",WebKit,Chrome,94.0.4606.61,Windows,10.0,fe3c1d035a65c549f7011c5446f73ede
28,1,null,null,psychophysics,254,1326832,0.0-3.0-1.123,"""",key,null,6.945293706293068,960,484.5,"""","""","""","""","""","""","""","""","2021-10-05 02:12:54",99.240.159.202,"Mozilla/5.0 (Windows NT 10.0; Win64; x64) AppleWebKit/537.36 (KHTML, like Gecko) Chrome/94.0.4606.61 Safari/537.36",WebKit,Chrome,94.0.4606.61,Windows,10.0,fe3c1d035a65c549f7011c5446f73ede
28,1,1173,arrowright,psychophysics,255,1328007,0.0-3.0-0.124,"""",key,arrowright,6.945023668639241,960,484.5,125,5,1,24,15,25,35,true,"2021-10-05 02:12:54",99.240.159.202,"Mozilla/5.0 (Windows NT 10.0; Win64; x64) AppleWebKit/537.36 (KHTML, like Gecko) Chrome/94.0.4606.61 Safari/537.36",WebKit,Chrome,94.0.4606.61,Windows,10.0,fe3c1d035a65c549f7011c5446f73ede
28,1,null,null,psychophysics,256,1329009,0.0-3.0-1.124,"""",key,null,6.943986013985949,960,484.5,"""","""","""","""","""","""","""","""","2021-10-05 02:12:54",99.240.159.202,"Mozilla/5.0 (Windows NT 10.0; Win64; x64) AppleWebKit/537.36 (KHTML, like Gecko) Chrome/94.0.4606.61 Safari/537.36",WebKit,Chrome,94.0.4606.61,Windows,10.0,fe3c1d035a65c549f7011c5446f73ede
28,1,2362.4000000953674,arrowright,psychophysics,257,1331375,0.0-3.0-0.125,"""",key,arrowright,6.944494117647135,960,484.5,126,5,1,27,35,25,35,true,"2021-10-05 02:12:54",99.240.159.202,"Mozilla/5.0 (Windows NT 10.0; Win64; x64) AppleWebKit/537.36 (KHTML, like Gecko) Chrome/94.0.4606.61 Safari/537.36",WebKit,Chrome,94.0.4606.61,Windows,10.0,fe3c1d035a65c549f7011c5446f73ede
28,1,null,null,psychophysics,258,1332379,0.0-3.0-1.125,"""",key,null,6.94506993007006,960,484.5,"""","""","""","""","""","""","""","""","2021-10-05 02:12:54",99.240.159.202,"Mozilla/5.0 (Windows NT 10.0; Win64; x64) AppleWebKit/537.36 (KHTML, like Gecko) Chrome/94.0.4606.61 Safari/537.36",WebKit,Chrome,94.0.4606.61,Windows,10.0,fe3c1d035a65c549f7011c5446f73ede
28,1,715.2000000476837,arrowleft,psychophysics,259,1333097,0.0-3.0-0.126,"""",key,arrowleft,6.944330097087976,960,484.5,127,5,-1,27,15,25,35,true,"2021-10-05 02:12:54",99.240.159.202,"Mozilla/5.0 (Windows NT 10.0; Win64; x64) AppleWebKit/537.36 (KHTML, like Gecko) Chrome/94.0.4606.61 Safari/537.36",WebKit,Chrome,94.0.4606.61,Windows,10.0,fe3c1d035a65c549f7011c5446f73ede
28,1,null,null,psychophysics,260,1334099,0.0-3.0-1.126,"""",key,null,6.944587412586605,960,484.5,"""","""","""","""","""","""","""","""","2021-10-05 02:12:54",99.240.159.202,"Mozilla/5.0 (Windows NT 10.0; Win64; x64) AppleWebKit/537.36 (KHTML, like Gecko) Chrome/94.0.4606.61 Safari/537.36",WebKit,Chrome,94.0.4606.61,Windows,10.0,fe3c1d035a65c549f7011c5446f73ede
28,1,916.2999999523163,arrowright,psychophysics,261,1335018,0.0-3.0-0.127,"""",key,arrowright,6.944412213741297,960,484.5,128,5,-1,23,35,25,35,false,"2021-10-05 02:12:54",99.240.159.202,"Mozilla/5.0 (Windows NT 10.0; Win64; x64) AppleWebKit/537.36 (KHTML, like Gecko) Chrome/94.0.4606.61 Safari/537.36",WebKit,Chrome,94.0.4606.61,Windows,10.0,fe3c1d035a65c549f7011c5446f73ede
28,1,null,null,psychophysics,262,1336020,0.0-3.0-1.127,"""",key,null,6.9447972027965905,960,484.5,"""","""","""","""","""","""","""","""","2021-10-05 02:12:54",99.240.159.202,"Mozilla/5.0 (Windows NT 10.0; Win64; x64) AppleWebKit/537.36 (KHTML, like Gecko) Chrome/94.0.4606.61 Safari/537.36",WebKit,Chrome,94.0.4606.61,Windows,10.0,fe3c1d035a65c549f7011c5446f73ede
28,1,1184.8000001907349,arrowright,psychophysics,263,1337207,0.0-3.0-0.128,"""",key,arrowright,6.9447470588226095,960,484.5,129,5,1,27,15,25,35,true,"2021-10-05 02:12:54",99.240.159.202,"Mozilla/5.0 (Windows NT 10.0; Win64; x64) AppleWebKit/537.36 (KHTML, like Gecko) Chrome/94.0.4606.61 Safari/537.36",WebKit,Chrome,94.0.4606.61,Windows,10.0,fe3c1d035a65c549f7011c5446f73ede
28,1,null,null,psychophysics,264,1338212,0.0-3.0-1.128,"""",key,null,6.944527777778502,960,484.5,"""","""","""","""","""","""","""","""","2021-10-05 02:12:54",99.240.159.202,"Mozilla/5.0 (Windows NT 10.0; Win64; x64) AppleWebKit/537.36 (KHTML, like Gecko) Chrome/94.0.4606.61 Safari/537.36",WebKit,Chrome,94.0.4606.61,Windows,10.0,fe3c1d035a65c549f7011c5446f73ede
28,1,2288.5,arrowleft,psychophysics,265,1340503,0.0-3.0-0.129,"""",key,arrowleft,6.944310030395358,960,484.5,130,5,-1,26,15,25,35,true,"2021-10-05 02:12:54",99.240.159.202,"Mozilla/5.0 (Windows NT 10.0; Win64; x64) AppleWebKit/537.36 (KHTML, like Gecko) Chrome/94.0.4606.61 Safari/537.36",WebKit,Chrome,94.0.4606.61,Windows,10.0,fe3c1d035a65c549f7011c5446f73ede
28,1,null,null,psychophysics,266,1341504,0.0-3.0-1.129,"""",key,null,6.943790209788985,960,484.5,"""","""","""","""","""","""","""","""","2021-10-05 02:12:54",99.240.159.202,"Mozilla/5.0 (Windows NT 10.0; Win64; x64) AppleWebKit/537.36 (KHTML, like Gecko) Chrome/94.0.4606.61 Safari/537.36",WebKit,Chrome,94.0.4606.61,Windows,10.0,fe3c1d035a65c549f7011c5446f73ede
28,1,2869.4000000953674,arrowleft,psychophysics,267,1344375,0.0-3.0-0.130,"""",key,arrowleft,6.944457627118613,960,484.5,131,5,-1,27,15,25,35,true,"2021-10-05 02:12:54",99.240.159.202,"Mozilla/5.0 (Windows NT 10.0; Win64; x64) AppleWebKit/537.36 (KHTML, like Gecko) Chrome/94.0.4606.61 Safari/537.36",WebKit,Chrome,94.0.4606.61,Windows,10.0,fe3c1d035a65c549f7011c5446f73ede
