"success","trial_type","trial_index","time_elapsed","internal_node_id","rt","stimulus","key_press","responses","button_pressed","images","left_choice","right_choice"
"true","fullscreen","0","21679","0.0-0.0","","","","","","","",""
"","html-keyboard-response","1","23908","0.0-1.0","2227.300000011921","Welcome to the experiment. Press any key to begin.","32","","","","",""
"","survey-html-form","2","35916","0.0-2.0","12006.600000023842","","","{""p_id"":""2064"",""age"":""19"",""handedness"":""right"",""sex"":""female"",""other_sex"":""""}","","","",""
"","html-keyboard-response","3","51900","0.0-3.0","15982.599999964237","<p>Please fixate at the center '+' sign which will appear once you press any key. Then, <strong> an image </strong> will be shown in the center of the screen.</p><p>The image will contain an object.This will be followed by a <strong> Choice Screen </strong> containing two objects. Please choose the option <strong>[Click on the object]</strong> that you think was present in the image<p>Press any key to begin.</p>","32","","","","",""
"","html-keyboard-response","4","54929","0.0-4.0","null","<div style=""font-size:60px;"">+</div>","null","","","","",""
"","image-button-response","5","55431","0.0-5.0","null","stimuli/images_hvm10/im139.png","","","null","139","7","6"
"","html-button-response","6","58134","0.0-6.0","2701.399999976158","","","","1","","",""
"","html-keyboard-response","7","59144","0.0-7.0","null","<div style=""font-size:60px;"">+</div>","null","","","","",""
"","image-button-response","8","59644","0.0-8.0","null","stimuli/images_hvm10/im71.png","","","null","71","0","3"
"","html-button-response","9","61700","0.0-9.0","2055.199999988079","","","","1","","",""
"","html-keyboard-response","10","62712","0.0-10.0","null","<div style=""font-size:60px;"">+</div>","null","","","","",""
"","image-button-response","11","63214","0.0-11.0","null","stimuli/images_hvm10/im81.png","","","null","81","2","4"
"","html-button-response","12","64576","0.0-12.0","1361.4000000357628","","","","1","","",""
"","html-keyboard-response","13","65577","0.0-13.0","null","<div style=""font-size:60px;"">+</div>","null","","","","",""
"","image-button-response","14","66079","0.0-14.0","null","stimuli/images_hvm10/im21.png","","","null","21","8","1"
"","html-button-response","15","68214","0.0-15.0","2133.899999976158","","","","0","","",""
"","html-keyboard-response","16","69229","0.0-16.0","null","<div style=""font-size:60px;"">+</div>","null","","","","",""
"","image-button-response","17","69738","0.0-17.0","null","stimuli/images_hvm10/im56.png","","","null","56","7","2"
"","html-button-response","18","70994","0.0-18.0","1254.7999999523163","","","","1","","",""
"","html-keyboard-response","19","72003","0.0-19.0","null","<div style=""font-size:60px;"">+</div>","null","","","","",""
"","image-button-response","20","72512","0.0-20.0","null","stimuli/images_hvm10/im67.png","","","null","67","8","3"
"","html-button-response","21","74392","0.0-21.0","1879.3999999761581","","","","1","","",""
"","html-keyboard-response","22","75409","0.0-22.0","null","<div style=""font-size:60px;"">+</div>","null","","","","",""
"","image-button-response","23","75910","0.0-23.0","null","stimuli/images_hvm10/im14.png","","","null","14","3","0"
"","html-button-response","24","77412","0.0-24.0","1500.800000011921","","","","1","","",""
"","html-keyboard-response","25","78413","0.0-25.0","null","<div style=""font-size:60px;"">+</div>","null","","","","",""
"","image-button-response","26","78922","0.0-26.0","null","stimuli/images_hvm10/im68.png","","","null","68","8","3"
"","html-button-response","27","80212","0.0-27.0","1288.699999988079","","","","1","","",""
"","html-keyboard-response","28","81213","0.0-28.0","null","<div style=""font-size:60px;"">+</div>","null","","","","",""
"","image-button-response","29","81719","0.0-29.0","null","stimuli/images_hvm10/im25.png","","","null","25","0","1"
"","html-button-response","30","83490","0.0-30.0","1769.699999988079","","","","1","","",""
"","html-keyboard-response","31","84492","0.0-31.0","null","<div style=""font-size:60px;"">+</div>","null","","","","",""
"","image-button-response","32","85001","0.0-32.0","null","stimuli/images_hvm10/im26.png","","","null","26","8","1"
"","html-button-response","33","86862","0.0-33.0","1859.9000000357628","","","","0","","",""
"","html-keyboard-response","34","87864","0.0-34.0","null","<div style=""font-size:60px;"">+</div>","null","","","","",""
"","image-button-response","35","88366","0.0-35.0","null","stimuli/images_hvm10/im36.png","","","null","36","0","1"
"","html-button-response","36","89824","0.0-36.0","1457.5","","","","1","","",""
"","html-keyboard-response","37","90834","0.0-37.0","null","<div style=""font-size:60px;"">+</div>","null","","","","",""
"","image-button-response","38","91335","0.0-38.0","null","stimuli/images_hvm10/im9.png","","","null","9","0","5"
"","html-button-response","39","92808","0.0-39.0","1471.800000011921","","","","0","","",""
"","html-keyboard-response","40","93810","0.0-40.0","null","<div style=""font-size:60px;"">+</div>","null","","","","",""
"","image-button-response","41","94311","0.0-41.0","null","stimuli/images_hvm10/im24.png","","","null","24","1","5"
"","html-button-response","42","95844","0.0-42.0","1532.6000000238419","","","","0","","",""
"","html-keyboard-response","43","96848","0.0-43.0","null","<div style=""font-size:60px;"">+</div>","null","","","","",""
"","image-button-response","44","97349","0.0-44.0","null","stimuli/images_hvm10/im101.png","","","null","101","5","1"
"","html-button-response","45","98919","0.0-45.0","1568.300000011921","","","","0","","",""
"","html-keyboard-response","46","99932","0.0-46.0","null","<div style=""font-size:60px;"">+</div>","null","","","","",""
"","image-button-response","47","100434","0.0-47.0","null","stimuli/images_hvm10/im96.png","","","null","96","9","4"
"","html-button-response","48","102198","0.0-48.0","1763.3999999761581","","","","1","","",""
"","html-keyboard-response","49","103201","0.0-49.0","null","<div style=""font-size:60px;"">+</div>","null","","","","",""
"","image-button-response","50","103702","0.0-50.0","null","stimuli/images_hvm10/im30.png","","","null","30","1","2"
"","html-button-response","51","105068","0.0-51.0","1365.1000000238419","","","","0","","",""
"","html-keyboard-response","52","106075","0.0-52.0","null","<div style=""font-size:60px;"">+</div>","null","","","","",""
"","image-button-response","53","106583","0.0-53.0","null","stimuli/images_hvm10/im92.png","","","null","92","8","4"
"","html-button-response","54","107876","0.0-54.0","1292.5999999642372","","","","1","","",""
"","html-keyboard-response","55","108887","0.0-55.0","null","<div style=""font-size:60px;"">+</div>","null","","","","",""
"","image-button-response","56","109397","0.0-56.0","null","stimuli/images_hvm10/im148.png","","","null","148","7","3"
"","html-button-response","57","110785","0.0-57.0","1386.3999999761581","","","","0","","",""
"","html-keyboard-response","58","111787","0.0-58.0","null","<div style=""font-size:60px;"">+</div>","null","","","","",""
"","image-button-response","59","112295","0.0-59.0","null","stimuli/images_hvm10/im186.png","","","null","186","2","9"
"","html-button-response","60","113295","0.0-60.0","998.1999999880791","","","","1","","",""
"","html-keyboard-response","61","114299","0.0-61.0","null","<div style=""font-size:60px;"">+</div>","null","","","","",""
"","image-button-response","62","114800","0.0-62.0","null","stimuli/images_hvm10/im64.png","","","null","64","3","0"
"","html-button-response","63","116135","0.0-63.0","1333.699999988079","","","","0","","",""
"","html-keyboard-response","64","117143","0.0-64.0","null","<div style=""font-size:60px;"">+</div>","null","","","","",""
"","image-button-response","65","117644","0.0-65.0","null","stimuli/images_hvm10/im103.png","","","null","103","2","5"
"","html-button-response","66","118503","0.0-66.0","857.1999999880791","","","","1","","",""
"","html-keyboard-response","67","119517","0.0-67.0","null","<div style=""font-size:60px;"">+</div>","null","","","","",""
"","image-button-response","68","120016","0.0-68.0","null","stimuli/images_hvm10/im197.png","","","null","197","1","9"
"","html-button-response","69","121198","0.0-69.0","1180.7000000476837","","","","1","","",""
"","html-keyboard-response","70","122199","0.0-70.0","null","<div style=""font-size:60px;"">+</div>","null","","","","",""
"","image-button-response","71","122700","0.0-71.0","null","stimuli/images_hvm10/im183.png","","","null","183","9","4"
"","html-button-response","72","124398","0.0-72.0","1696.7000000476837","","","","0","","",""
"","html-keyboard-response","73","125408","0.0-73.0","null","<div style=""font-size:60px;"">+</div>","null","","","","",""
"","image-button-response","74","125919","0.0-74.0","null","stimuli/images_hvm10/im97.png","","","null","97","4","6"
"","html-button-response","75","127186","0.0-75.0","1265.9000000357628","","","","0","","",""
"","html-keyboard-response","76","128192","0.0-76.0","null","<div style=""font-size:60px;"">+</div>","null","","","","",""
"","image-button-response","77","128702","0.0-77.0","null","stimuli/images_hvm10/im44.png","","","null","44","2","9"
"","html-button-response","78","130088","0.0-78.0","1385.1000000238419","","","","0","","",""
"","html-keyboard-response","79","131089","0.0-79.0","null","<div style=""font-size:60px;"">+</div>","null","","","","",""
"","image-button-response","80","131597","0.0-80.0","null","stimuli/images_hvm10/im179.png","","","null","179","8","3"
"","html-button-response","81","132724","0.0-81.0","1125.699999988079","","","","1","","",""
"","html-keyboard-response","82","133725","0.0-82.0","null","<div style=""font-size:60px;"">+</div>","null","","","","",""
"","image-button-response","83","134227","0.0-83.0","null","stimuli/images_hvm10/im132.png","","","null","132","6","3"
"","html-button-response","84","136000","0.0-84.0","1771.699999988079","","","","0","","",""
"","html-keyboard-response","85","137001","0.0-85.0","null","<div style=""font-size:60px;"">+</div>","null","","","","",""
"","image-button-response","86","137503","0.0-86.0","null","stimuli/images_hvm10/im158.png","","","null","158","7","8"
"","html-button-response","87","138714","0.0-87.0","1210.4000000357628","","","","0","","",""
"","html-keyboard-response","88","139730","0.0-88.0","null","<div style=""font-size:60px;"">+</div>","null","","","","",""
"","image-button-response","89","140243","0.0-89.0","null","stimuli/images_hvm10/im118.png","","","null","118","9","5"
"","html-button-response","90","141486","0.0-90.0","1242.699999988079","","","","1","","",""
"","html-keyboard-response","91","142489","0.0-91.0","null","<div style=""font-size:60px;"">+</div>","null","","","","",""
"","image-button-response","92","143001","0.0-92.0","null","stimuli/images_hvm10/im145.png","","","null","145","2","7"
"","html-button-response","93","144342","0.0-93.0","1340","","","","1","","",""
"","html-keyboard-response","94","145355","0.0-94.0","null","<div style=""font-size:60px;"">+</div>","null","","","","",""
"","image-button-response","95","145856","0.0-95.0","null","stimuli/images_hvm10/im85.png","","","null","85","0","4"
"","html-button-response","96","147652","0.0-96.0","1795.3999999761581","","","","0","","",""
"","html-keyboard-response","97","148654","0.0-97.0","null","<div style=""font-size:60px;"">+</div>","null","","","","",""
"","image-button-response","98","149155","0.0-98.0","null","stimuli/images_hvm10/im121.png","","","null","121","6","3"
"","html-button-response","99","150784","0.0-99.0","1628.0999999642372","","","","0","","",""
"","html-keyboard-response","100","151786","0.0-100.0","null","<div style=""font-size:60px;"">+</div>","null","","","","",""
"","image-button-response","101","152288","0.0-101.0","null","stimuli/images_hvm10/im5.png","","","null","5","1","0"
"","html-button-response","102","153522","0.0-102.0","1233.6000000238419","","","","1","","",""
"","html-keyboard-response","103","154524","0.0-103.0","null","<div style=""font-size:60px;"">+</div>","null","","","","",""
"","image-button-response","104","155025","0.0-104.0","null","stimuli/images_hvm10/im172.png","","","null","172","8","6"
"","html-button-response","105","156346","0.0-105.0","1319.699999988079","","","","0","","",""
"","html-keyboard-response","106","157348","0.0-106.0","null","<div style=""font-size:60px;"">+</div>","null","","","","",""
"","image-button-response","107","157863","0.0-107.0","null","stimuli/images_hvm10/im125.png","","","null","125","1","6"
"","html-button-response","108","158770","0.0-108.0","906.5","","","","1","","",""
"","html-keyboard-response","109","159775","0.0-109.0","null","<div style=""font-size:60px;"">+</div>","null","","","","",""
"","image-button-response","110","160276","0.0-110.0","null","stimuli/images_hvm10/im105.png","","","null","105","0","5"
"","html-button-response","111","161940","0.0-111.0","1662.9000000357628","","","","0","","",""
"","html-keyboard-response","112","162941","0.0-112.0","null","<div style=""font-size:60px;"">+</div>","null","","","","",""
"","image-button-response","113","163448","0.0-113.0","null","stimuli/images_hvm10/im151.png","","","null","151","4","7"
"","html-button-response","114","164541","0.0-114.0","1091.0999999642372","","","","1","","",""
"","html-keyboard-response","115","165549","0.0-115.0","null","<div style=""font-size:60px;"">+</div>","null","","","","",""
"","image-button-response","116","166054","0.0-116.0","null","stimuli/images_hvm10/im142.png","","","null","142","7","9"
"","html-button-response","117","167500","0.0-117.0","1445.6000000238419","","","","0","","",""
"","html-keyboard-response","118","168502","0.0-118.0","null","<div style=""font-size:60px;"">+</div>","null","","","","",""
"","image-button-response","119","169016","0.0-119.0","null","stimuli/images_hvm10/im194.png","","","null","194","9","6"
"","html-button-response","120","170322","0.0-120.0","1305.2000000476837","","","","0","","",""
"","html-keyboard-response","121","171324","0.0-121.0","null","<div style=""font-size:60px;"">+</div>","null","","","","",""
"","image-button-response","122","171826","0.0-122.0","null","stimuli/images_hvm10/im43.png","","","null","43","5","2"
"","html-button-response","123","174315","0.0-123.0","2487.599999964237","","","","0","","",""
"","html-keyboard-response","124","175319","0.0-124.0","null","<div style=""font-size:60px;"">+</div>","null","","","","",""
"","image-button-response","125","175833","0.0-125.0","null","stimuli/images_hvm10/im160.png","","","null","160","8","2"
"","html-button-response","126","177093","0.0-126.0","1258.4000000357628","","","","0","","",""
"","html-keyboard-response","127","178104","0.0-127.0","null","<div style=""font-size:60px;"">+</div>","null","","","","",""
"","image-button-response","128","178617","0.0-128.0","null","stimuli/images_hvm10/im195.png","","","null","195","3","9"
"","html-button-response","129","179525","0.0-129.0","906.5","","","","1","","",""
"","html-keyboard-response","130","180537","0.0-130.0","null","<div style=""font-size:60px;"">+</div>","null","","","","",""
"","image-button-response","131","181038","0.0-131.0","null","stimuli/images_hvm10/im143.png","","","null","143","5","7"
"","html-button-response","132","183162","0.0-132.0","2122.300000011921","","","","1","","",""
"","html-keyboard-response","133","184174","0.0-133.0","null","<div style=""font-size:60px;"">+</div>","null","","","","",""
"","image-button-response","134","184683","0.0-134.0","null","stimuli/images_hvm10/im126.png","","","null","126","2","6"
"","html-button-response","135","185756","0.0-135.0","1071.5","","","","1","","",""
"","html-keyboard-response","136","186758","0.0-136.0","null","<div style=""font-size:60px;"">+</div>","null","","","","",""
"","image-button-response","137","187268","0.0-137.0","null","stimuli/images_hvm10/im123.png","","","null","123","5","6"
"","html-button-response","138","188128","0.0-138.0","858.6999999880791","","","","1","","",""
"","html-keyboard-response","139","189132","0.0-139.0","null","<div style=""font-size:60px;"">+</div>","null","","","","",""
"","image-button-response","140","189647","0.0-140.0","null","stimuli/images_hvm10/im153.png","","","null","153","7","1"
"","html-button-response","141","190871","0.0-141.0","1223.3999999761581","","","","0","","",""
"","html-keyboard-response","142","191876","0.0-142.0","null","<div style=""font-size:60px;"">+</div>","null","","","","",""
"","image-button-response","143","192386","0.0-143.0","null","stimuli/images_hvm10/im154.png","","","null","154","7","3"
"","html-button-response","144","193642","0.0-144.0","1254.8999999761581","","","","0","","",""
"","html-keyboard-response","145","194656","0.0-145.0","null","<div style=""font-size:60px;"">+</div>","null","","","","",""
"","image-button-response","146","195163","0.0-146.0","null","stimuli/images_hvm10/im122.png","","","null","122","2","6"
"","html-button-response","147","196258","0.0-147.0","1094","","","","1","","",""
"","html-keyboard-response","148","197259","0.0-148.0","null","<div style=""font-size:60px;"">+</div>","null","","","","",""
"","image-button-response","149","197775","0.0-149.0","null","stimuli/images_hvm10/im149.png","","","null","149","2","7"
"","html-button-response","150","198734","0.0-150.0","957.8000000119209","","","","1","","",""
"","html-keyboard-response","151","199735","0.0-151.0","null","<div style=""font-size:60px;"">+</div>","null","","","","",""
"","image-button-response","152","200245","0.0-152.0","null","stimuli/images_hvm10/im169.png","","","null","169","4","8"
"","html-button-response","153","201693","0.0-153.0","1447.0999999642372","","","","0","","",""
"","html-keyboard-response","154","202694","0.0-154.0","null","<div style=""font-size:60px;"">+</div>","null","","","","",""
"","image-button-response","155","203195","0.0-155.0","null","stimuli/images_hvm10/im114.png","","","null","114","5","2"
"","html-button-response","156","204556","0.0-156.0","1359.4000000357628","","","","0","","",""
"","html-keyboard-response","157","205557","0.0-157.0","null","<div style=""font-size:60px;"">+</div>","null","","","","",""
"","image-button-response","158","206074","0.0-158.0","null","stimuli/images_hvm10/im80.png","","","null","80","5","4"
"","html-button-response","159","207028","0.0-159.0","953","","","","1","","",""
"","html-keyboard-response","160","208040","0.0-160.0","null","<div style=""font-size:60px;"">+</div>","null","","","","",""
"","image-button-response","161","208542","0.0-161.0","null","stimuli/images_hvm10/im93.png","","","null","93","4","1"
"","html-button-response","162","210182","0.0-162.0","1638.800000011921","","","","0","","",""
"","html-keyboard-response","163","211183","0.0-163.0","null","<div style=""font-size:60px;"">+</div>","null","","","","",""
"","image-button-response","164","211684","0.0-164.0","null","stimuli/images_hvm10/im23.png","","","null","23","9","1"
"","html-button-response","165","212634","0.0-165.0","948.6999999880791","","","","1","","",""
"","html-keyboard-response","166","213635","0.0-166.0","null","<div style=""font-size:60px;"">+</div>","null","","","","",""
"","image-button-response","167","214142","0.0-167.0","null","stimuli/images_hvm10/im79.png","","","null","79","3","5"
"","html-button-response","168","215126","0.0-168.0","982.6999999880791","","","","0","","",""
"","html-keyboard-response","169","216127","0.0-169.0","null","<div style=""font-size:60px;"">+</div>","null","","","","",""
"","image-button-response","170","216635","0.0-170.0","null","stimuli/images_hvm10/im42.png","","","null","42","2","0"
"","html-button-response","171","217768","0.0-171.0","1131.9000000357628","","","","1","","",""
"","html-keyboard-response","172","218769","0.0-172.0","null","<div style=""font-size:60px;"">+</div>","null","","","","",""
"","image-button-response","173","219286","0.0-173.0","null","stimuli/images_hvm10/im65.png","","","null","65","8","3"
"","html-button-response","174","220100","0.0-174.0","812.9000000357628","","","","1","","",""
"","html-keyboard-response","175","221114","0.0-175.0","null","<div style=""font-size:60px;"">+</div>","null","","","","",""
"","image-button-response","176","221616","0.0-176.0","null","stimuli/images_hvm10/im49.png","","","null","49","2","6"
"","html-button-response","177","223818","0.0-177.0","2201","","","","1","","",""
"","html-keyboard-response","178","224819","0.0-178.0","null","<div style=""font-size:60px;"">+</div>","null","","","","",""
"","image-button-response","179","225323","0.0-179.0","null","stimuli/images_hvm10/im89.png","","","null","89","0","4"
"","html-button-response","180","226518","0.0-180.0","1194.5","","","","1","","",""
"","html-keyboard-response","181","227526","0.0-181.0","null","<div style=""font-size:60px;"">+</div>","null","","","","",""
"","image-button-response","182","228039","0.0-182.0","null","stimuli/images_hvm10/im20.png","","","null","20","4","1"
"","html-button-response","183","229126","0.0-183.0","1086.199999988079","","","","1","","",""
"","html-keyboard-response","184","230130","0.0-184.0","null","<div style=""font-size:60px;"">+</div>","null","","","","",""
"","image-button-response","185","230632","0.0-185.0","null","stimuli/images_hvm10/im45.png","","","null","45","5","2"
"","html-button-response","186","231820","0.0-186.0","1187.1000000238419","","","","1","","",""
"","html-keyboard-response","187","232837","0.0-187.0","null","<div style=""font-size:60px;"">+</div>","null","","","","",""
"","image-button-response","188","233338","0.0-188.0","null","stimuli/images_hvm10/im10.png","","","null","10","0","9"
"","html-button-response","189","234668","0.0-189.0","1328.800000011921","","","","0","","",""
"","html-keyboard-response","190","235670","0.0-190.0","null","<div style=""font-size:60px;"">+</div>","null","","","","",""
"","image-button-response","191","236171","0.0-191.0","null","stimuli/images_hvm10/im99.png","","","null","99","4","2"
"","html-button-response","192","237340","0.0-192.0","1168.1000000238419","","","","0","","",""
"","html-keyboard-response","193","238341","0.0-193.0","null","<div style=""font-size:60px;"">+</div>","null","","","","",""
"","image-button-response","194","238842","0.0-194.0","null","stimuli/images_hvm10/im4.png","","","null","4","0","8"
"","html-button-response","195","239606","0.0-195.0","763","","","","0","","",""
"","html-keyboard-response","196","240605","0.0-196.0","null","<div style=""font-size:60px;"">+</div>","null","","","","",""
"","image-button-response","197","241113","0.0-197.0","null","stimuli/images_hvm10/im47.png","","","null","47","9","2"
"","html-button-response","198","242451","0.0-198.0","1337.5","","","","0","","",""
"","html-keyboard-response","199","243453","0.0-199.0","null","<div style=""font-size:60px;"">+</div>","null","","","","",""
"","image-button-response","200","243959","0.0-200.0","null","stimuli/images_hvm10/im109.png","","","null","109","6","5"
"","html-button-response","201","244875","0.0-201.0","916","","","","1","","",""
"","html-keyboard-response","202","245877","0.0-202.0","null","<div style=""font-size:60px;"">+</div>","null","","","","",""
"","image-button-response","203","246379","0.0-203.0","null","stimuli/images_hvm10/im62.png","","","null","62","0","3"
"","html-button-response","204","247405","0.0-204.0","1025.9000000357628","","","","1","","",""
"","html-keyboard-response","205","248411","0.0-205.0","null","<div style=""font-size:60px;"">+</div>","null","","","","",""
"","image-button-response","206","248914","0.0-206.0","null","stimuli/images_hvm10/im134.png","","","null","134","2","6"
"","html-button-response","207","249957","0.0-207.0","1042.5","","","","1","","",""
"","html-keyboard-response","208","250963","0.0-208.0","null","<div style=""font-size:60px;"">+</div>","null","","","","",""
"","image-button-response","209","251464","0.0-209.0","null","stimuli/images_hvm10/im17.png","","","null","17","3","0"
"","html-button-response","210","252753","0.0-210.0","1288.5999999642372","","","","1","","",""
"","html-keyboard-response","211","253759","0.0-211.0","null","<div style=""font-size:60px;"">+</div>","null","","","","",""
"","image-button-response","212","254269","0.0-212.0","null","stimuli/images_hvm10/im130.png","","","null","130","6","8"
"","html-button-response","213","255560","0.0-213.0","1289.300000011921","","","","1","","",""
"","html-keyboard-response","214","256565","0.0-214.0","null","<div style=""font-size:60px;"">+</div>","null","","","","",""
"","image-button-response","215","257074","0.0-215.0","null","stimuli/images_hvm10/im95.png","","","null","95","7","4"
"","html-button-response","216","258608","0.0-216.0","1533","","","","1","","",""
"","html-keyboard-response","217","259613","0.0-217.0","null","<div style=""font-size:60px;"">+</div>","null","","","","",""
"","image-button-response","218","260126","0.0-218.0","null","stimuli/images_hvm10/im137.png","","","null","137","6","0"
"","html-button-response","219","261232","0.0-219.0","1105","","","","0","","",""
"","html-keyboard-response","220","262233","0.0-220.0","null","<div style=""font-size:60px;"">+</div>","null","","","","",""
"","image-button-response","221","262734","0.0-221.0","null","stimuli/images_hvm10/im168.png","","","null","168","6","8"
"","html-button-response","222","263830","0.0-222.0","1094.199999988079","","","","1","","",""
"","html-keyboard-response","223","264831","0.0-223.0","null","<div style=""font-size:60px;"">+</div>","null","","","","",""
"","image-button-response","224","265333","0.0-224.0","null","stimuli/images_hvm10/im94.png","","","null","94","1","4"
"","html-button-response","225","267150","0.0-225.0","1815.800000011921","","","","0","","",""
"","html-keyboard-response","226","268151","0.0-226.0","null","<div style=""font-size:60px;"">+</div>","null","","","","",""
"","image-button-response","227","268652","0.0-227.0","null","stimuli/images_hvm10/im29.png","","","null","29","6","1"
"","html-button-response","228","270010","0.0-228.0","1356.300000011921","","","","1","","",""
"","html-keyboard-response","229","271019","0.0-229.0","null","<div style=""font-size:60px;"">+</div>","null","","","","",""
"","image-button-response","230","271528","0.0-230.0","null","stimuli/images_hvm10/im131.png","","","null","131","3","6"
"","html-button-response","231","272396","0.0-231.0","866.3999999761581","","","","1","","",""
"","html-keyboard-response","232","273405","0.0-232.0","null","<div style=""font-size:60px;"">+</div>","null","","","","",""
"","image-button-response","233","273907","0.0-233.0","null","stimuli/images_hvm10/im112.png","","","null","112","5","8"
"","html-button-response","234","274816","0.0-234.0","907.8999999761581","","","","0","","",""
"","html-keyboard-response","235","275817","0.0-235.0","null","<div style=""font-size:60px;"">+</div>","null","","","","",""
"","image-button-response","236","276334","0.0-236.0","null","stimuli/images_hvm10/im83.png","","","null","83","7","4"
"","html-button-response","237","277464","0.0-237.0","1128.8999999761581","","","","1","","",""
"","html-keyboard-response","238","278469","0.0-238.0","null","<div style=""font-size:60px;"">+</div>","null","","","","",""
"","image-button-response","239","278971","0.0-239.0","null","stimuli/images_hvm10/im52.png","","","null","52","2","8"
"","html-button-response","240","280462","0.0-240.0","1490","","","","0","","",""
"","html-keyboard-response","241","281471","0.0-241.0","null","<div style=""font-size:60px;"">+</div>","null","","","","",""
"","image-button-response","242","281973","0.0-242.0","null","stimuli/images_hvm10/im163.png","","","null","163","7","8"
"","html-button-response","243","283006","0.0-243.0","1031.800000011921","","","","1","","",""
"","html-keyboard-response","244","284007","0.0-244.0","null","<div style=""font-size:60px;"">+</div>","null","","","","",""
"","image-button-response","245","284510","0.0-245.0","null","stimuli/images_hvm10/im3.png","","","null","3","0","6"
"","html-button-response","246","285902","0.0-246.0","1390.800000011921","","","","0","","",""
"","html-keyboard-response","247","286907","0.0-247.0","null","<div style=""font-size:60px;"">+</div>","null","","","","",""
"","image-button-response","248","287408","0.0-248.0","null","stimuli/images_hvm10/im40.png","","","null","40","0","2"
"","html-button-response","249","288512","0.0-249.0","1102.6000000238419","","","","1","","",""
"","html-keyboard-response","250","289514","0.0-250.0","null","<div style=""font-size:60px;"">+</div>","null","","","","",""
"","image-button-response","251","290015","0.0-251.0","null","stimuli/images_hvm10/im167.png","","","null","167","0","8"
"","html-button-response","252","291028","0.0-252.0","1011.6999999880791","","","","1","","",""
"","html-keyboard-response","253","292036","0.0-253.0","null","<div style=""font-size:60px;"">+</div>","null","","","","",""
"","image-button-response","254","292548","0.0-254.0","null","stimuli/images_hvm10/im0.png","","","null","0","0","4"
"","html-button-response","255","293696","0.0-255.0","1147.3999999761581","","","","0","","",""
"","html-keyboard-response","256","294710","0.0-256.0","null","<div style=""font-size:60px;"">+</div>","null","","","","",""
"","image-button-response","257","295212","0.0-257.0","null","stimuli/images_hvm10/im98.png","","","null","98","9","4"
"","html-button-response","258","296386","0.0-258.0","1173.6000000238419","","","","1","","",""
"","html-keyboard-response","259","297393","0.0-259.0","null","<div style=""font-size:60px;"">+</div>","null","","","","",""
"","image-button-response","260","297902","0.0-260.0","null","stimuli/images_hvm10/im140.png","","","null","140","6","7"
"","html-button-response","261","298878","0.0-261.0","966.6000000238419","","","","1","","",""
"","html-keyboard-response","262","299883","0.0-262.0","null","<div style=""font-size:60px;"">+</div>","null","","","","",""
"","image-button-response","263","300385","0.0-263.0","null","stimuli/images_hvm10/im128.png","","","null","128","6","0"
"","html-button-response","264","302203","0.0-264.0","1820.1000000238419","","","","0","","",""
"","html-keyboard-response","265","303204","0.0-265.0","null","<div style=""font-size:60px;"">+</div>","null","","","","",""
"","image-button-response","266","303719","0.0-266.0","null","stimuli/images_hvm10/im37.png","","","null","37","8","1"
"","html-button-response","267","304809","0.0-267.0","1089.5","","","","0","","",""
"","html-keyboard-response","268","305810","0.0-268.0","null","<div style=""font-size:60px;"">+</div>","null","","","","",""
"","image-button-response","269","306312","0.0-269.0","null","stimuli/images_hvm10/im185.png","","","null","185","9","6"
"","html-button-response","270","307473","0.0-270.0","1160.7999999523163","","","","0","","",""
"","html-keyboard-response","271","308474","0.0-271.0","null","<div style=""font-size:60px;"">+</div>","null","","","","",""
"","image-button-response","272","308976","0.0-272.0","null","stimuli/images_hvm10/im100.png","","","null","100","5","2"
"","html-button-response","273","309801","0.0-273.0","825","","","","0","","",""
"","html-keyboard-response","274","310803","0.0-274.0","null","<div style=""font-size:60px;"">+</div>","null","","","","",""
"","image-button-response","275","311313","0.0-275.0","null","stimuli/images_hvm10/im102.png","","","null","102","5","4"
"","html-button-response","276","312167","0.0-276.0","853.3999999761581","","","","0","","",""
"","html-keyboard-response","277","313169","0.0-277.0","null","<div style=""font-size:60px;"">+</div>","null","","","","",""
"","image-button-response","278","313671","0.0-278.0","null","stimuli/images_hvm10/im184.png","","","null","184","0","9"
"","html-button-response","279","314892","0.0-279.0","1219.699999988079","","","","1","","",""
"","html-keyboard-response","280","315894","0.0-280.0","null","<div style=""font-size:60px;"">+</div>","null","","","","",""
"","image-button-response","281","316406","0.0-281.0","null","stimuli/images_hvm10/im115.png","","","null","115","5","3"
"","html-button-response","282","317848","0.0-282.0","1440.5","","","","0","","",""
"","html-keyboard-response","283","318850","0.0-283.0","null","<div style=""font-size:60px;"">+</div>","null","","","","",""
"","image-button-response","284","319360","0.0-284.0","null","stimuli/images_hvm10/im192.png","","","null","192","9","4"
"","html-button-response","285","320370","0.0-285.0","1008.6999999880791","","","","0","","",""
"","html-keyboard-response","286","321376","0.0-286.0","null","<div style=""font-size:60px;"">+</div>","null","","","","",""
"","image-button-response","287","321888","0.0-287.0","null","stimuli/images_hvm10/im90.png","","","null","90","7","4"
"","html-button-response","288","322734","0.0-288.0","844.7000000476837","","","","1","","",""
"","html-keyboard-response","289","323749","0.0-289.0","null","<div style=""font-size:60px;"">+</div>","null","","","","",""
"","image-button-response","290","324259","0.0-290.0","null","stimuli/images_hvm10/im61.png","","","null","61","1","3"
"","html-button-response","291","325150","0.0-291.0","889.7000000476837","","","","1","","",""
"","html-keyboard-response","292","326166","0.0-292.0","null","<div style=""font-size:60px;"">+</div>","null","","","","",""
"","image-button-response","293","326675","0.0-293.0","null","stimuli/images_hvm10/im70.png","","","null","70","3","8"
"","html-button-response","294","327600","0.0-294.0","923.2000000476837","","","","0","","",""
"","html-keyboard-response","295","328606","0.0-295.0","null","<div style=""font-size:60px;"">+</div>","null","","","","",""
"","image-button-response","296","329115","0.0-296.0","null","stimuli/images_hvm10/im193.png","","","null","193","1","9"
"","html-button-response","297","329872","0.0-297.0","756.0999999642372","","","","1","","",""
"","html-keyboard-response","298","330888","0.0-298.0","null","<div style=""font-size:60px;"">+</div>","null","","","","",""
"","image-button-response","299","331390","0.0-299.0","null","stimuli/images_hvm10/im110.png","","","null","110","5","8"
"","html-button-response","300","332232","0.0-300.0","841","","","","0","","",""
"","html-keyboard-response","301","333245","0.0-301.0","null","<div style=""font-size:60px;"">+</div>","null","","","","",""
"","image-button-response","302","333756","0.0-302.0","null","stimuli/images_hvm10/im164.png","","","null","164","4","8"
"","html-button-response","303","334710","0.0-303.0","952.8000000119209","","","","1","","",""
"","html-keyboard-response","304","335720","0.0-304.0","null","<div style=""font-size:60px;"">+</div>","null","","","","",""
"","image-button-response","305","336221","0.0-305.0","null","stimuli/images_hvm10/im48.png","","","null","48","0","2"
"","html-button-response","306","337210","0.0-306.0","987.5999999642372","","","","1","","",""
"","html-keyboard-response","307","338211","0.0-307.0","null","<div style=""font-size:60px;"">+</div>","null","","","","",""
"","image-button-response","308","338717","0.0-308.0","null","stimuli/images_hvm10/im124.png","","","null","124","2","6"
"","html-button-response","309","339878","0.0-309.0","1160.300000011921","","","","1","","",""
"","html-keyboard-response","310","340886","0.0-310.0","null","<div style=""font-size:60px;"">+</div>","null","","","","",""
"","image-button-response","311","341395","0.0-311.0","null","stimuli/images_hvm10/im187.png","","","null","187","1","9"
"","html-button-response","312","342360","0.0-312.0","964.3000000119209","","","","1","","",""
"","html-keyboard-response","313","343361","0.0-313.0","null","<div style=""font-size:60px;"">+</div>","null","","","","",""
"","image-button-response","314","343870","0.0-314.0","null","stimuli/images_hvm10/im144.png","","","null","144","5","7"
"","html-button-response","315","344792","0.0-315.0","920.4000000357628","","","","1","","",""
"","html-keyboard-response","316","345801","0.0-316.0","null","<div style=""font-size:60px;"">+</div>","null","","","","",""
"","image-button-response","317","346314","0.0-317.0","null","stimuli/images_hvm10/im31.png","","","null","31","9","1"
"","html-button-response","318","348528","0.0-318.0","2213.199999988079","","","","1","","",""
"","html-keyboard-response","319","349539","0.0-319.0","null","<div style=""font-size:60px;"">+</div>","null","","","","",""
"","image-button-response","320","350040","0.0-320.0","null","stimuli/images_hvm10/im41.png","","","null","41","6","2"
"","html-button-response","321","350822","0.0-321.0","781","","","","1","","",""
"","html-keyboard-response","322","351838","0.0-322.0","null","<div style=""font-size:60px;"">+</div>","null","","","","",""
"","image-button-response","323","352340","0.0-323.0","null","stimuli/images_hvm10/im190.png","","","null","190","9","7"
"","html-button-response","324","353206","0.0-324.0","864.6000000238419","","","","0","","",""
"","html-keyboard-response","325","354212","0.0-325.0","null","<div style=""font-size:60px;"">+</div>","null","","","","",""
"","image-button-response","326","354721","0.0-326.0","null","stimuli/images_hvm10/im60.png","","","null","60","3","5"
"","html-button-response","327","355654","0.0-327.0","931.5","","","","0","","",""
"","html-keyboard-response","328","356662","0.0-328.0","null","<div style=""font-size:60px;"">+</div>","null","","","","",""
"","image-button-response","329","357164","0.0-329.0","null","stimuli/images_hvm10/im58.png","","","null","58","2","9"
"","html-button-response","330","357946","0.0-330.0","780.6999999880791","","","","0","","",""
"","html-keyboard-response","331","358960","0.0-331.0","null","<div style=""font-size:60px;"">+</div>","null","","","","",""
"","image-button-response","332","359461","0.0-332.0","null","stimuli/images_hvm10/im39.png","","","null","39","1","6"
"","html-button-response","333","360296","0.0-333.0","833.8000000119209","","","","0","","",""
"","html-keyboard-response","334","361305","0.0-334.0","null","<div style=""font-size:60px;"">+</div>","null","","","","",""
"","image-button-response","335","361817","0.0-335.0","null","stimuli/images_hvm10/im173.png","","","null","173","4","8"
"","html-button-response","336","363495","0.0-336.0","1677.1000000238419","","","","0","","",""
"","html-keyboard-response","337","364506","0.0-337.0","null","<div style=""font-size:60px;"">+</div>","null","","","","",""
"","image-button-response","338","365008","0.0-338.0","null","stimuli/images_hvm10/im84.png","","","null","84","4","2"
"","html-button-response","339","366169","0.0-339.0","1159.800000011921","","","","0","","",""
"","html-keyboard-response","340","367170","0.0-340.0","null","<div style=""font-size:60px;"">+</div>","null","","","","",""
"","image-button-response","341","367681","0.0-341.0","null","stimuli/images_hvm10/im88.png","","","null","88","1","4"
"","html-button-response","342","369241","0.0-342.0","1558.5","","","","0","","",""
"","html-keyboard-response","343","370245","0.0-343.0","null","<div style=""font-size:60px;"">+</div>","null","","","","",""
"","image-button-response","344","370754","0.0-344.0","null","stimuli/images_hvm10/im170.png","","","null","170","4","8"
"","html-button-response","345","371689","0.0-345.0","933.6999999880791","","","","1","","",""
"","html-keyboard-response","346","372690","0.0-346.0","null","<div style=""font-size:60px;"">+</div>","null","","","","",""
"","image-button-response","347","373192","0.0-347.0","null","stimuli/images_hvm10/im107.png","","","null","107","0","5"
"","html-button-response","348","374039","0.0-348.0","846.0999999642372","","","","1","","",""
"","html-keyboard-response","349","375041","0.0-349.0","null","<div style=""font-size:60px;"">+</div>","null","","","","",""
"","image-button-response","350","375551","0.0-350.0","null","stimuli/images_hvm10/im51.png","","","null","51","0","2"
"","html-button-response","351","376223","0.0-351.0","671.1999999880791","","","","1","","",""
"","html-keyboard-response","352","377233","0.0-352.0","null","<div style=""font-size:60px;"">+</div>","null","","","","",""
"","image-button-response","353","377743","0.0-353.0","null","stimuli/images_hvm10/im19.png","","","null","19","0","3"
"","html-button-response","354","378747","0.0-354.0","1003.3000000119209","","","","0","","",""
"","html-keyboard-response","355","379756","0.0-355.0","null","<div style=""font-size:60px;"">+</div>","null","","","","",""
"","image-button-response","356","380257","0.0-356.0","null","stimuli/images_hvm10/im75.png","","","null","75","3","1"
"","html-button-response","357","381035","0.0-357.0","776.5","","","","0","","",""
"","html-keyboard-response","358","382050","0.0-358.0","null","<div style=""font-size:60px;"">+</div>","null","","","","",""
"","image-button-response","359","382558","0.0-359.0","null","stimuli/images_hvm10/im18.png","","","null","18","0","2"
"","html-button-response","360","383429","0.0-360.0","870.5999999642372","","","","0","","",""
"","html-keyboard-response","361","384437","0.0-361.0","null","<div style=""font-size:60px;"">+</div>","null","","","","",""
"","image-button-response","362","384946","0.0-362.0","null","stimuli/images_hvm10/im135.png","","","null","135","6","2"
"","html-button-response","363","385861","0.0-363.0","914.0999999642372","","","","0","","",""
"","html-keyboard-response","364","386865","0.0-364.0","null","<div style=""font-size:60px;"">+</div>","null","","","","",""
"","image-button-response","365","387366","0.0-365.0","null","stimuli/images_hvm10/im159.png","","","null","159","7","8"
"","html-button-response","366","388277","0.0-366.0","909.7999999523163","","","","0","","",""
"","html-keyboard-response","367","389279","0.0-367.0","null","<div style=""font-size:60px;"">+</div>","null","","","","",""
"","image-button-response","368","389790","0.0-368.0","null","stimuli/images_hvm10/im166.png","","","null","166","0","8"
"","html-button-response","369","390723","0.0-369.0","932.6000000238419","","","","1","","",""
"","html-keyboard-response","370","391725","0.0-370.0","null","<div style=""font-size:60px;"">+</div>","null","","","","",""
"","image-button-response","371","392226","0.0-371.0","null","stimuli/images_hvm10/im176.png","","","null","176","0","8"
"","html-button-response","372","393619","0.0-372.0","1391.800000011921","","","","0","","",""
"","html-keyboard-response","373","394631","0.0-373.0","null","<div style=""font-size:60px;"">+</div>","null","","","","",""
"","image-button-response","374","395133","0.0-374.0","null","stimuli/images_hvm10/im1.png","","","null","1","0","8"
"","html-button-response","375","395907","0.0-375.0","773.6000000238419","","","","0","","",""
"","html-keyboard-response","376","396909","0.0-376.0","null","<div style=""font-size:60px;"">+</div>","null","","","","",""
"","image-button-response","377","397411","0.0-377.0","null","stimuli/images_hvm10/im161.png","","","null","161","2","8"
"","html-button-response","378","398129","0.0-378.0","717.5","","","","1","","",""
"","html-keyboard-response","379","399138","0.0-379.0","null","<div style=""font-size:60px;"">+</div>","null","","","","",""
"","image-button-response","380","399639","0.0-380.0","null","stimuli/images_hvm10/im111.png","","","null","111","5","2"
"","html-button-response","381","400521","0.0-381.0","881.1000000238419","","","","0","","",""
"","html-keyboard-response","382","401527","0.0-382.0","null","<div style=""font-size:60px;"">+</div>","null","","","","",""
"","image-button-response","383","402028","0.0-383.0","null","stimuli/images_hvm10/im63.png","","","null","63","3","9"
"","html-button-response","384","403213","0.0-384.0","1184.300000011921","","","","0","","",""
"","html-keyboard-response","385","404215","0.0-385.0","null","<div style=""font-size:60px;"">+</div>","null","","","","",""
"","image-button-response","386","404719","0.0-386.0","null","stimuli/images_hvm10/im136.png","","","null","136","6","2"
"","html-button-response","387","405663","0.0-387.0","944","","","","1","","",""
"","html-keyboard-response","388","406676","0.0-388.0","null","<div style=""font-size:60px;"">+</div>","null","","","","",""
"","image-button-response","389","407189","0.0-389.0","null","stimuli/images_hvm10/im198.png","","","null","198","9","6"
"","html-button-response","390","408243","0.0-390.0","1053.5","","","","0","","",""
"","html-keyboard-response","391","409245","0.0-391.0","null","<div style=""font-size:60px;"">+</div>","null","","","","",""
"","image-button-response","392","409752","0.0-392.0","null","stimuli/images_hvm10/im6.png","","","null","6","0","3"
"","html-button-response","393","410779","0.0-393.0","1026.3999999761581","","","","0","","",""
"","html-keyboard-response","394","411780","0.0-394.0","null","<div style=""font-size:60px;"">+</div>","null","","","","",""
"","image-button-response","395","412287","0.0-395.0","null","stimuli/images_hvm10/im141.png","","","null","141","7","0"
"","html-button-response","396","412995","0.0-396.0","707.1999999880791","","","","0","","",""
"","html-keyboard-response","397","414011","0.0-397.0","null","<div style=""font-size:60px;"">+</div>","null","","","","",""
"","image-button-response","398","414521","0.0-398.0","null","stimuli/images_hvm10/im27.png","","","null","27","1","8"
"","html-button-response","399","415433","0.0-399.0","911.5","","","","0","","",""
"","html-keyboard-response","400","416436","0.0-400.0","null","<div style=""font-size:60px;"">+</div>","null","","","","",""
"","image-button-response","401","416945","0.0-401.0","null","stimuli/images_hvm10/im38.png","","","null","38","1","4"
"","html-button-response","402","418001","0.0-402.0","1056","","","","0","","",""
"","html-keyboard-response","403","419008","0.0-403.0","null","<div style=""font-size:60px;"">+</div>","null","","","","",""
"","image-button-response","404","419509","0.0-404.0","null","stimuli/images_hvm10/im59.png","","","null","59","1","2"
"","html-button-response","405","420294","0.0-405.0","783.1999999880791","","","","1","","",""
"","html-keyboard-response","406","421302","0.0-406.0","null","<div style=""font-size:60px;"">+</div>","null","","","","",""
"","image-button-response","407","421809","0.0-407.0","null","stimuli/images_hvm10/im91.png","","","null","91","4","0"
"","html-button-response","408","422775","0.0-408.0","964.6000000238419","","","","0","","",""
"","html-keyboard-response","409","423783","0.0-409.0","null","<div style=""font-size:60px;"">+</div>","null","","","","",""
"","image-button-response","410","424285","0.0-410.0","null","stimuli/images_hvm10/im13.png","","","null","13","8","0"
"","html-button-response","411","424847","0.0-411.0","561","","","","1","","",""
"","html-keyboard-response","412","425862","0.0-412.0","null","<div style=""font-size:60px;"">+</div>","null","","","","",""
"","image-button-response","413","426363","0.0-413.0","null","stimuli/images_hvm10/im127.png","","","null","127","0","6"
"","html-button-response","414","427011","0.0-414.0","646.7999999523163","","","","1","","",""
"","html-keyboard-response","415","428026","0.0-415.0","null","<div style=""font-size:60px;"">+</div>","null","","","","",""
"","image-button-response","416","428528","0.0-416.0","null","stimuli/images_hvm10/im165.png","","","null","165","8","3"
"","html-button-response","417","429397","0.0-417.0","867.7999999523163","","","","0","","",""
"","html-keyboard-response","418","430399","0.0-418.0","null","<div style=""font-size:60px;"">+</div>","null","","","","",""
"","image-button-response","419","430901","0.0-419.0","null","stimuli/images_hvm10/im16.png","","","null","16","0","7"
"","html-button-response","420","431941","0.0-420.0","1038.8999999761581","","","","0","","",""
"","html-keyboard-response","421","432943","0.0-421.0","null","<div style=""font-size:60px;"">+</div>","null","","","","",""
"","image-button-response","422","433444","0.0-422.0","null","stimuli/images_hvm10/im177.png","","","null","177","8","5"
"","html-button-response","423","434245","0.0-423.0","799.6999999880791","","","","0","","",""
"","html-keyboard-response","424","435250","0.0-424.0","null","<div style=""font-size:60px;"">+</div>","null","","","","",""
"","image-button-response","425","435757","0.0-425.0","null","stimuli/images_hvm10/im138.png","","","null","138","6","2"
"","html-button-response","426","437309","0.0-426.0","1550.3999999761581","","","","0","","",""
"","html-keyboard-response","427","438313","0.0-427.0","null","<div style=""font-size:60px;"">+</div>","null","","","","",""
"","image-button-response","428","438820","0.0-428.0","null","stimuli/images_hvm10/im156.png","","","null","156","9","7"
"","html-button-response","429","439619","0.0-429.0","797.7000000476837","","","","1","","",""
"","html-keyboard-response","430","440620","0.0-430.0","null","<div style=""font-size:60px;"">+</div>","null","","","","",""
"","image-button-response","431","441124","0.0-431.0","null","stimuli/images_hvm10/im12.png","","","null","12","8","0"
"","html-button-response","432","441811","0.0-432.0","686","","","","1","","",""
"","html-keyboard-response","433","442821","0.0-433.0","null","<div style=""font-size:60px;"">+</div>","null","","","","",""
"","image-button-response","434","443322","0.0-434.0","null","stimuli/images_hvm10/im147.png","","","null","147","7","8"
"","html-button-response","435","444003","0.0-435.0","679.8000000119209","","","","0","","",""
"","html-keyboard-response","436","445016","0.0-436.0","null","<div style=""font-size:60px;"">+</div>","null","","","","",""
"","image-button-response","437","445517","0.0-437.0","null","stimuli/images_hvm10/im150.png","","","null","150","5","7"
"","html-button-response","438","446221","0.0-438.0","703","","","","1","","",""
"","html-keyboard-response","439","447225","0.0-439.0","null","<div style=""font-size:60px;"">+</div>","null","","","","",""
"","image-button-response","440","447727","0.0-440.0","null","stimuli/images_hvm10/im55.png","","","null","55","2","3"
"","html-button-response","441","448673","0.0-441.0","944.8999999761581","","","","0","","",""
"","html-keyboard-response","442","449675","0.0-442.0","null","<div style=""font-size:60px;"">+</div>","null","","","","",""
"","image-button-response","443","450177","0.0-443.0","null","stimuli/images_hvm10/im22.png","","","null","22","5","1"
"","html-button-response","444","451065","0.0-444.0","887.3999999761581","","","","1","","",""
"","html-keyboard-response","445","452067","0.0-445.0","null","<div style=""font-size:60px;"">+</div>","null","","","","",""
"","image-button-response","446","452568","0.0-446.0","null","stimuli/images_hvm10/im34.png","","","null","34","1","3"
"","html-button-response","447","453367","0.0-447.0","798.1999999880791","","","","0","","",""
"","html-keyboard-response","448","454370","0.0-448.0","null","<div style=""font-size:60px;"">+</div>","null","","","","",""
"","image-button-response","449","454881","0.0-449.0","null","stimuli/images_hvm10/im157.png","","","null","157","3","7"
"","html-button-response","450","455527","0.0-450.0","645.5","","","","1","","",""
"","html-keyboard-response","451","456538","0.0-451.0","null","<div style=""font-size:60px;"">+</div>","null","","","","",""
"","image-button-response","452","457050","0.0-452.0","null","stimuli/images_hvm10/im54.png","","","null","54","2","9"
"","html-button-response","453","457759","0.0-453.0","708.9000000357628","","","","0","","",""
"","html-keyboard-response","454","458763","0.0-454.0","null","<div style=""font-size:60px;"">+</div>","null","","","","",""
"","image-button-response","455","459274","0.0-455.0","null","stimuli/images_hvm10/im76.png","","","null","76","3","9"
"","html-button-response","456","460003","0.0-456.0","728.3999999761581","","","","0","","",""
"","html-keyboard-response","457","461015","0.0-457.0","null","<div style=""font-size:60px;"">+</div>","null","","","","",""
"","image-button-response","458","461527","0.0-458.0","null","stimuli/images_hvm10/im117.png","","","null","117","5","1"
"","html-button-response","459","462201","0.0-459.0","674.1999999880791","","","","0","","",""
"","html-keyboard-response","460","463205","0.0-460.0","null","<div style=""font-size:60px;"">+</div>","null","","","","",""
"","image-button-response","461","463714","0.0-461.0","null","stimuli/images_hvm10/im152.png","","","null","152","7","4"
"","html-button-response","462","464485","0.0-462.0","770.8999999761581","","","","0","","",""
"","html-keyboard-response","463","465493","0.0-463.0","null","<div style=""font-size:60px;"">+</div>","null","","","","",""
"","image-button-response","464","466005","0.0-464.0","null","stimuli/images_hvm10/im28.png","","","null","28","1","5"
"","html-button-response","465","466765","0.0-465.0","759.0999999642372","","","","0","","",""
"","html-keyboard-response","466","467767","0.0-466.0","null","<div style=""font-size:60px;"">+</div>","null","","","","",""
"","image-button-response","467","468279","0.0-467.0","null","stimuli/images_hvm10/im181.png","","","null","181","9","4"
"","html-button-response","468","468982","0.0-468.0","701.0999999642372","","","","0","","",""
"","html-keyboard-response","469","469983","0.0-469.0","null","<div style=""font-size:60px;"">+</div>","null","","","","",""
"","image-button-response","470","470486","0.0-470.0","null","stimuli/images_hvm10/im196.png","","","null","196","9","0"
"","html-button-response","471","471232","0.0-471.0","744.8000000119209","","","","0","","",""
"","html-keyboard-response","472","472247","0.0-472.0","null","<div style=""font-size:60px;"">+</div>","null","","","","",""
"","image-button-response","473","472759","0.0-473.0","null","stimuli/images_hvm10/im53.png","","","null","53","7","2"
"","html-button-response","474","473692","0.0-474.0","931.8000000119209","","","","1","","",""
"","html-keyboard-response","475","474693","0.0-475.0","null","<div style=""font-size:60px;"">+</div>","null","","","","",""
"","image-button-response","476","475196","0.0-476.0","null","stimuli/images_hvm10/im74.png","","","null","74","7","3"
"","html-button-response","477","476004","0.0-477.0","806.8999999761581","","","","1","","",""
"","html-keyboard-response","478","477010","0.0-478.0","null","<div style=""font-size:60px;"">+</div>","null","","","","",""
"","image-button-response","479","477511","0.0-479.0","null","stimuli/images_hvm10/im33.png","","","null","33","1","0"
"","html-button-response","480","478190","0.0-480.0","677.2000000476837","","","","0","","",""
"","html-keyboard-response","481","479192","0.0-481.0","null","<div style=""font-size:60px;"">+</div>","null","","","","",""
"","image-button-response","482","479704","0.0-482.0","null","stimuli/images_hvm10/im69.png","","","null","69","3","7"
"","html-button-response","483","480894","0.0-483.0","1188.4000000357628","","","","0","","",""
"","html-keyboard-response","484","481896","0.0-484.0","null","<div style=""font-size:60px;"">+</div>","null","","","","",""
"","image-button-response","485","482398","0.0-485.0","null","stimuli/images_hvm10/im116.png","","","null","116","1","5"
"","html-button-response","486","483066","0.0-486.0","667.2000000476837","","","","1","","",""
"","html-keyboard-response","487","484075","0.0-487.0","null","<div style=""font-size:60px;"">+</div>","null","","","","",""
"","image-button-response","488","484576","0.0-488.0","null","stimuli/images_hvm10/im129.png","","","null","129","6","8"
"","html-button-response","489","485689","0.0-489.0","1111.199999988079","","","","1","","",""
"","html-keyboard-response","490","486694","0.0-490.0","null","<div style=""font-size:60px;"">+</div>","null","","","","",""
"","image-button-response","491","487202","0.0-491.0","null","stimuli/images_hvm10/im120.png","","","null","120","6","9"
"","html-button-response","492","488276","0.0-492.0","1072.699999988079","","","","1","","",""
"","html-keyboard-response","493","489277","0.0-493.0","null","<div style=""font-size:60px;"">+</div>","null","","","","",""
"","image-button-response","494","489778","0.0-494.0","null","stimuli/images_hvm10/im2.png","","","null","2","9","0"
"","html-button-response","495","490608","0.0-495.0","828.5999999642372","","","","1","","",""
"","html-keyboard-response","496","491610","0.0-496.0","null","<div style=""font-size:60px;"">+</div>","null","","","","",""
"","image-button-response","497","492111","0.0-497.0","null","stimuli/images_hvm10/im72.png","","","null","72","9","3"
"","html-button-response","498","492986","0.0-498.0","874.0999999642372","","","","1","","",""
"","html-keyboard-response","499","494002","0.0-499.0","null","<div style=""font-size:60px;"">+</div>","null","","","","",""
"","image-button-response","500","494503","0.0-500.0","null","stimuli/images_hvm10/im191.png","","","null","191","9","6"
"","html-button-response","501","495374","0.0-501.0","869.9000000357628","","","","0","","",""
"","html-keyboard-response","502","496377","0.0-502.0","null","<div style=""font-size:60px;"">+</div>","null","","","","",""
"","image-button-response","503","496880","0.0-503.0","null","stimuli/images_hvm10/im78.png","","","null","78","3","8"
"","html-button-response","504","497642","0.0-504.0","761.3000000119209","","","","0","","",""
"","html-keyboard-response","505","498646","0.0-505.0","null","<div style=""font-size:60px;"">+</div>","null","","","","",""
"","image-button-response","506","499148","0.0-506.0","null","stimuli/images_hvm10/im133.png","","","null","133","6","4"
"","html-button-response","507","499863","0.0-507.0","714","","","","0","","",""
"","html-keyboard-response","508","500874","0.0-508.0","null","<div style=""font-size:60px;"">+</div>","null","","","","",""
"","image-button-response","509","501385","0.0-509.0","null","stimuli/images_hvm10/im155.png","","","null","155","7","9"
"","html-button-response","510","502252","0.0-510.0","866.5","","","","0","","",""
"","html-keyboard-response","511","503257","0.0-511.0","null","<div style=""font-size:60px;"">+</div>","null","","","","",""
"","image-button-response","512","503759","0.0-512.0","null","stimuli/images_hvm10/im46.png","","","null","46","0","2"
"","html-button-response","513","504473","0.0-513.0","712.6999999880791","","","","1","","",""
"","html-keyboard-response","514","505478","0.0-514.0","null","<div style=""font-size:60px;"">+</div>","null","","","","",""
"","image-button-response","515","505980","0.0-515.0","null","stimuli/images_hvm10/im119.png","","","null","119","0","5"
"","html-button-response","516","506781","0.0-516.0","800.1999999880791","","","","1","","",""
"","html-keyboard-response","517","507782","0.0-517.0","null","<div style=""font-size:60px;"">+</div>","null","","","","",""
"","image-button-response","518","508290","0.0-518.0","null","stimuli/images_hvm10/im15.png","","","null","15","0","5"
"","html-button-response","519","509011","0.0-519.0","719","","","","0","","",""
"","html-keyboard-response","520","510018","0.0-520.0","null","<div style=""font-size:60px;"">+</div>","null","","","","",""
"","image-button-response","521","510525","0.0-521.0","null","stimuli/images_hvm10/im35.png","","","null","35","1","6"
"","html-button-response","522","511403","0.0-522.0","876.8999999761581","","","","0","","",""
"","html-keyboard-response","523","512413","0.0-523.0","null","<div style=""font-size:60px;"">+</div>","null","","","","",""
"","image-button-response","524","512915","0.0-524.0","null","stimuli/images_hvm10/im73.png","","","null","73","0","3"
"","html-button-response","525","513791","0.0-525.0","874.6000000238419","","","","1","","",""
"","html-keyboard-response","526","514803","0.0-526.0","null","<div style=""font-size:60px;"">+</div>","null","","","","",""
"","image-button-response","527","515310","0.0-527.0","null","stimuli/images_hvm10/im180.png","","","null","180","8","9"
"","html-button-response","528","516119","0.0-528.0","807.6000000238419","","","","1","","",""
"","html-keyboard-response","529","517126","0.0-529.0","null","<div style=""font-size:60px;"">+</div>","null","","","","",""
"","image-button-response","530","517635","0.0-530.0","null","stimuli/images_hvm10/im32.png","","","null","32","1","9"
"","html-button-response","531","518469","0.0-531.0","832.4000000357628","","","","0","","",""
"","html-keyboard-response","532","519470","0.0-532.0","null","<div style=""font-size:60px;"">+</div>","null","","","","",""
"","image-button-response","533","519982","0.0-533.0","null","stimuli/images_hvm10/im174.png","","","null","174","3","8"
"","html-button-response","534","521029","0.0-534.0","1045","","","","1","","",""
"","html-keyboard-response","535","522041","0.0-535.0","null","<div style=""font-size:60px;"">+</div>","null","","","","",""
"","image-button-response","536","522542","0.0-536.0","null","stimuli/images_hvm10/im7.png","","","null","7","7","0"
"","html-button-response","537","523281","0.0-537.0","737.5","","","","1","","",""
"","html-keyboard-response","538","524282","0.0-538.0","null","<div style=""font-size:60px;"">+</div>","null","","","","",""
"","image-button-response","539","524784","0.0-539.0","null","stimuli/images_hvm10/im162.png","","","null","162","9","8"
"","html-button-response","540","525547","0.0-540.0","761.5","","","","1","","",""
"","html-keyboard-response","541","526554","0.0-541.0","null","<div style=""font-size:60px;"">+</div>","null","","","","",""
"","image-button-response","542","527063","0.0-542.0","null","stimuli/images_hvm10/im8.png","","","null","8","3","0"
"","html-button-response","543","527848","0.0-543.0","783.5","","","","1","","",""
"","html-keyboard-response","544","528850","0.0-544.0","null","<div style=""font-size:60px;"">+</div>","null","","","","",""
"","image-button-response","545","529351","0.0-545.0","null","stimuli/images_hvm10/im178.png","","","null","178","8","2"
"","html-button-response","546","530103","0.0-546.0","750.8000000119209","","","","0","","",""
"","html-keyboard-response","547","531119","0.0-547.0","null","<div style=""font-size:60px;"">+</div>","null","","","","",""
"","image-button-response","548","531622","0.0-548.0","null","stimuli/images_hvm10/im87.png","","","null","87","9","4"
"","html-button-response","549","532937","0.0-549.0","1313.6000000238419","","","","0","","",""
"","html-keyboard-response","550","533938","0.0-550.0","null","<div style=""font-size:60px;"">+</div>","null","","","","",""
"","image-button-response","551","534440","0.0-551.0","null","stimuli/images_hvm10/im57.png","","","null","57","1","2"
"","html-button-response","552","535145","0.0-552.0","704.3000000119209","","","","1","","",""
"","html-keyboard-response","553","536157","0.0-553.0","null","<div style=""font-size:60px;"">+</div>","null","","","","",""
"","image-button-response","554","536670","0.0-554.0","null","stimuli/images_hvm10/im188.png","","","null","188","7","9"
"","html-button-response","555","537345","0.0-555.0","674.1000000238419","","","","1","","",""
"","html-keyboard-response","556","538355","0.0-556.0","null","<div style=""font-size:60px;"">+</div>","null","","","","",""
"","image-button-response","557","538867","0.0-557.0","null","stimuli/images_hvm10/im82.png","","","null","82","8","4"
"","html-button-response","558","539817","0.0-558.0","949.5999999642372","","","","1","","",""
"","html-keyboard-response","559","540830","0.0-559.0","null","<div style=""font-size:60px;"">+</div>","null","","","","",""
"","image-button-response","560","541339","0.0-560.0","null","stimuli/images_hvm10/im171.png","","","null","171","6","8"
"","html-button-response","561","542063","0.0-561.0","723.1999999880791","","","","1","","",""
"","html-keyboard-response","562","543065","0.0-562.0","null","<div style=""font-size:60px;"">+</div>","null","","","","",""
"","image-button-response","563","543567","0.0-563.0","null","stimuli/images_hvm10/im189.png","","","null","189","2","9"
"","html-button-response","564","544327","0.0-564.0","759.0999999642372","","","","1","","",""
"","html-keyboard-response","565","545330","0.0-565.0","null","<div style=""font-size:60px;"">+</div>","null","","","","",""
"","image-button-response","566","545832","0.0-566.0","null","stimuli/images_hvm10/im182.png","","","null","182","1","9"
"","html-button-response","567","546655","0.0-567.0","822.6000000238419","","","","1","","",""
"","html-keyboard-response","568","547667","0.0-568.0","null","<div style=""font-size:60px;"">+</div>","null","","","","",""
"","image-button-response","569","548178","0.0-569.0","null","stimuli/images_hvm10/im66.png","","","null","66","0","3"
"","html-button-response","570","548930","0.0-570.0","751.2999999523163","","","","1","","",""
"","html-keyboard-response","571","549931","0.0-571.0","null","<div style=""font-size:60px;"">+</div>","null","","","","",""
"","image-button-response","572","550432","0.0-572.0","null","stimuli/images_hvm10/im175.png","","","null","175","8","9"
"","html-button-response","573","551261","0.0-573.0","828.4000000357628","","","","0","","",""
"","html-keyboard-response","574","552263","0.0-574.0","null","<div style=""font-size:60px;"">+</div>","null","","","","",""
"","image-button-response","575","552764","0.0-575.0","null","stimuli/images_hvm10/im86.png","","","null","86","7","4"
"","html-button-response","576","553917","0.0-576.0","1152.3999999761581","","","","1","","",""
"","html-keyboard-response","577","554931","0.0-577.0","null","<div style=""font-size:60px;"">+</div>","null","","","","",""
"","image-button-response","578","555441","0.0-578.0","null","stimuli/images_hvm10/im77.png","","","null","77","3","4"
"","html-button-response","579","556203","0.0-579.0","760.8999999761581","","","","0","","",""
"","html-keyboard-response","580","557216","0.0-580.0","null","<div style=""font-size:60px;"">+</div>","null","","","","",""
"","image-button-response","581","557729","0.0-581.0","null","stimuli/images_hvm10/im104.png","","","null","104","0","5"
"","html-button-response","582","558680","0.0-582.0","949.6000000238419","","","","1","","",""
"","html-keyboard-response","583","559695","0.0-583.0","null","<div style=""font-size:60px;"">+</div>","null","","","","",""
"","image-button-response","584","560203","0.0-584.0","null","stimuli/images_hvm10/im113.png","","","null","113","5","6"
"","html-button-response","585","561052","0.0-585.0","847.3000000119209","","","","0","","",""
"","html-keyboard-response","586","562056","0.0-586.0","null","<div style=""font-size:60px;"">+</div>","null","","","","",""
"","image-button-response","587","562558","0.0-587.0","null","stimuli/images_hvm10/im50.png","","","null","50","0","2"
"","html-button-response","588","563348","0.0-588.0","788.6999999880791","","","","1","","",""
"","html-keyboard-response","589","564349","0.0-589.0","null","<div style=""font-size:60px;"">+</div>","null","","","","",""
"","image-button-response","590","564851","0.0-590.0","null","stimuli/images_hvm10/im106.png","","","null","106","1","5"
"","html-button-response","591","565682","0.0-591.0","829.6000000238419","","","","1","","",""
"","html-keyboard-response","592","566684","0.0-592.0","null","<div style=""font-size:60px;"">+</div>","null","","","","",""
"","image-button-response","593","567191","0.0-593.0","null","stimuli/images_hvm10/im108.png","","","null","108","5","1"
"","html-button-response","594","568798","0.0-594.0","1605.5999999642372","","","","0","","",""
"","html-keyboard-response","595","569800","0.0-595.0","null","<div style=""font-size:60px;"">+</div>","null","","","","",""
"","image-button-response","596","570302","0.0-596.0","null","stimuli/images_hvm10/im146.png","","","null","146","6","7"
"","html-button-response","597","571354","0.0-597.0","1050.699999988079","","","","1","","",""
"","html-keyboard-response","598","572355","0.0-598.0","null","<div style=""font-size:60px;"">+</div>","null","","","","",""
"","image-button-response","599","572866","0.0-599.0","null","stimuli/images_hvm10/im11.png","","","null","11","2","0"
"","html-button-response","600","573700","0.0-600.0","832.1999999880791","","","","1","","",""
