"success","trial_type","trial_index","time_elapsed","internal_node_id","rt","stimulus","key_press","responses","button_pressed","images","left_choice","right_choice"
"true","fullscreen","0","49109","0.0-0.0","","","","","","","",""
"","html-keyboard-response","1","51595","0.0-1.0","2484","Welcome to the experiment. Press any key to begin.","32","","","","",""
"","survey-html-form","2","59927","0.0-2.0","8329","","","{""p_id"":""1114"",""age"":""19"",""handedness"":""right"",""sex"":""female"",""other_sex"":""""}","","","",""
"","html-keyboard-response","3","75759","0.0-3.0","15832","<p>Please fixate at the center '+' sign which will appear once you press any key. Then, <strong> an image </strong> will be shown in the center of the screen.</p><p>The image will contain an object.This will be followed by a <strong> Choice Screen </strong> containing two objects. Please choose the option <strong>[Click on the object]</strong> that you think was present in the image<p>Press any key to begin.</p>","32","","","","",""
"","html-keyboard-response","4","78761","0.0-4.0","null","<div style=""font-size:60px;"">+</div>","null","","","","",""
"","image-button-response","5","79264","0.0-5.0","null","stimuli/images_hvm10/im180.png","","","null","180","9","6"
"","html-button-response","6","81347","0.0-6.0","2082","","","","0","","",""
"","html-keyboard-response","7","82348","0.0-7.0","null","<div style=""font-size:60px;"">+</div>","null","","","","",""
"","image-button-response","8","82850","0.0-8.0","null","stimuli/images_hvm10/im194.png","","","null","194","2","9"
"","html-button-response","9","84873","0.0-9.0","2022","","","","1","","",""
"","html-keyboard-response","10","85874","0.0-10.0","null","<div style=""font-size:60px;"">+</div>","null","","","","",""
"","image-button-response","11","86376","0.0-11.0","null","stimuli/images_hvm10/im54.png","","","null","54","2","6"
"","html-button-response","12","87720","0.0-12.0","1343","","","","0","","",""
"","html-keyboard-response","13","88721","0.0-13.0","null","<div style=""font-size:60px;"">+</div>","null","","","","",""
"","image-button-response","14","89223","0.0-14.0","null","stimuli/images_hvm10/im195.png","","","null","195","0","9"
"","html-button-response","15","95627","0.0-15.0","6403","","","","1","","",""
"","html-keyboard-response","16","96628","0.0-16.0","null","<div style=""font-size:60px;"">+</div>","null","","","","",""
"","image-button-response","17","97130","0.0-17.0","null","stimuli/images_hvm10/im12.png","","","null","12","7","0"
"","html-button-response","18","97979","0.0-18.0","847","","","","1","","",""
"","html-keyboard-response","19","98981","0.0-19.0","null","<div style=""font-size:60px;"">+</div>","null","","","","",""
"","image-button-response","20","99482","0.0-20.0","null","stimuli/images_hvm10/im193.png","","","null","193","9","4"
"","html-button-response","21","100110","0.0-21.0","626","","","","0","","",""
"","html-keyboard-response","22","101112","0.0-22.0","null","<div style=""font-size:60px;"">+</div>","null","","","","",""
"","image-button-response","23","101613","0.0-23.0","null","stimuli/images_hvm10/im44.png","","","null","44","2","0"
"","html-button-response","24","103518","0.0-24.0","1903","","","","0","","",""
"","html-keyboard-response","25","104519","0.0-25.0","null","<div style=""font-size:60px;"">+</div>","null","","","","",""
"","image-button-response","26","105020","0.0-26.0","null","stimuli/images_hvm10/im55.png","","","null","55","2","9"
"","html-button-response","27","107392","0.0-27.0","2371","","","","1","","",""
"","html-keyboard-response","28","108393","0.0-28.0","null","<div style=""font-size:60px;"">+</div>","null","","","","",""
"","image-button-response","29","108895","0.0-29.0","null","stimuli/images_hvm10/im183.png","","","null","183","1","9"
"","html-button-response","30","109468","0.0-30.0","571","","","","1","","",""
"","html-keyboard-response","31","110469","0.0-31.0","null","<div style=""font-size:60px;"">+</div>","null","","","","",""
"","image-button-response","32","110971","0.0-32.0","null","stimuli/images_hvm10/im181.png","","","null","181","7","9"
"","html-button-response","33","111354","0.0-33.0","381","","","","1","","",""
"","html-keyboard-response","34","112355","0.0-34.0","null","<div style=""font-size:60px;"">+</div>","null","","","","",""
"","image-button-response","35","112857","0.0-35.0","null","stimuli/images_hvm10/im197.png","","","null","197","2","9"
"","html-button-response","36","113280","0.0-36.0","422.00000000001455","","","","1","","",""
"","html-keyboard-response","37","114283","0.0-37.0","null","<div style=""font-size:60px;"">+</div>","null","","","","",""
"","image-button-response","38","114785","0.0-38.0","null","stimuli/images_hvm10/im119.png","","","null","119","8","5"
"","html-button-response","39","115530","0.0-39.0","744","","","","1","","",""
"","html-keyboard-response","40","116530","0.0-40.0","null","<div style=""font-size:60px;"">+</div>","null","","","","",""
"","image-button-response","41","117032","0.0-41.0","null","stimuli/images_hvm10/im97.png","","","null","97","1","4"
"","html-button-response","42","118220","0.0-42.0","1186.9999999999854","","","","1","","",""
"","html-keyboard-response","43","119222","0.0-43.0","null","<div style=""font-size:60px;"">+</div>","null","","","","",""
"","image-button-response","44","119723","0.0-44.0","null","stimuli/images_hvm10/im49.png","","","null","49","9","2"
"","html-button-response","45","120728","0.0-45.0","1004","","","","0","","",""
"","html-keyboard-response","46","121729","0.0-46.0","null","<div style=""font-size:60px;"">+</div>","null","","","","",""
"","image-button-response","47","122231","0.0-47.0","null","stimuli/images_hvm10/im67.png","","","null","67","3","0"
"","html-button-response","48","123002","0.0-48.0","770","","","","1","","",""
"","html-keyboard-response","49","124003","0.0-49.0","null","<div style=""font-size:60px;"">+</div>","null","","","","",""
"","image-button-response","50","124505","0.0-50.0","null","stimuli/images_hvm10/im146.png","","","null","146","7","2"
"","html-button-response","51","125442","0.0-51.0","936","","","","0","","",""
"","html-keyboard-response","52","126444","0.0-52.0","null","<div style=""font-size:60px;"">+</div>","null","","","","",""
"","image-button-response","53","126945","0.0-53.0","null","stimuli/images_hvm10/im72.png","","","null","72","3","9"
"","html-button-response","54","127772","0.0-54.0","824.9999999999854","","","","0","","",""
"","html-keyboard-response","55","128773","0.0-55.0","null","<div style=""font-size:60px;"">+</div>","null","","","","",""
"","image-button-response","56","129274","0.0-56.0","null","stimuli/images_hvm10/im167.png","","","null","167","4","8"
"","html-button-response","57","130354","0.0-57.0","1078.9999999999854","","","","1","","",""
"","html-keyboard-response","58","131355","0.0-58.0","null","<div style=""font-size:60px;"">+</div>","null","","","","",""
"","image-button-response","59","131857","0.0-59.0","null","stimuli/images_hvm10/im198.png","","","null","198","7","9"
"","html-button-response","60","132509","0.0-60.0","650.9999999999709","","","","1","","",""
"","html-keyboard-response","61","133510","0.0-61.0","null","<div style=""font-size:60px;"">+</div>","null","","","","",""
"","image-button-response","62","134011","0.0-62.0","null","stimuli/images_hvm10/im192.png","","","null","192","2","9"
"","html-button-response","63","134457","0.0-63.0","445","","","","1","","",""
"","html-keyboard-response","64","135459","0.0-64.0","null","<div style=""font-size:60px;"">+</div>","null","","","","",""
"","image-button-response","65","135961","0.0-65.0","null","stimuli/images_hvm10/im196.png","","","null","196","9","1"
"","html-button-response","66","136724","0.0-66.0","762","","","","0","","",""
"","html-keyboard-response","67","137725","0.0-67.0","null","<div style=""font-size:60px;"">+</div>","null","","","","",""
"","image-button-response","68","138226","0.0-68.0","null","stimuli/images_hvm10/im139.png","","","null","139","9","6"
"","html-button-response","69","139188","0.0-69.0","960","","","","0","","",""
"","html-keyboard-response","70","140190","0.0-70.0","null","<div style=""font-size:60px;"">+</div>","null","","","","",""
"","image-button-response","71","140691","0.0-71.0","null","stimuli/images_hvm10/im48.png","","","null","48","2","7"
"","html-button-response","72","143348","0.0-72.0","2655","","","","0","","",""
"","html-keyboard-response","73","144348","0.0-73.0","null","<div style=""font-size:60px;"">+</div>","null","","","","",""
"","image-button-response","74","144849","0.0-74.0","null","stimuli/images_hvm10/im20.png","","","null","20","5","1"
"","html-button-response","75","146027","0.0-75.0","1176","","","","0","","",""
"","html-keyboard-response","76","147028","0.0-76.0","null","<div style=""font-size:60px;"">+</div>","null","","","","",""
"","image-button-response","77","147530","0.0-77.0","null","stimuli/images_hvm10/im142.png","","","null","142","7","9"
"","html-button-response","78","148221","0.0-78.0","689.0000000000291","","","","0","","",""
"","html-keyboard-response","79","149222","0.0-79.0","null","<div style=""font-size:60px;"">+</div>","null","","","","",""
"","image-button-response","80","149723","0.0-80.0","null","stimuli/images_hvm10/im135.png","","","null","135","3","6"
"","html-button-response","81","152538","0.0-81.0","2814","","","","1","","",""
"","html-keyboard-response","82","153539","0.0-82.0","null","<div style=""font-size:60px;"">+</div>","null","","","","",""
"","image-button-response","83","154040","0.0-83.0","null","stimuli/images_hvm10/im157.png","","","null","157","0","7"
"","html-button-response","84","155026","0.0-84.0","984","","","","1","","",""
"","html-keyboard-response","85","156028","0.0-85.0","null","<div style=""font-size:60px;"">+</div>","null","","","","",""
"","image-button-response","86","156529","0.0-86.0","null","stimuli/images_hvm10/im173.png","","","null","173","8","4"
"","html-button-response","87","157403","0.0-87.0","872.9999999999709","","","","0","","",""
"","html-keyboard-response","88","158405","0.0-88.0","null","<div style=""font-size:60px;"">+</div>","null","","","","",""
"","image-button-response","89","158906","0.0-89.0","null","stimuli/images_hvm10/im138.png","","","null","138","6","7"
"","html-button-response","90","160247","0.0-90.0","1340","","","","0","","",""
"","html-keyboard-response","91","161248","0.0-91.0","null","<div style=""font-size:60px;"">+</div>","null","","","","",""
"","image-button-response","92","161750","0.0-92.0","null","stimuli/images_hvm10/im147.png","","","null","147","5","7"
"","html-button-response","93","162902","0.0-93.0","1152","","","","1","","",""
"","html-keyboard-response","94","163904","0.0-94.0","null","<div style=""font-size:60px;"">+</div>","null","","","","",""
"","image-button-response","95","164405","0.0-95.0","null","stimuli/images_hvm10/im109.png","","","null","109","5","9"
"","html-button-response","96","167228","0.0-96.0","2821","","","","1","","",""
"","html-keyboard-response","97","168229","0.0-97.0","null","<div style=""font-size:60px;"">+</div>","null","","","","",""
"","image-button-response","98","168731","0.0-98.0","null","stimuli/images_hvm10/im95.png","","","null","95","5","4"
"","html-button-response","99","172403","0.0-99.0","3671","","","","1","","",""
"","html-keyboard-response","100","173406","0.0-100.0","null","<div style=""font-size:60px;"">+</div>","null","","","","",""
"","image-button-response","101","173907","0.0-101.0","null","stimuli/images_hvm10/im141.png","","","null","141","7","2"
"","html-button-response","102","175025","0.0-102.0","1116","","","","0","","",""
"","html-keyboard-response","103","176028","0.0-103.0","null","<div style=""font-size:60px;"">+</div>","null","","","","",""
"","image-button-response","104","176529","0.0-104.0","null","stimuli/images_hvm10/im60.png","","","null","60","3","6"
"","html-button-response","105","177228","0.0-105.0","697","","","","0","","",""
"","html-keyboard-response","106","178229","0.0-106.0","null","<div style=""font-size:60px;"">+</div>","null","","","","",""
"","image-button-response","107","178731","0.0-107.0","null","stimuli/images_hvm10/im190.png","","","null","190","0","9"
"","html-button-response","108","179622","0.0-108.0","890","","","","1","","",""
"","html-keyboard-response","109","180624","0.0-109.0","null","<div style=""font-size:60px;"">+</div>","null","","","","",""
"","image-button-response","110","181126","0.0-110.0","null","stimuli/images_hvm10/im50.png","","","null","50","2","9"
"","html-button-response","111","182267","0.0-111.0","1140","","","","0","","",""
"","html-keyboard-response","112","183269","0.0-112.0","null","<div style=""font-size:60px;"">+</div>","null","","","","",""
"","image-button-response","113","183770","0.0-113.0","null","stimuli/images_hvm10/im131.png","","","null","131","2","6"
"","html-button-response","114","184725","0.0-114.0","954","","","","1","","",""
"","html-keyboard-response","115","185726","0.0-115.0","null","<div style=""font-size:60px;"">+</div>","null","","","","",""
"","image-button-response","116","186227","0.0-116.0","null","stimuli/images_hvm10/im148.png","","","null","148","3","7"
"","html-button-response","117","186919","0.0-117.0","690","","","","1","","",""
"","html-keyboard-response","118","187920","0.0-118.0","null","<div style=""font-size:60px;"">+</div>","null","","","","",""
"","image-button-response","119","188421","0.0-119.0","null","stimuli/images_hvm10/im151.png","","","null","151","6","7"
"","html-button-response","120","188908","0.0-120.0","486","","","","1","","",""
"","html-keyboard-response","121","189908","0.0-121.0","null","<div style=""font-size:60px;"">+</div>","null","","","","",""
"","image-button-response","122","190410","0.0-122.0","null","stimuli/images_hvm10/im10.png","","","null","10","0","8"
"","html-button-response","123","191276","0.0-123.0","866","","","","0","","",""
"","html-keyboard-response","124","192278","0.0-124.0","null","<div style=""font-size:60px;"">+</div>","null","","","","",""
"","image-button-response","125","192779","0.0-125.0","null","stimuli/images_hvm10/im150.png","","","null","150","7","8"
"","html-button-response","126","193725","0.0-126.0","944","","","","0","","",""
"","html-keyboard-response","127","194726","0.0-127.0","null","<div style=""font-size:60px;"">+</div>","null","","","","",""
"","image-button-response","128","195228","0.0-128.0","null","stimuli/images_hvm10/im74.png","","","null","74","5","3"
"","html-button-response","129","196316","0.0-129.0","1086.999999999971","","","","1","","",""
"","html-keyboard-response","130","197318","0.0-130.0","null","<div style=""font-size:60px;"">+</div>","null","","","","",""
"","image-button-response","131","197820","0.0-131.0","null","stimuli/images_hvm10/im115.png","","","null","115","5","1"
"","html-button-response","132","198884","0.0-132.0","1062","","","","1","","",""
"","html-keyboard-response","133","199885","0.0-133.0","null","<div style=""font-size:60px;"">+</div>","null","","","","",""
"","image-button-response","134","200387","0.0-134.0","null","stimuli/images_hvm10/im163.png","","","null","163","8","6"
"","html-button-response","135","201348","0.0-135.0","960.0000000000291","","","","0","","",""
"","html-keyboard-response","136","202349","0.0-136.0","null","<div style=""font-size:60px;"">+</div>","null","","","","",""
"","image-button-response","137","202850","0.0-137.0","null","stimuli/images_hvm10/im182.png","","","null","182","9","2"
"","html-button-response","138","203511","0.0-138.0","660","","","","0","","",""
"","html-keyboard-response","139","204512","0.0-139.0","null","<div style=""font-size:60px;"">+</div>","null","","","","",""
"","image-button-response","140","205014","0.0-140.0","null","stimuli/images_hvm10/im66.png","","","null","66","1","3"
"","html-button-response","141","206363","0.0-141.0","1347.999999999971","","","","1","","",""
"","html-keyboard-response","142","207365","0.0-142.0","null","<div style=""font-size:60px;"">+</div>","null","","","","",""
"","image-button-response","143","207866","0.0-143.0","null","stimuli/images_hvm10/im130.png","","","null","130","6","9"
"","html-button-response","144","208630","0.0-144.0","762","","","","1","","",""
"","html-keyboard-response","145","209631","0.0-145.0","null","<div style=""font-size:60px;"">+</div>","null","","","","",""
"","image-button-response","146","210132","0.0-146.0","null","stimuli/images_hvm10/im149.png","","","null","149","7","4"
"","html-button-response","147","211935","0.0-147.0","1801.999999999971","","","","0","","",""
"","html-keyboard-response","148","212937","0.0-148.0","null","<div style=""font-size:60px;"">+</div>","null","","","","",""
"","image-button-response","149","213438","0.0-149.0","null","stimuli/images_hvm10/im160.png","","","null","160","8","1"
"","html-button-response","150","214217","0.0-150.0","779","","","","0","","",""
"","html-keyboard-response","151","215219","0.0-151.0","null","<div style=""font-size:60px;"">+</div>","null","","","","",""
"","image-button-response","152","215720","0.0-152.0","null","stimuli/images_hvm10/im179.png","","","null","179","8","6"
"","html-button-response","153","217022","0.0-153.0","1301","","","","0","","",""
"","html-keyboard-response","154","218024","0.0-154.0","null","<div style=""font-size:60px;"">+</div>","null","","","","",""
"","image-button-response","155","218526","0.0-155.0","null","stimuli/images_hvm10/im19.png","","","null","19","4","0"
"","html-button-response","156","219684","0.0-156.0","1157","","","","1","","",""
"","html-keyboard-response","157","220686","0.0-157.0","null","<div style=""font-size:60px;"">+</div>","null","","","","",""
"","image-button-response","158","221188","0.0-158.0","null","stimuli/images_hvm10/im155.png","","","null","155","5","7"
"","html-button-response","159","221905","0.0-159.0","712","","","","1","","",""
"","html-keyboard-response","160","222911","0.0-160.0","null","<div style=""font-size:60px;"">+</div>","null","","","","",""
"","image-button-response","161","223413","0.0-161.0","null","stimuli/images_hvm10/im32.png","","","null","32","2","1"
"","html-button-response","162","224032","0.0-162.0","617.0000000000291","","","","1","","",""
"","html-keyboard-response","163","225033","0.0-163.0","null","<div style=""font-size:60px;"">+</div>","null","","","","",""
"","image-button-response","164","225535","0.0-164.0","null","stimuli/images_hvm10/im64.png","","","null","64","3","9"
"","html-button-response","165","226861","0.0-165.0","1326","","","","0","","",""
"","html-keyboard-response","166","227862","0.0-166.0","null","<div style=""font-size:60px;"">+</div>","null","","","","",""
"","image-button-response","167","228364","0.0-167.0","null","stimuli/images_hvm10/im176.png","","","null","176","6","8"
"","html-button-response","168","230159","0.0-168.0","1793","","","","1","","",""
"","html-keyboard-response","169","231161","0.0-169.0","null","<div style=""font-size:60px;"">+</div>","null","","","","",""
"","image-button-response","170","231662","0.0-170.0","null","stimuli/images_hvm10/im174.png","","","null","174","0","8"
"","html-button-response","171","232195","0.0-171.0","532","","","","1","","",""
"","html-keyboard-response","172","233196","0.0-172.0","null","<div style=""font-size:60px;"">+</div>","null","","","","",""
"","image-button-response","173","233698","0.0-173.0","null","stimuli/images_hvm10/im111.png","","","null","111","7","5"
"","html-button-response","174","234264","0.0-174.0","564.0000000000291","","","","1","","",""
"","html-keyboard-response","175","235265","0.0-175.0","null","<div style=""font-size:60px;"">+</div>","null","","","","",""
"","image-button-response","176","235766","0.0-176.0","null","stimuli/images_hvm10/im136.png","","","null","136","6","9"
"","html-button-response","177","237062","0.0-177.0","1294","","","","0","","",""
"","html-keyboard-response","178","238063","0.0-178.0","null","<div style=""font-size:60px;"">+</div>","null","","","","",""
"","image-button-response","179","238565","0.0-179.0","null","stimuli/images_hvm10/im186.png","","","null","186","9","2"
"","html-button-response","180","239356","0.0-180.0","788.9999999999709","","","","0","","",""
"","html-keyboard-response","181","240357","0.0-181.0","null","<div style=""font-size:60px;"">+</div>","null","","","","",""
"","image-button-response","182","240859","0.0-182.0","null","stimuli/images_hvm10/im82.png","","","null","82","4","0"
"","html-button-response","183","242260","0.0-183.0","1400","","","","1","","",""
"","html-keyboard-response","184","243261","0.0-184.0","null","<div style=""font-size:60px;"">+</div>","null","","","","",""
"","image-button-response","185","243762","0.0-185.0","null","stimuli/images_hvm10/im145.png","","","null","145","7","6"
"","html-button-response","186","244693","0.0-186.0","929","","","","0","","",""
"","html-keyboard-response","187","245694","0.0-187.0","null","<div style=""font-size:60px;"">+</div>","null","","","","",""
"","image-button-response","188","246195","0.0-188.0","null","stimuli/images_hvm10/im177.png","","","null","177","2","8"
"","html-button-response","189","247062","0.0-189.0","865","","","","1","","",""
"","html-keyboard-response","190","248063","0.0-190.0","null","<div style=""font-size:60px;"">+</div>","null","","","","",""
"","image-button-response","191","248564","0.0-191.0","null","stimuli/images_hvm10/im103.png","","","null","103","3","5"
"","html-button-response","192","249160","0.0-192.0","592.9999999999709","","","","1","","",""
"","html-keyboard-response","193","250162","0.0-193.0","null","<div style=""font-size:60px;"">+</div>","null","","","","",""
"","image-button-response","194","250663","0.0-194.0","null","stimuli/images_hvm10/im162.png","","","null","162","8","0"
"","html-button-response","195","251941","0.0-195.0","1277.000000000029","","","","0","","",""
"","html-keyboard-response","196","252943","0.0-196.0","null","<div style=""font-size:60px;"">+</div>","null","","","","",""
"","image-button-response","197","253444","0.0-197.0","null","stimuli/images_hvm10/im45.png","","","null","45","2","7"
"","html-button-response","198","256387","0.0-198.0","2942","","","","1","","",""
"","html-keyboard-response","199","257388","0.0-199.0","null","<div style=""font-size:60px;"">+</div>","null","","","","",""
"","image-button-response","200","257890","0.0-200.0","null","stimuli/images_hvm10/im47.png","","","null","47","5","2"
"","html-button-response","201","259832","0.0-201.0","1941.000000000029","","","","0","","",""
"","html-keyboard-response","202","260833","0.0-202.0","null","<div style=""font-size:60px;"">+</div>","null","","","","",""
"","image-button-response","203","261335","0.0-203.0","null","stimuli/images_hvm10/im134.png","","","null","134","4","6"
"","html-button-response","204","262464","0.0-204.0","1127.9999999999418","","","","1","","",""
"","html-keyboard-response","205","263465","0.0-205.0","null","<div style=""font-size:60px;"">+</div>","null","","","","",""
"","image-button-response","206","263966","0.0-206.0","null","stimuli/images_hvm10/im154.png","","","null","154","4","7"
"","html-button-response","207","264754","0.0-207.0","787","","","","1","","",""
"","html-keyboard-response","208","265755","0.0-208.0","null","<div style=""font-size:60px;"">+</div>","null","","","","",""
"","image-button-response","209","266256","0.0-209.0","null","stimuli/images_hvm10/im165.png","","","null","165","8","1"
"","html-button-response","210","270024","0.0-210.0","3767","","","","1","","",""
"","html-keyboard-response","211","271025","0.0-211.0","null","<div style=""font-size:60px;"">+</div>","null","","","","",""
"","image-button-response","212","271526","0.0-212.0","null","stimuli/images_hvm10/im137.png","","","null","137","8","6"
"","html-button-response","213","272544","0.0-213.0","1017","","","","0","","",""
"","html-keyboard-response","214","273546","0.0-214.0","null","<div style=""font-size:60px;"">+</div>","null","","","","",""
"","image-button-response","215","274048","0.0-215.0","null","stimuli/images_hvm10/im34.png","","","null","34","6","1"
"","html-button-response","216","274834","0.0-216.0","785","","","","1","","",""
"","html-keyboard-response","217","275836","0.0-217.0","null","<div style=""font-size:60px;"">+</div>","null","","","","",""
"","image-button-response","218","276338","0.0-218.0","null","stimuli/images_hvm10/im143.png","","","null","143","7","3"
"","html-button-response","219","277044","0.0-219.0","705","","","","1","","",""
"","html-keyboard-response","220","278045","0.0-220.0","null","<div style=""font-size:60px;"">+</div>","null","","","","",""
"","image-button-response","221","278547","0.0-221.0","null","stimuli/images_hvm10/im112.png","","","null","112","0","5"
"","html-button-response","222","279192","0.0-222.0","643","","","","1","","",""
"","html-keyboard-response","223","280194","0.0-223.0","null","<div style=""font-size:60px;"">+</div>","null","","","","",""
"","image-button-response","224","280696","0.0-224.0","null","stimuli/images_hvm10/im140.png","","","null","140","2","7"
"","html-button-response","225","281681","0.0-225.0","984","","","","1","","",""
"","html-keyboard-response","226","282683","0.0-226.0","null","<div style=""font-size:60px;"">+</div>","null","","","","",""
"","image-button-response","227","283185","0.0-227.0","null","stimuli/images_hvm10/im75.png","","","null","75","9","3"
"","html-button-response","228","283859","0.0-228.0","672.9999999999418","","","","1","","",""
"","html-keyboard-response","229","284861","0.0-229.0","null","<div style=""font-size:60px;"">+</div>","null","","","","",""
"","image-button-response","230","285363","0.0-230.0","null","stimuli/images_hvm10/im92.png","","","null","92","6","4"
"","html-button-response","231","285951","0.0-231.0","586","","","","1","","",""
"","html-keyboard-response","232","286953","0.0-232.0","null","<div style=""font-size:60px;"">+</div>","null","","","","",""
"","image-button-response","233","287455","0.0-233.0","null","stimuli/images_hvm10/im178.png","","","null","178","8","4"
"","html-button-response","234","288233","0.0-234.0","776","","","","0","","",""
"","html-keyboard-response","235","289235","0.0-235.0","null","<div style=""font-size:60px;"">+</div>","null","","","","",""
"","image-button-response","236","289737","0.0-236.0","null","stimuli/images_hvm10/im83.png","","","null","83","4","7"
"","html-button-response","237","290278","0.0-237.0","538.9999999999418","","","","0","","",""
"","html-keyboard-response","238","291280","0.0-238.0","null","<div style=""font-size:60px;"">+</div>","null","","","","",""
"","image-button-response","239","291781","0.0-239.0","null","stimuli/images_hvm10/im191.png","","","null","191","3","9"
"","html-button-response","240","292299","0.0-240.0","516.0000000000582","","","","1","","",""
"","html-keyboard-response","241","293301","0.0-241.0","null","<div style=""font-size:60px;"">+</div>","null","","","","",""
"","image-button-response","242","293803","0.0-242.0","null","stimuli/images_hvm10/im175.png","","","null","175","8","1"
"","html-button-response","243","294518","0.0-243.0","713","","","","0","","",""
"","html-keyboard-response","244","295519","0.0-244.0","null","<div style=""font-size:60px;"">+</div>","null","","","","",""
"","image-button-response","245","296021","0.0-245.0","null","stimuli/images_hvm10/im164.png","","","null","164","3","8"
"","html-button-response","246","296720","0.0-246.0","698","","","","0","","",""
"","html-keyboard-response","247","297722","0.0-247.0","null","<div style=""font-size:60px;"">+</div>","null","","","","",""
"","image-button-response","248","298224","0.0-248.0","null","stimuli/images_hvm10/im153.png","","","null","153","7","4"
"","html-button-response","249","298907","0.0-249.0","681","","","","0","","",""
"","html-keyboard-response","250","299909","0.0-250.0","null","<div style=""font-size:60px;"">+</div>","null","","","","",""
"","image-button-response","251","300411","0.0-251.0","null","stimuli/images_hvm10/im30.png","","","null","30","2","1"
"","html-button-response","252","301014","0.0-252.0","602","","","","1","","",""
"","html-keyboard-response","253","302016","0.0-253.0","null","<div style=""font-size:60px;"">+</div>","null","","","","",""
"","image-button-response","254","302517","0.0-254.0","null","stimuli/images_hvm10/im171.png","","","null","171","7","8"
"","html-button-response","255","303225","0.0-255.0","706","","","","1","","",""
"","html-keyboard-response","256","304227","0.0-256.0","null","<div style=""font-size:60px;"">+</div>","null","","","","",""
"","image-button-response","257","304729","0.0-257.0","null","stimuli/images_hvm10/im189.png","","","null","189","4","9"
"","html-button-response","258","305230","0.0-258.0","500","","","","1","","",""
"","html-keyboard-response","259","306232","0.0-259.0","null","<div style=""font-size:60px;"">+</div>","null","","","","",""
"","image-button-response","260","306733","0.0-260.0","null","stimuli/images_hvm10/im52.png","","","null","52","2","0"
"","html-button-response","261","307599","0.0-261.0","864","","","","1","","",""
"","html-keyboard-response","262","308601","0.0-262.0","null","<div style=""font-size:60px;"">+</div>","null","","","","",""
"","image-button-response","263","309103","0.0-263.0","null","stimuli/images_hvm10/im144.png","","","null","144","7","2"
"","html-button-response","264","309675","0.0-264.0","571","","","","0","","",""
"","html-keyboard-response","265","310677","0.0-265.0","null","<div style=""font-size:60px;"">+</div>","null","","","","",""
"","image-button-response","266","311178","0.0-266.0","null","stimuli/images_hvm10/im166.png","","","null","166","1","8"
"","html-button-response","267","312567","0.0-267.0","1388","","","","1","","",""
"","html-keyboard-response","268","313569","0.0-268.0","null","<div style=""font-size:60px;"">+</div>","null","","","","",""
"","image-button-response","269","314071","0.0-269.0","null","stimuli/images_hvm10/im188.png","","","null","188","9","6"
"","html-button-response","270","314642","0.0-270.0","570","","","","0","","",""
"","html-keyboard-response","271","315643","0.0-271.0","null","<div style=""font-size:60px;"">+</div>","null","","","","",""
"","image-button-response","272","316145","0.0-272.0","null","stimuli/images_hvm10/im6.png","","","null","6","8","0"
"","html-button-response","273","316726","0.0-273.0","580","","","","1","","",""
"","html-keyboard-response","274","317728","0.0-274.0","null","<div style=""font-size:60px;"">+</div>","null","","","","",""
"","image-button-response","275","318230","0.0-275.0","null","stimuli/images_hvm10/im15.png","","","null","15","0","3"
"","html-button-response","276","318819","0.0-276.0","587","","","","0","","",""
"","html-keyboard-response","277","319820","0.0-277.0","null","<div style=""font-size:60px;"">+</div>","null","","","","",""
"","image-button-response","278","320323","0.0-278.0","null","stimuli/images_hvm10/im26.png","","","null","26","1","6"
"","html-button-response","279","320775","0.0-279.0","451","","","","0","","",""
"","html-keyboard-response","280","321777","0.0-280.0","null","<div style=""font-size:60px;"">+</div>","null","","","","",""
"","image-button-response","281","322279","0.0-281.0","null","stimuli/images_hvm10/im185.png","","","null","185","1","9"
"","html-button-response","282","323247","0.0-282.0","968","","","","0","","",""
"","html-keyboard-response","283","324249","0.0-283.0","null","<div style=""font-size:60px;"">+</div>","null","","","","",""
"","image-button-response","284","324751","0.0-284.0","null","stimuli/images_hvm10/im51.png","","","null","51","0","2"
"","html-button-response","285","325402","0.0-285.0","650","","","","0","","",""
"","html-keyboard-response","286","326404","0.0-286.0","null","<div style=""font-size:60px;"">+</div>","null","","","","",""
"","image-button-response","287","326906","0.0-287.0","null","stimuli/images_hvm10/im170.png","","","null","170","8","1"
"","html-button-response","288","327581","0.0-288.0","673","","","","0","","",""
"","html-keyboard-response","289","328583","0.0-289.0","null","<div style=""font-size:60px;"">+</div>","null","","","","",""
"","image-button-response","290","329085","0.0-290.0","null","stimuli/images_hvm10/im11.png","","","null","11","5","0"
"","html-button-response","291","329570","0.0-291.0","484","","","","1","","",""
"","html-keyboard-response","292","330572","0.0-292.0","null","<div style=""font-size:60px;"">+</div>","null","","","","",""
"","image-button-response","293","331074","0.0-293.0","null","stimuli/images_hvm10/im98.png","","","null","98","5","4"
"","html-button-response","294","331694","0.0-294.0","618","","","","0","","",""
"","html-keyboard-response","295","332696","0.0-295.0","null","<div style=""font-size:60px;"">+</div>","null","","","","",""
"","image-button-response","296","333197","0.0-296.0","null","stimuli/images_hvm10/im76.png","","","null","76","5","3"
"","html-button-response","297","333872","0.0-297.0","674","","","","1","","",""
"","html-keyboard-response","298","334874","0.0-298.0","null","<div style=""font-size:60px;"">+</div>","null","","","","",""
"","image-button-response","299","335377","0.0-299.0","null","stimuli/images_hvm10/im152.png","","","null","152","7","3"
"","html-button-response","300","336210","0.0-300.0","832","","","","1","","",""
"","html-keyboard-response","301","337212","0.0-301.0","null","<div style=""font-size:60px;"">+</div>","null","","","","",""
"","image-button-response","302","337714","0.0-302.0","null","stimuli/images_hvm10/im132.png","","","null","132","0","6"
"","html-button-response","303","338381","0.0-303.0","665","","","","0","","",""
"","html-keyboard-response","304","339383","0.0-304.0","null","<div style=""font-size:60px;"">+</div>","null","","","","",""
"","image-button-response","305","339885","0.0-305.0","null","stimuli/images_hvm10/im129.png","","","null","129","6","2"
"","html-button-response","306","341098","0.0-306.0","1211","","","","0","","",""
"","html-keyboard-response","307","342100","0.0-307.0","null","<div style=""font-size:60px;"">+</div>","null","","","","",""
"","image-button-response","308","342601","0.0-308.0","null","stimuli/images_hvm10/im91.png","","","null","91","8","4"
"","html-button-response","309","343523","0.0-309.0","921","","","","0","","",""
"","html-keyboard-response","310","344526","0.0-310.0","null","<div style=""font-size:60px;"">+</div>","null","","","","",""
"","image-button-response","311","345028","0.0-311.0","null","stimuli/images_hvm10/im187.png","","","null","187","9","7"
"","html-button-response","312","345623","0.0-312.0","594.0000000000582","","","","0","","",""
"","html-keyboard-response","313","346625","0.0-313.0","null","<div style=""font-size:60px;"">+</div>","null","","","","",""
"","image-button-response","314","347126","0.0-314.0","null","stimuli/images_hvm10/im184.png","","","null","184","3","9"
"","html-button-response","315","347770","0.0-315.0","642","","","","1","","",""
"","html-keyboard-response","316","348772","0.0-316.0","null","<div style=""font-size:60px;"">+</div>","null","","","","",""
"","image-button-response","317","349274","0.0-317.0","null","stimuli/images_hvm10/im128.png","","","null","128","6","2"
"","html-button-response","318","350036","0.0-318.0","761","","","","0","","",""
"","html-keyboard-response","319","351038","0.0-319.0","null","<div style=""font-size:60px;"">+</div>","null","","","","",""
"","image-button-response","320","351541","0.0-320.0","null","stimuli/images_hvm10/im156.png","","","null","156","7","2"
"","html-button-response","321","352175","0.0-321.0","633","","","","0","","",""
"","html-keyboard-response","322","353177","0.0-322.0","null","<div style=""font-size:60px;"">+</div>","null","","","","",""
"","image-button-response","323","353679","0.0-323.0","null","stimuli/images_hvm10/im27.png","","","null","27","1","6"
"","html-button-response","324","354267","0.0-324.0","586","","","","0","","",""
"","html-keyboard-response","325","355268","0.0-325.0","null","<div style=""font-size:60px;"">+</div>","null","","","","",""
"","image-button-response","326","355770","0.0-326.0","null","stimuli/images_hvm10/im168.png","","","null","168","5","8"
"","html-button-response","327","356429","0.0-327.0","657.9999999999418","","","","1","","",""
"","html-keyboard-response","328","357430","0.0-328.0","null","<div style=""font-size:60px;"">+</div>","null","","","","",""
"","image-button-response","329","357931","0.0-329.0","null","stimuli/images_hvm10/im113.png","","","null","113","5","8"
"","html-button-response","330","358283","0.0-330.0","350.0000000000582","","","","0","","",""
"","html-keyboard-response","331","359285","0.0-331.0","null","<div style=""font-size:60px;"">+</div>","null","","","","",""
"","image-button-response","332","359786","0.0-332.0","null","stimuli/images_hvm10/im108.png","","","null","108","5","4"
"","html-button-response","333","360692","0.0-333.0","905","","","","1","","",""
"","html-keyboard-response","334","361694","0.0-334.0","null","<div style=""font-size:60px;"">+</div>","null","","","","",""
"","image-button-response","335","362196","0.0-335.0","null","stimuli/images_hvm10/im53.png","","","null","53","1","2"
"","html-button-response","336","362728","0.0-336.0","532","","","","1","","",""
"","html-keyboard-response","337","363730","0.0-337.0","null","<div style=""font-size:60px;"">+</div>","null","","","","",""
"","image-button-response","338","364231","0.0-338.0","null","stimuli/images_hvm10/im61.png","","","null","61","3","1"
"","html-button-response","339","364876","0.0-339.0","644","","","","0","","",""
"","html-keyboard-response","340","365878","0.0-340.0","null","<div style=""font-size:60px;"">+</div>","null","","","","",""
"","image-button-response","341","366380","0.0-341.0","null","stimuli/images_hvm10/im73.png","","","null","73","3","8"
"","html-button-response","342","366762","0.0-342.0","381","","","","0","","",""
"","html-keyboard-response","343","367764","0.0-343.0","null","<div style=""font-size:60px;"">+</div>","null","","","","",""
"","image-button-response","344","368266","0.0-344.0","null","stimuli/images_hvm10/im24.png","","","null","24","1","6"
"","html-button-response","345","370921","0.0-345.0","2654","","","","1","","",""
"","html-keyboard-response","346","371924","0.0-346.0","null","<div style=""font-size:60px;"">+</div>","null","","","","",""
"","image-button-response","347","372425","0.0-347.0","null","stimuli/images_hvm10/im133.png","","","null","133","9","6"
"","html-button-response","348","373052","0.0-348.0","626","","","","1","","",""
"","html-keyboard-response","349","374054","0.0-349.0","null","<div style=""font-size:60px;"">+</div>","null","","","","",""
"","image-button-response","350","374556","0.0-350.0","null","stimuli/images_hvm10/im159.png","","","null","159","7","1"
"","html-button-response","351","375113","0.0-351.0","556","","","","0","","",""
"","html-keyboard-response","352","376115","0.0-352.0","null","<div style=""font-size:60px;"">+</div>","null","","","","",""
"","image-button-response","353","376616","0.0-353.0","null","stimuli/images_hvm10/im158.png","","","null","158","7","4"
"","html-button-response","354","377006","0.0-354.0","388","","","","0","","",""
"","html-keyboard-response","355","378008","0.0-355.0","null","<div style=""font-size:60px;"">+</div>","null","","","","",""
"","image-button-response","356","378510","0.0-356.0","null","stimuli/images_hvm10/im169.png","","","null","169","8","6"
"","html-button-response","357","379082","0.0-357.0","572","","","","0","","",""
"","html-keyboard-response","358","380084","0.0-358.0","null","<div style=""font-size:60px;"">+</div>","null","","","","",""
"","image-button-response","359","380585","0.0-359.0","null","stimuli/images_hvm10/im172.png","","","null","172","8","5"
"","html-button-response","360","380968","0.0-360.0","381","","","","0","","",""
"","html-keyboard-response","361","381970","0.0-361.0","null","<div style=""font-size:60px;"">+</div>","null","","","","",""
"","image-button-response","362","382471","0.0-362.0","null","stimuli/images_hvm10/im100.png","","","null","100","1","5"
"","html-button-response","363","382853","0.0-363.0","381.0000000000582","","","","1","","",""
"","html-keyboard-response","364","383855","0.0-364.0","null","<div style=""font-size:60px;"">+</div>","null","","","","",""
"","image-button-response","365","384357","0.0-365.0","null","stimuli/images_hvm10/im77.png","","","null","77","0","3"
"","html-button-response","366","384921","0.0-366.0","562.9999999999418","","","","1","","",""
"","html-keyboard-response","367","385923","0.0-367.0","null","<div style=""font-size:60px;"">+</div>","null","","","","",""
"","image-button-response","368","386426","0.0-368.0","null","stimuli/images_hvm10/im65.png","","","null","65","5","3"
"","html-button-response","369","387045","0.0-369.0","617","","","","1","","",""
"","html-keyboard-response","370","388047","0.0-370.0","null","<div style=""font-size:60px;"">+</div>","null","","","","",""
"","image-button-response","371","388549","0.0-371.0","null","stimuli/images_hvm10/im161.png","","","null","161","0","8"
"","html-button-response","372","389137","0.0-372.0","586","","","","1","","",""
"","html-keyboard-response","373","390138","0.0-373.0","null","<div style=""font-size:60px;"">+</div>","null","","","","",""
"","image-button-response","374","390640","0.0-374.0","null","stimuli/images_hvm10/im8.png","","","null","8","1","0"
"","html-button-response","375","391213","0.0-375.0","573","","","","1","","",""
"","html-keyboard-response","376","392215","0.0-376.0","null","<div style=""font-size:60px;"">+</div>","null","","","","",""
"","image-button-response","377","392716","0.0-377.0","null","stimuli/images_hvm10/im104.png","","","null","104","8","5"
"","html-button-response","378","393195","0.0-378.0","479","","","","1","","",""
"","html-keyboard-response","379","394197","0.0-379.0","null","<div style=""font-size:60px;"">+</div>","null","","","","",""
"","image-button-response","380","394699","0.0-380.0","null","stimuli/images_hvm10/im5.png","","","null","5","0","8"
"","html-button-response","381","395214","0.0-381.0","513","","","","0","","",""
"","html-keyboard-response","382","396216","0.0-382.0","null","<div style=""font-size:60px;"">+</div>","null","","","","",""
"","image-button-response","383","396718","0.0-383.0","null","stimuli/images_hvm10/im7.png","","","null","7","9","0"
"","html-button-response","384","397076","0.0-384.0","358","","","","0","","",""
"","html-keyboard-response","385","398078","0.0-385.0","null","<div style=""font-size:60px;"">+</div>","null","","","","",""
"","image-button-response","386","398581","0.0-386.0","null","stimuli/images_hvm10/im25.png","","","null","25","7","1"
"","html-button-response","387","399175","0.0-387.0","593","","","","1","","",""
"","html-keyboard-response","388","400177","0.0-388.0","null","<div style=""font-size:60px;"">+</div>","null","","","","",""
"","image-button-response","389","400679","0.0-389.0","null","stimuli/images_hvm10/im21.png","","","null","21","8","1"
"","html-button-response","390","401204","0.0-390.0","523.0000000000582","","","","1","","",""
"","html-keyboard-response","391","402206","0.0-391.0","null","<div style=""font-size:60px;"">+</div>","null","","","","",""
"","image-button-response","392","402707","0.0-392.0","null","stimuli/images_hvm10/im114.png","","","null","114","5","9"
"","html-button-response","393","403216","0.0-393.0","508","","","","0","","",""
"","html-keyboard-response","394","404218","0.0-394.0","null","<div style=""font-size:60px;"">+</div>","null","","","","",""
"","image-button-response","395","404719","0.0-395.0","null","stimuli/images_hvm10/im1.png","","","null","1","7","0"
"","html-button-response","396","405308","0.0-396.0","587.9999999999418","","","","1","","",""
"","html-keyboard-response","397","406310","0.0-397.0","null","<div style=""font-size:60px;"">+</div>","null","","","","",""
"","image-button-response","398","406811","0.0-398.0","null","stimuli/images_hvm10/im17.png","","","null","17","3","0"
"","html-button-response","399","407288","0.0-399.0","475","","","","1","","",""
"","html-keyboard-response","400","408290","0.0-400.0","null","<div style=""font-size:60px;"">+</div>","null","","","","",""
"","image-button-response","401","408793","0.0-401.0","null","stimuli/images_hvm10/im29.png","","","null","29","4","1"
"","html-button-response","402","413159","0.0-402.0","4366","","","","0","","",""
"","html-keyboard-response","403","414161","0.0-403.0","null","<div style=""font-size:60px;"">+</div>","null","","","","",""
"","image-button-response","404","414663","0.0-404.0","null","stimuli/images_hvm10/im28.png","","","null","28","1","9"
"","html-button-response","405","415259","0.0-405.0","596","","","","0","","",""
"","html-keyboard-response","406","416261","0.0-406.0","null","<div style=""font-size:60px;"">+</div>","null","","","","",""
"","image-button-response","407","416763","0.0-407.0","null","stimuli/images_hvm10/im46.png","","","null","46","2","9"
"","html-button-response","408","417294","0.0-408.0","530","","","","0","","",""
"","html-keyboard-response","409","418296","0.0-409.0","null","<div style=""font-size:60px;"">+</div>","null","","","","",""
"","image-button-response","410","418798","0.0-410.0","null","stimuli/images_hvm10/im106.png","","","null","106","5","0"
"","html-button-response","411","419339","0.0-411.0","540.0000000000582","","","","0","","",""
"","html-keyboard-response","412","420340","0.0-412.0","null","<div style=""font-size:60px;"">+</div>","null","","","","",""
"","image-button-response","413","420841","0.0-413.0","null","stimuli/images_hvm10/im3.png","","","null","3","5","0"
"","html-button-response","414","421328","0.0-414.0","486","","","","1","","",""
"","html-keyboard-response","415","422330","0.0-415.0","null","<div style=""font-size:60px;"">+</div>","null","","","","",""
"","image-button-response","416","422831","0.0-416.0","null","stimuli/images_hvm10/im120.png","","","null","120","6","1"
"","html-button-response","417","423411","0.0-417.0","579.0000000000582","","","","0","","",""
"","html-keyboard-response","418","424413","0.0-418.0","null","<div style=""font-size:60px;"">+</div>","null","","","","",""
"","image-button-response","419","424915","0.0-419.0","null","stimuli/images_hvm10/im118.png","","","null","118","5","8"
"","html-button-response","420","425534","0.0-420.0","617.9999999999418","","","","0","","",""
"","html-keyboard-response","421","426535","0.0-421.0","null","<div style=""font-size:60px;"">+</div>","null","","","","",""
"","image-button-response","422","427037","0.0-422.0","null","stimuli/images_hvm10/im4.png","","","null","4","0","7"
"","html-button-response","423","427555","0.0-423.0","517","","","","0","","",""
"","html-keyboard-response","424","428557","0.0-424.0","null","<div style=""font-size:60px;"">+</div>","null","","","","",""
"","image-button-response","425","429058","0.0-425.0","null","stimuli/images_hvm10/im35.png","","","null","35","1","9"
"","html-button-response","426","430724","0.0-426.0","1664","","","","0","","",""
"","html-keyboard-response","427","431726","0.0-427.0","null","<div style=""font-size:60px;"">+</div>","null","","","","",""
"","image-button-response","428","432227","0.0-428.0","null","stimuli/images_hvm10/im102.png","","","null","102","5","1"
"","html-button-response","429","432808","0.0-429.0","579","","","","0","","",""
"","html-keyboard-response","430","433809","0.0-430.0","null","<div style=""font-size:60px;"">+</div>","null","","","","",""
"","image-button-response","431","434311","0.0-431.0","null","stimuli/images_hvm10/im69.png","","","null","69","1","3"
"","html-button-response","432","435438","0.0-432.0","1126","","","","1","","",""
"","html-keyboard-response","433","436440","0.0-433.0","null","<div style=""font-size:60px;"">+</div>","null","","","","",""
"","image-button-response","434","436942","0.0-434.0","null","stimuli/images_hvm10/im59.png","","","null","59","2","9"
"","html-button-response","435","438782","0.0-435.0","1839","","","","1","","",""
"","html-keyboard-response","436","439783","0.0-436.0","null","<div style=""font-size:60px;"">+</div>","null","","","","",""
"","image-button-response","437","440286","0.0-437.0","null","stimuli/images_hvm10/im81.png","","","null","81","9","4"
"","html-button-response","438","440882","0.0-438.0","595","","","","0","","",""
"","html-keyboard-response","439","441884","0.0-439.0","null","<div style=""font-size:60px;"">+</div>","null","","","","",""
"","image-button-response","440","442386","0.0-440.0","null","stimuli/images_hvm10/im13.png","","","null","13","0","6"
"","html-button-response","441","443021","0.0-441.0","634","","","","0","","",""
"","html-keyboard-response","442","444023","0.0-442.0","null","<div style=""font-size:60px;"">+</div>","null","","","","",""
"","image-button-response","443","444525","0.0-443.0","null","stimuli/images_hvm10/im22.png","","","null","22","6","1"
"","html-button-response","444","445065","0.0-444.0","539","","","","1","","",""
"","html-keyboard-response","445","446067","0.0-445.0","null","<div style=""font-size:60px;"">+</div>","null","","","","",""
"","image-button-response","446","446569","0.0-446.0","null","stimuli/images_hvm10/im31.png","","","null","31","9","1"
"","html-button-response","447","447244","0.0-447.0","674","","","","1","","",""
"","html-keyboard-response","448","448245","0.0-448.0","null","<div style=""font-size:60px;"">+</div>","null","","","","",""
"","image-button-response","449","448746","0.0-449.0","null","stimuli/images_hvm10/im56.png","","","null","56","2","0"
"","html-button-response","450","449257","0.0-450.0","509","","","","0","","",""
"","html-keyboard-response","451","450259","0.0-451.0","null","<div style=""font-size:60px;"">+</div>","null","","","","",""
"","image-button-response","452","450760","0.0-452.0","null","stimuli/images_hvm10/im93.png","","","null","93","4","7"
"","html-button-response","453","451485","0.0-453.0","723","","","","0","","",""
"","html-keyboard-response","454","452487","0.0-454.0","null","<div style=""font-size:60px;"">+</div>","null","","","","",""
"","image-button-response","455","452989","0.0-455.0","null","stimuli/images_hvm10/im78.png","","","null","78","3","9"
"","html-button-response","456","453629","0.0-456.0","638.0000000000582","","","","0","","",""
"","html-keyboard-response","457","454631","0.0-457.0","null","<div style=""font-size:60px;"">+</div>","null","","","","",""
"","image-button-response","458","455132","0.0-458.0","null","stimuli/images_hvm10/im101.png","","","null","101","3","5"
"","html-button-response","459","455991","0.0-459.0","857","","","","0","","",""
"","html-keyboard-response","460","456992","0.0-460.0","null","<div style=""font-size:60px;"">+</div>","null","","","","",""
"","image-button-response","461","457494","0.0-461.0","null","stimuli/images_hvm10/im99.png","","","null","99","5","4"
"","html-button-response","462","458011","0.0-462.0","515","","","","1","","",""
"","html-keyboard-response","463","459015","0.0-463.0","null","<div style=""font-size:60px;"">+</div>","null","","","","",""
"","image-button-response","464","459517","0.0-464.0","null","stimuli/images_hvm10/im33.png","","","null","33","1","5"
"","html-button-response","465","460087","0.0-465.0","570","","","","0","","",""
"","html-keyboard-response","466","461089","0.0-466.0","null","<div style=""font-size:60px;"">+</div>","null","","","","",""
"","image-button-response","467","461591","0.0-467.0","null","stimuli/images_hvm10/im117.png","","","null","117","5","2"
"","html-button-response","468","462187","0.0-468.0","594.9999999999418","","","","0","","",""
"","html-keyboard-response","469","463189","0.0-469.0","null","<div style=""font-size:60px;"">+</div>","null","","","","",""
"","image-button-response","470","463691","0.0-470.0","null","stimuli/images_hvm10/im23.png","","","null","23","1","7"
"","html-button-response","471","464224","0.0-471.0","532.0000000000582","","","","0","","",""
"","html-keyboard-response","472","465225","0.0-472.0","null","<div style=""font-size:60px;"">+</div>","null","","","","",""
"","image-button-response","473","465727","0.0-473.0","null","stimuli/images_hvm10/im41.png","","","null","41","4","2"
"","html-button-response","474","466188","0.0-474.0","459","","","","1","","",""
"","html-keyboard-response","475","467190","0.0-475.0","null","<div style=""font-size:60px;"">+</div>","null","","","","",""
"","image-button-response","476","467691","0.0-476.0","null","stimuli/images_hvm10/im124.png","","","null","124","8","6"
"","html-button-response","477","468279","0.0-477.0","586","","","","0","","",""
"","html-keyboard-response","478","469281","0.0-478.0","null","<div style=""font-size:60px;"">+</div>","null","","","","",""
"","image-button-response","479","469782","0.0-479.0","null","stimuli/images_hvm10/im96.png","","","null","96","0","4"
"","html-button-response","480","470554","0.0-480.0","770","","","","0","","",""
"","html-keyboard-response","481","471556","0.0-481.0","null","<div style=""font-size:60px;"">+</div>","null","","","","",""
"","image-button-response","482","472058","0.0-482.0","null","stimuli/images_hvm10/im62.png","","","null","62","3","5"
"","html-button-response","483","472755","0.0-483.0","696","","","","0","","",""
"","html-keyboard-response","484","473756","0.0-484.0","null","<div style=""font-size:60px;"">+</div>","null","","","","",""
"","image-button-response","485","474259","0.0-485.0","null","stimuli/images_hvm10/im87.png","","","null","87","1","4"
"","html-button-response","486","474918","0.0-486.0","658","","","","1","","",""
"","html-keyboard-response","487","475920","0.0-487.0","null","<div style=""font-size:60px;"">+</div>","null","","","","",""
"","image-button-response","488","476422","0.0-488.0","null","stimuli/images_hvm10/im18.png","","","null","18","7","0"
"","html-button-response","489","476781","0.0-489.0","358","","","","0","","",""
"","html-keyboard-response","490","477783","0.0-490.0","null","<div style=""font-size:60px;"">+</div>","null","","","","",""
"","image-button-response","491","478285","0.0-491.0","null","stimuli/images_hvm10/im57.png","","","null","57","6","2"
"","html-button-response","492","478935","0.0-492.0","648","","","","1","","",""
"","html-keyboard-response","493","479937","0.0-493.0","null","<div style=""font-size:60px;"">+</div>","null","","","","",""
"","image-button-response","494","480438","0.0-494.0","null","stimuli/images_hvm10/im38.png","","","null","38","1","6"
"","html-button-response","495","480956","0.0-495.0","516","","","","0","","",""
"","html-keyboard-response","496","481958","0.0-496.0","null","<div style=""font-size:60px;"">+</div>","null","","","","",""
"","image-button-response","497","482460","0.0-497.0","null","stimuli/images_hvm10/im110.png","","","null","110","9","5"
"","html-button-response","498","482968","0.0-498.0","506.9999999999418","","","","1","","",""
"","html-keyboard-response","499","483970","0.0-499.0","null","<div style=""font-size:60px;"">+</div>","null","","","","",""
"","image-button-response","500","484472","0.0-500.0","null","stimuli/images_hvm10/im94.png","","","null","94","2","4"
"","html-button-response","501","485281","0.0-501.0","808.9999999999418","","","","1","","",""
"","html-keyboard-response","502","486283","0.0-502.0","null","<div style=""font-size:60px;"">+</div>","null","","","","",""
"","image-button-response","503","486785","0.0-503.0","null","stimuli/images_hvm10/im79.png","","","null","79","5","3"
"","html-button-response","504","487412","0.0-504.0","626.0000000000582","","","","1","","",""
"","html-keyboard-response","505","488414","0.0-505.0","null","<div style=""font-size:60px;"">+</div>","null","","","","",""
"","image-button-response","506","488916","0.0-506.0","null","stimuli/images_hvm10/im89.png","","","null","89","4","3"
"","html-button-response","507","489465","0.0-507.0","548.0000000000582","","","","0","","",""
"","html-keyboard-response","508","490467","0.0-508.0","null","<div style=""font-size:60px;"">+</div>","null","","","","",""
"","image-button-response","509","490969","0.0-509.0","null","stimuli/images_hvm10/im80.png","","","null","80","4","9"
"","html-button-response","510","491611","0.0-510.0","641","","","","0","","",""
"","html-keyboard-response","511","492613","0.0-511.0","null","<div style=""font-size:60px;"">+</div>","null","","","","",""
"","image-button-response","512","493114","0.0-512.0","null","stimuli/images_hvm10/im58.png","","","null","58","9","2"
"","html-button-response","513","493584","0.0-513.0","470.0000000000582","","","","1","","",""
"","html-keyboard-response","514","494586","0.0-514.0","null","<div style=""font-size:60px;"">+</div>","null","","","","",""
"","image-button-response","515","495088","0.0-515.0","null","stimuli/images_hvm10/im86.png","","","null","86","2","4"
"","html-button-response","516","496393","0.0-516.0","1305","","","","0","","",""
"","html-keyboard-response","517","497395","0.0-517.0","null","<div style=""font-size:60px;"">+</div>","null","","","","",""
"","image-button-response","518","497897","0.0-518.0","null","stimuli/images_hvm10/im63.png","","","null","63","3","8"
"","html-button-response","519","498481","0.0-519.0","583","","","","1","","",""
"","html-keyboard-response","520","499482","0.0-520.0","null","<div style=""font-size:60px;"">+</div>","null","","","","",""
"","image-button-response","521","499984","0.0-521.0","null","stimuli/images_hvm10/im37.png","","","null","37","9","1"
"","html-button-response","522","501119","0.0-522.0","1134","","","","0","","",""
"","html-keyboard-response","523","502121","0.0-523.0","null","<div style=""font-size:60px;"">+</div>","null","","","","",""
"","image-button-response","524","502623","0.0-524.0","null","stimuli/images_hvm10/im125.png","","","null","125","6","3"
"","html-button-response","525","503314","0.0-525.0","690","","","","1","","",""
"","html-keyboard-response","526","504316","0.0-526.0","null","<div style=""font-size:60px;"">+</div>","null","","","","",""
"","image-button-response","527","504818","0.0-527.0","null","stimuli/images_hvm10/im122.png","","","null","122","6","1"
"","html-button-response","528","505422","0.0-528.0","602","","","","0","","",""
"","html-keyboard-response","529","506423","0.0-529.0","null","<div style=""font-size:60px;"">+</div>","null","","","","",""
"","image-button-response","530","506924","0.0-530.0","null","stimuli/images_hvm10/im71.png","","","null","71","0","3"
"","html-button-response","531","507489","0.0-531.0","564","","","","1","","",""
"","html-keyboard-response","532","508491","0.0-532.0","null","<div style=""font-size:60px;"">+</div>","null","","","","",""
"","image-button-response","533","508993","0.0-533.0","null","stimuli/images_hvm10/im16.png","","","null","16","7","0"
"","html-button-response","534","509518","0.0-534.0","524","","","","1","","",""
"","html-keyboard-response","535","510520","0.0-535.0","null","<div style=""font-size:60px;"">+</div>","null","","","","",""
"","image-button-response","536","511021","0.0-536.0","null","stimuli/images_hvm10/im0.png","","","null","0","7","0"
"","html-button-response","537","511411","0.0-537.0","387.9999999999418","","","","1","","",""
"","html-keyboard-response","538","512413","0.0-538.0","null","<div style=""font-size:60px;"">+</div>","null","","","","",""
"","image-button-response","539","512915","0.0-539.0","null","stimuli/images_hvm10/im68.png","","","null","68","3","0"
"","html-button-response","540","514137","0.0-540.0","1221","","","","0","","",""
"","html-keyboard-response","541","515139","0.0-541.0","null","<div style=""font-size:60px;"">+</div>","null","","","","",""
"","image-button-response","542","515640","0.0-542.0","null","stimuli/images_hvm10/im70.png","","","null","70","9","3"
"","html-button-response","543","516275","0.0-543.0","633.0000000000582","","","","1","","",""
"","html-keyboard-response","544","517277","0.0-544.0","null","<div style=""font-size:60px;"">+</div>","null","","","","",""
"","image-button-response","545","517779","0.0-545.0","null","stimuli/images_hvm10/im105.png","","","null","105","5","8"
"","html-button-response","546","518288","0.0-546.0","508","","","","0","","",""
"","html-keyboard-response","547","519290","0.0-547.0","null","<div style=""font-size:60px;"">+</div>","null","","","","",""
"","image-button-response","548","519792","0.0-548.0","null","stimuli/images_hvm10/im107.png","","","null","107","8","5"
"","html-button-response","549","520475","0.0-549.0","682","","","","1","","",""
"","html-keyboard-response","550","521476","0.0-550.0","null","<div style=""font-size:60px;"">+</div>","null","","","","",""
"","image-button-response","551","521977","0.0-551.0","null","stimuli/images_hvm10/im85.png","","","null","85","4","5"
"","html-button-response","552","522686","0.0-552.0","708.0000000001164","","","","0","","",""
"","html-keyboard-response","553","523688","0.0-553.0","null","<div style=""font-size:60px;"">+</div>","null","","","","",""
"","image-button-response","554","524189","0.0-554.0","null","stimuli/images_hvm10/im9.png","","","null","9","8","0"
"","html-button-response","555","524666","0.0-555.0","476","","","","1","","",""
"","html-keyboard-response","556","525667","0.0-556.0","null","<div style=""font-size:60px;"">+</div>","null","","","","",""
"","image-button-response","557","526168","0.0-557.0","null","stimuli/images_hvm10/im116.png","","","null","116","5","7"
"","html-button-response","558","526695","0.0-558.0","525","","","","0","","",""
"","html-keyboard-response","559","527697","0.0-559.0","null","<div style=""font-size:60px;"">+</div>","null","","","","",""
"","image-button-response","560","528198","0.0-560.0","null","stimuli/images_hvm10/im39.png","","","null","39","6","1"
"","html-button-response","561","528699","0.0-561.0","499","","","","1","","",""
"","html-keyboard-response","562","529701","0.0-562.0","null","<div style=""font-size:60px;"">+</div>","null","","","","",""
"","image-button-response","563","530203","0.0-563.0","null","stimuli/images_hvm10/im2.png","","","null","2","0","2"
"","html-button-response","564","530815","0.0-564.0","610.0000000001164","","","","0","","",""
"","html-keyboard-response","565","531817","0.0-565.0","null","<div style=""font-size:60px;"">+</div>","null","","","","",""
"","image-button-response","566","532318","0.0-566.0","null","stimuli/images_hvm10/im14.png","","","null","14","1","0"
"","html-button-response","567","533873","0.0-567.0","1553","","","","1","","",""
"","html-keyboard-response","568","534875","0.0-568.0","null","<div style=""font-size:60px;"">+</div>","null","","","","",""
"","image-button-response","569","535377","0.0-569.0","null","stimuli/images_hvm10/im42.png","","","null","42","2","5"
"","html-button-response","570","535941","0.0-570.0","562","","","","1","","",""
"","html-keyboard-response","571","536943","0.0-571.0","null","<div style=""font-size:60px;"">+</div>","null","","","","",""
"","image-button-response","572","537445","0.0-572.0","null","stimuli/images_hvm10/im84.png","","","null","84","4","5"
"","html-button-response","573","538064","0.0-573.0","618.0000000001164","","","","1","","",""
"","html-keyboard-response","574","539066","0.0-574.0","null","<div style=""font-size:60px;"">+</div>","null","","","","",""
"","image-button-response","575","539568","0.0-575.0","null","stimuli/images_hvm10/im36.png","","","null","36","1","9"
"","html-button-response","576","540141","0.0-576.0","572.0000000001164","","","","0","","",""
"","html-keyboard-response","577","541142","0.0-577.0","null","<div style=""font-size:60px;"">+</div>","null","","","","",""
"","image-button-response","578","541644","0.0-578.0","null","stimuli/images_hvm10/im123.png","","","null","123","0","6"
"","html-button-response","579","542232","0.0-579.0","586","","","","0","","",""
"","html-keyboard-response","580","543234","0.0-580.0","null","<div style=""font-size:60px;"">+</div>","null","","","","",""
"","image-button-response","581","543736","0.0-581.0","null","stimuli/images_hvm10/im90.png","","","null","90","6","4"
"","html-button-response","582","544220","0.0-582.0","482.9999999998836","","","","1","","",""
"","html-keyboard-response","583","545222","0.0-583.0","null","<div style=""font-size:60px;"">+</div>","null","","","","",""
"","image-button-response","584","545724","0.0-584.0","null","stimuli/images_hvm10/im40.png","","","null","40","2","6"
"","html-button-response","585","546518","0.0-585.0","794","","","","0","","",""
"","html-keyboard-response","586","547521","0.0-586.0","null","<div style=""font-size:60px;"">+</div>","null","","","","",""
"","image-button-response","587","548022","0.0-587.0","null","stimuli/images_hvm10/im43.png","","","null","43","2","5"
"","html-button-response","588","548444","0.0-588.0","421","","","","1","","",""
"","html-keyboard-response","589","549446","0.0-589.0","null","<div style=""font-size:60px;"">+</div>","null","","","","",""
"","image-button-response","590","549947","0.0-590.0","null","stimuli/images_hvm10/im121.png","","","null","121","6","4"
"","html-button-response","591","550567","0.0-591.0","618","","","","1","","",""
"","html-keyboard-response","592","551569","0.0-592.0","null","<div style=""font-size:60px;"">+</div>","null","","","","",""
"","image-button-response","593","552070","0.0-593.0","null","stimuli/images_hvm10/im126.png","","","null","126","6","1"
"","html-button-response","594","552699","0.0-594.0","628","","","","1","","",""
"","html-keyboard-response","595","553701","0.0-595.0","null","<div style=""font-size:60px;"">+</div>","null","","","","",""
"","image-button-response","596","554203","0.0-596.0","null","stimuli/images_hvm10/im127.png","","","null","127","8","6"
"","html-button-response","597","554806","0.0-597.0","602","","","","0","","",""
"","html-keyboard-response","598","555807","0.0-598.0","null","<div style=""font-size:60px;"">+</div>","null","","","","",""
"","image-button-response","599","556310","0.0-599.0","null","stimuli/images_hvm10/im88.png","","","null","88","3","4"
"","html-button-response","600","557199","0.0-600.0","888","","","","1","","",""
