"success","trial_type","trial_index","time_elapsed","internal_node_id","rt","stimulus","key_press","responses","button_pressed","images","left_choice","right_choice"
"true","fullscreen","0","2808","0.0-0.0","","","","","","","",""
"","html-keyboard-response","1","6599","0.0-1.0","3787.5","Welcome to the experiment. Press any key to begin.","32","","","","",""
"","survey-html-form","2","36279","0.0-2.0","29677.799999952316","","","{""p_id"":""1921"",""age"":""19"",""handedness"":""right"",""sex"":""female"",""other_sex"":""""}","","","",""
"","html-keyboard-response","3","173458","0.0-3.0","137177.59999990463","<p>Please fixate at the center '+' sign which will appear once you press any key. Then, <strong> an image </strong> will be shown in the center of the screen.</p><p>The image will contain an object.This will be followed by a <strong> Choice Screen </strong> containing two objects. Please choose the option <strong>[Click on the object]</strong> that you think was present in the image<p>Press any key to begin.</p>","32","","","","",""
"","html-keyboard-response","4","176470","0.0-4.0","null","<div style=""font-size:60px;"">+</div>","null","","","","",""
"","image-button-response","5","176980","0.0-5.0","null","stimuli/images_hvm10/im70.png","","","null","70","6","3"
"","html-button-response","6","179027","0.0-6.0","2044.9000000953674","","","","1","","",""
"","html-keyboard-response","7","180030","0.0-7.0","null","<div style=""font-size:60px;"">+</div>","null","","","","",""
"","image-button-response","8","180535","0.0-8.0","null","stimuli/images_hvm10/im179.png","","","null","179","8","2"
"","html-button-response","9","183799","0.0-9.0","3261.699999809265","","","","0","","",""
"","html-keyboard-response","10","184804","0.0-10.0","null","<div style=""font-size:60px;"">+</div>","null","","","","",""
"","image-button-response","11","185313","0.0-11.0","null","stimuli/images_hvm10/im191.png","","","null","191","4","9"
"","html-button-response","12","186513","0.0-12.0","1197.7000000476837","","","","1","","",""
"","html-keyboard-response","13","187521","0.0-13.0","null","<div style=""font-size:60px;"">+</div>","null","","","","",""
"","image-button-response","14","188029","0.0-14.0","null","stimuli/images_hvm10/im152.png","","","null","152","0","7"
"","html-button-response","15","189386","0.0-15.0","1355.2000000476837","","","","1","","",""
"","html-keyboard-response","16","190391","0.0-16.0","null","<div style=""font-size:60px;"">+</div>","null","","","","",""
"","image-button-response","17","190897","0.0-17.0","null","stimuli/images_hvm10/im153.png","","","null","153","2","7"
"","html-button-response","18","192263","0.0-18.0","1363.7000000476837","","","","1","","",""
"","html-keyboard-response","19","193266","0.0-19.0","null","<div style=""font-size:60px;"">+</div>","null","","","","",""
"","image-button-response","20","193775","0.0-20.0","null","stimuli/images_hvm10/im161.png","","","null","161","2","8"
"","html-button-response","21","195718","0.0-21.0","1939.7999999523163","","","","1","","",""
"","html-keyboard-response","22","196724","0.0-22.0","null","<div style=""font-size:60px;"">+</div>","null","","","","",""
"","image-button-response","23","197230","0.0-23.0","null","stimuli/images_hvm10/im195.png","","","null","195","9","3"
"","html-button-response","24","198561","0.0-24.0","1328.0999999046326","","","","0","","",""
"","html-keyboard-response","25","199566","0.0-25.0","null","<div style=""font-size:60px;"">+</div>","null","","","","",""
"","image-button-response","26","200074","0.0-26.0","null","stimuli/images_hvm10/im143.png","","","null","143","7","8"
"","html-button-response","27","201792","0.0-27.0","1715.5","","","","1","","",""
"","html-keyboard-response","28","202797","0.0-28.0","null","<div style=""font-size:60px;"">+</div>","null","","","","",""
"","image-button-response","29","203305","0.0-29.0","null","stimuli/images_hvm10/im137.png","","","null","137","6","3"
"","html-button-response","30","206224","0.0-30.0","2916.399999856949","","","","1","","",""
"","html-keyboard-response","31","207230","0.0-31.0","null","<div style=""font-size:60px;"">+</div>","null","","","","",""
"","image-button-response","32","207739","0.0-32.0","null","stimuli/images_hvm10/im139.png","","","null","139","9","6"
"","html-button-response","33","209018","0.0-33.0","1275.7999999523163","","","","1","","",""
"","html-keyboard-response","34","210022","0.0-34.0","null","<div style=""font-size:60px;"">+</div>","null","","","","",""
"","image-button-response","35","210530","0.0-35.0","null","stimuli/images_hvm10/im127.png","","","null","127","1","6"
"","html-button-response","36","212060","0.0-36.0","1528","","","","1","","",""
"","html-keyboard-response","37","213063","0.0-37.0","null","<div style=""font-size:60px;"">+</div>","null","","","","",""
"","image-button-response","38","213569","0.0-38.0","null","stimuli/images_hvm10/im114.png","","","null","114","2","5"
"","html-button-response","39","215135","0.0-39.0","1563.1999998092651","","","","1","","",""
"","html-keyboard-response","40","216140","0.0-40.0","null","<div style=""font-size:60px;"">+</div>","null","","","","",""
"","image-button-response","41","216647","0.0-41.0","null","stimuli/images_hvm10/im175.png","","","null","175","8","5"
"","html-button-response","42","218337","0.0-42.0","1687.5","","","","0","","",""
"","html-keyboard-response","43","219341","0.0-43.0","null","<div style=""font-size:60px;"">+</div>","null","","","","",""
"","image-button-response","44","219847","0.0-44.0","null","stimuli/images_hvm10/im134.png","","","null","134","6","1"
"","html-button-response","45","221363","0.0-45.0","1512.5","","","","0","","",""
"","html-keyboard-response","46","222370","0.0-46.0","null","<div style=""font-size:60px;"">+</div>","null","","","","",""
"","image-button-response","47","222878","0.0-47.0","null","stimuli/images_hvm10/im181.png","","","null","181","1","9"
"","html-button-response","48","224094","0.0-48.0","1213.2999999523163","","","","1","","",""
"","html-keyboard-response","49","225097","0.0-49.0","null","<div style=""font-size:60px;"">+</div>","null","","","","",""
"","image-button-response","50","225605","0.0-50.0","null","stimuli/images_hvm10/im78.png","","","null","78","2","3"
"","html-button-response","51","226504","0.0-51.0","897.0999999046326","","","","1","","",""
"","html-keyboard-response","52","227510","0.0-52.0","null","<div style=""font-size:60px;"">+</div>","null","","","","",""
"","image-button-response","53","228018","0.0-53.0","null","stimuli/images_hvm10/im9.png","","","null","9","0","8"
"","html-button-response","54","229191","0.0-54.0","1169.9000000953674","","","","0","","",""
"","html-keyboard-response","55","230197","0.0-55.0","null","<div style=""font-size:60px;"">+</div>","null","","","","",""
"","image-button-response","56","230704","0.0-56.0","null","stimuli/images_hvm10/im197.png","","","null","197","6","9"
"","html-button-response","57","231723","0.0-57.0","1015.7000000476837","","","","1","","",""
"","html-keyboard-response","58","232730","0.0-58.0","null","<div style=""font-size:60px;"">+</div>","null","","","","",""
"","image-button-response","59","233237","0.0-59.0","null","stimuli/images_hvm10/im99.png","","","null","99","0","4"
"","html-button-response","60","234857","0.0-60.0","1616","","","","0","","",""
"","html-keyboard-response","61","235864","0.0-61.0","null","<div style=""font-size:60px;"">+</div>","null","","","","",""
"","image-button-response","62","236372","0.0-62.0","null","stimuli/images_hvm10/im193.png","","","null","193","2","9"
"","html-button-response","63","237442","0.0-63.0","1066.7000000476837","","","","1","","",""
"","html-keyboard-response","64","238447","0.0-64.0","null","<div style=""font-size:60px;"">+</div>","null","","","","",""
"","image-button-response","65","238956","0.0-65.0","null","stimuli/images_hvm10/im76.png","","","null","76","5","3"
"","html-button-response","66","239783","0.0-66.0","823.7000000476837","","","","1","","",""
"","html-keyboard-response","67","240786","0.0-67.0","null","<div style=""font-size:60px;"">+</div>","null","","","","",""
"","image-button-response","68","241290","0.0-68.0","null","stimuli/images_hvm10/im154.png","","","null","154","7","5"
"","html-button-response","69","242402","0.0-69.0","1109.7000000476837","","","","0","","",""
"","html-keyboard-response","70","243406","0.0-70.0","null","<div style=""font-size:60px;"">+</div>","null","","","","",""
"","image-button-response","71","243914","0.0-71.0","null","stimuli/images_hvm10/im18.png","","","null","18","1","0"
"","html-button-response","72","244975","0.0-72.0","1058.1999998092651","","","","1","","",""
"","html-keyboard-response","73","245980","0.0-73.0","null","<div style=""font-size:60px;"">+</div>","null","","","","",""
"","image-button-response","74","246489","0.0-74.0","null","stimuli/images_hvm10/im36.png","","","null","36","1","9"
"","html-button-response","75","247853","0.0-75.0","1360.1000001430511","","","","0","","",""
"","html-keyboard-response","76","248860","0.0-76.0","null","<div style=""font-size:60px;"">+</div>","null","","","","",""
"","image-button-response","77","249366","0.0-77.0","null","stimuli/images_hvm10/im71.png","","","null","71","3","5"
"","html-button-response","78","250705","0.0-78.0","1337.6999998092651","","","","0","","",""
"","html-keyboard-response","79","251710","0.0-79.0","null","<div style=""font-size:60px;"">+</div>","null","","","","",""
"","image-button-response","80","252213","0.0-80.0","null","stimuli/images_hvm10/im156.png","","","null","156","5","7"
"","html-button-response","81","253163","0.0-81.0","948.7999999523163","","","","1","","",""
"","html-keyboard-response","82","254168","0.0-82.0","null","<div style=""font-size:60px;"">+</div>","null","","","","",""
"","image-button-response","83","254674","0.0-83.0","null","stimuli/images_hvm10/im19.png","","","null","19","7","0"
"","html-button-response","84","255464","0.0-84.0","788.2999999523163","","","","1","","",""
"","html-keyboard-response","85","256471","0.0-85.0","null","<div style=""font-size:60px;"">+</div>","null","","","","",""
"","image-button-response","86","256976","0.0-86.0","null","stimuli/images_hvm10/im184.png","","","null","184","9","3"
"","html-button-response","87","257934","0.0-87.0","954.5","","","","0","","",""
"","html-keyboard-response","88","258937","0.0-88.0","null","<div style=""font-size:60px;"">+</div>","null","","","","",""
"","image-button-response","89","259444","0.0-89.0","null","stimuli/images_hvm10/im69.png","","","null","69","3","5"
"","html-button-response","90","260435","0.0-90.0","988.2999999523163","","","","0","","",""
"","html-keyboard-response","91","261440","0.0-91.0","null","<div style=""font-size:60px;"">+</div>","null","","","","",""
"","image-button-response","92","261944","0.0-92.0","null","stimuli/images_hvm10/im174.png","","","null","174","8","1"
"","html-button-response","93","263488","0.0-93.0","1540.5","","","","0","","",""
"","html-keyboard-response","94","264493","0.0-94.0","null","<div style=""font-size:60px;"">+</div>","null","","","","",""
"","image-button-response","95","264997","0.0-95.0","null","stimuli/images_hvm10/im165.png","","","null","165","3","8"
"","html-button-response","96","266813","0.0-96.0","1813.9000000953674","","","","0","","",""
"","html-keyboard-response","97","267816","0.0-97.0","null","<div style=""font-size:60px;"">+</div>","null","","","","",""
"","image-button-response","98","268321","0.0-98.0","null","stimuli/images_hvm10/im130.png","","","null","130","6","8"
"","html-button-response","99","269609","0.0-99.0","1285.6000001430511","","","","1","","",""
"","html-keyboard-response","100","270615","0.0-100.0","null","<div style=""font-size:60px;"">+</div>","null","","","","",""
"","image-button-response","101","271120","0.0-101.0","null","stimuli/images_hvm10/im80.png","","","null","80","4","7"
"","html-button-response","102","272560","0.0-102.0","1438.3999998569489","","","","1","","",""
"","html-keyboard-response","103","273564","0.0-103.0","null","<div style=""font-size:60px;"">+</div>","null","","","","",""
"","image-button-response","104","274068","0.0-104.0","null","stimuli/images_hvm10/im58.png","","","null","58","5","2"
"","html-button-response","105","275197","0.0-105.0","1125.7999999523163","","","","1","","",""
"","html-keyboard-response","106","276203","0.0-106.0","null","<div style=""font-size:60px;"">+</div>","null","","","","",""
"","image-button-response","107","276709","0.0-107.0","null","stimuli/images_hvm10/im31.png","","","null","31","1","3"
"","html-button-response","108","277873","0.0-108.0","1161.3999998569489","","","","0","","",""
"","html-keyboard-response","109","278880","0.0-109.0","null","<div style=""font-size:60px;"">+</div>","null","","","","",""
"","image-button-response","110","279388","0.0-110.0","null","stimuli/images_hvm10/im47.png","","","null","47","2","9"
"","html-button-response","111","281003","0.0-111.0","1612.3999998569489","","","","1","","",""
"","html-keyboard-response","112","282009","0.0-112.0","null","<div style=""font-size:60px;"">+</div>","null","","","","",""
"","image-button-response","113","282514","0.0-113.0","null","stimuli/images_hvm10/im177.png","","","null","177","5","8"
"","html-button-response","114","283442","0.0-114.0","925.0999999046326","","","","1","","",""
"","html-keyboard-response","115","284447","0.0-115.0","null","<div style=""font-size:60px;"">+</div>","null","","","","",""
"","image-button-response","116","284955","0.0-116.0","null","stimuli/images_hvm10/im190.png","","","null","190","9","4"
"","html-button-response","117","285901","0.0-117.0","942.2999999523163","","","","0","","",""
"","html-keyboard-response","118","286904","0.0-118.0","null","<div style=""font-size:60px;"">+</div>","null","","","","",""
"","image-button-response","119","287409","0.0-119.0","null","stimuli/images_hvm10/im86.png","","","null","86","3","4"
"","html-button-response","120","288425","0.0-120.0","1012.3999998569489","","","","1","","",""
"","html-keyboard-response","121","289431","0.0-121.0","null","<div style=""font-size:60px;"">+</div>","null","","","","",""
"","image-button-response","122","289939","0.0-122.0","null","stimuli/images_hvm10/im155.png","","","null","155","1","7"
"","html-button-response","123","290654","0.0-123.0","712.0999999046326","","","","1","","",""
"","html-keyboard-response","124","291659","0.0-124.0","null","<div style=""font-size:60px;"">+</div>","null","","","","",""
"","image-button-response","125","292164","0.0-125.0","null","stimuli/images_hvm10/im38.png","","","null","38","6","1"
"","html-button-response","126","292857","0.0-126.0","689.4000000953674","","","","1","","",""
"","html-keyboard-response","127","293859","0.0-127.0","null","<div style=""font-size:60px;"">+</div>","null","","","","",""
"","image-button-response","128","294364","0.0-128.0","null","stimuli/images_hvm10/im126.png","","","null","126","7","6"
"","html-button-response","129","295468","0.0-129.0","1101.4000000953674","","","","1","","",""
"","html-keyboard-response","130","296472","0.0-130.0","null","<div style=""font-size:60px;"">+</div>","null","","","","",""
"","image-button-response","131","296981","0.0-131.0","null","stimuli/images_hvm10/im14.png","","","null","14","2","0"
"","html-button-response","132","297818","0.0-132.0","834.4000000953674","","","","1","","",""
"","html-keyboard-response","133","298822","0.0-133.0","null","<div style=""font-size:60px;"">+</div>","null","","","","",""
"","image-button-response","134","299330","0.0-134.0","null","stimuli/images_hvm10/im53.png","","","null","53","7","2"
"","html-button-response","135","300326","0.0-135.0","993.9000000953674","","","","1","","",""
"","html-keyboard-response","136","301332","0.0-136.0","null","<div style=""font-size:60px;"">+</div>","null","","","","",""
"","image-button-response","137","301840","0.0-137.0","null","stimuli/images_hvm10/im112.png","","","null","112","9","5"
"","html-button-response","138","302771","0.0-138.0","928.2999999523163","","","","1","","",""
"","html-keyboard-response","139","303777","0.0-139.0","null","<div style=""font-size:60px;"">+</div>","null","","","","",""
"","image-button-response","140","304281","0.0-140.0","null","stimuli/images_hvm10/im20.png","","","null","20","5","1"
"","html-button-response","141","305432","0.0-141.0","1148.2000000476837","","","","1","","",""
"","html-keyboard-response","142","306439","0.0-142.0","null","<div style=""font-size:60px;"">+</div>","null","","","","",""
"","image-button-response","143","306946","0.0-143.0","null","stimuli/images_hvm10/im52.png","","","null","52","7","2"
"","html-button-response","144","307820","0.0-144.0","870.2999999523163","","","","1","","",""
"","html-keyboard-response","145","308827","0.0-145.0","null","<div style=""font-size:60px;"">+</div>","null","","","","",""
"","image-button-response","146","309331","0.0-146.0","null","stimuli/images_hvm10/im3.png","","","null","3","0","5"
"","html-button-response","147","310265","0.0-147.0","931","","","","0","","",""
"","html-keyboard-response","148","311273","0.0-148.0","null","<div style=""font-size:60px;"">+</div>","null","","","","",""
"","image-button-response","149","311781","0.0-149.0","null","stimuli/images_hvm10/im89.png","","","null","89","4","0"
"","html-button-response","150","312878","0.0-150.0","1093.5999999046326","","","","0","","",""
"","html-keyboard-response","151","313880","0.0-151.0","null","<div style=""font-size:60px;"">+</div>","null","","","","",""
"","image-button-response","152","314386","0.0-152.0","null","stimuli/images_hvm10/im24.png","","","null","24","8","1"
"","html-button-response","153","316530","0.0-153.0","2141.9000000953674","","","","1","","",""
"","html-keyboard-response","154","317533","0.0-154.0","null","<div style=""font-size:60px;"">+</div>","null","","","","",""
"","image-button-response","155","318042","0.0-155.0","null","stimuli/images_hvm10/im42.png","","","null","42","2","0"
"","html-button-response","156","319501","0.0-156.0","1456.0999999046326","","","","1","","",""
"","html-keyboard-response","157","320507","0.0-157.0","null","<div style=""font-size:60px;"">+</div>","null","","","","",""
"","image-button-response","158","321015","0.0-158.0","null","stimuli/images_hvm10/im82.png","","","null","82","6","4"
"","html-button-response","159","322536","0.0-159.0","1518.2999999523163","","","","1","","",""
"","html-keyboard-response","160","323544","0.0-160.0","null","<div style=""font-size:60px;"">+</div>","null","","","","",""
"","image-button-response","161","324051","0.0-161.0","null","stimuli/images_hvm10/im32.png","","","null","32","5","1"
"","html-button-response","162","324803","0.0-162.0","749.2999999523163","","","","1","","",""
"","html-keyboard-response","163","325809","0.0-163.0","null","<div style=""font-size:60px;"">+</div>","null","","","","",""
"","image-button-response","164","326314","0.0-164.0","null","stimuli/images_hvm10/im140.png","","","null","140","0","7"
"","html-button-response","165","327448","0.0-165.0","1130.8999998569489","","","","1","","",""
"","html-keyboard-response","166","328455","0.0-166.0","null","<div style=""font-size:60px;"">+</div>","null","","","","",""
"","image-button-response","167","328964","0.0-167.0","null","stimuli/images_hvm10/im107.png","","","null","107","5","1"
"","html-button-response","168","329845","0.0-168.0","877.5999999046326","","","","0","","",""
"","html-keyboard-response","169","330848","0.0-169.0","null","<div style=""font-size:60px;"">+</div>","null","","","","",""
"","image-button-response","170","331353","0.0-170.0","null","stimuli/images_hvm10/im51.png","","","null","51","4","2"
"","html-button-response","171","332177","0.0-171.0","820.6000001430511","","","","1","","",""
"","html-keyboard-response","172","333181","0.0-172.0","null","<div style=""font-size:60px;"">+</div>","null","","","","",""
"","image-button-response","173","333690","0.0-173.0","null","stimuli/images_hvm10/im45.png","","","null","45","1","2"
"","html-button-response","174","334870","0.0-174.0","1176.9000000953674","","","","0","","",""
"","html-keyboard-response","175","335873","0.0-175.0","null","<div style=""font-size:60px;"">+</div>","null","","","","",""
"","image-button-response","176","336381","0.0-176.0","null","stimuli/images_hvm10/im59.png","","","null","59","4","2"
"","html-button-response","177","337226","0.0-177.0","841.4000000953674","","","","1","","",""
"","html-keyboard-response","178","338231","0.0-178.0","null","<div style=""font-size:60px;"">+</div>","null","","","","",""
"","image-button-response","179","338739","0.0-179.0","null","stimuli/images_hvm10/im131.png","","","null","131","6","4"
"","html-button-response","180","339975","0.0-180.0","1232.7000000476837","","","","0","","",""
"","html-keyboard-response","181","340982","0.0-181.0","null","<div style=""font-size:60px;"">+</div>","null","","","","",""
"","image-button-response","182","341488","0.0-182.0","null","stimuli/images_hvm10/im166.png","","","null","166","8","4"
"","html-button-response","183","343390","0.0-183.0","1897.7999999523163","","","","0","","",""
"","html-keyboard-response","184","344397","0.0-184.0","null","<div style=""font-size:60px;"">+</div>","null","","","","",""
"","image-button-response","185","344903","0.0-185.0","null","stimuli/images_hvm10/im105.png","","","null","105","5","8"
"","html-button-response","186","346047","0.0-186.0","1141.5","","","","0","","",""
"","html-keyboard-response","187","347053","0.0-187.0","null","<div style=""font-size:60px;"">+</div>","null","","","","",""
"","image-button-response","188","347559","0.0-188.0","null","stimuli/images_hvm10/im182.png","","","null","182","9","5"
"","html-button-response","189","348835","0.0-189.0","1272.7999999523163","","","","0","","",""
"","html-keyboard-response","190","349841","0.0-190.0","null","<div style=""font-size:60px;"">+</div>","null","","","","",""
"","image-button-response","191","350348","0.0-191.0","null","stimuli/images_hvm10/im50.png","","","null","50","7","2"
"","html-button-response","192","351278","0.0-192.0","926.9000000953674","","","","1","","",""
"","html-keyboard-response","193","352282","0.0-193.0","null","<div style=""font-size:60px;"">+</div>","null","","","","",""
"","image-button-response","194","352790","0.0-194.0","null","stimuli/images_hvm10/im88.png","","","null","88","9","4"
"","html-button-response","195","353661","0.0-195.0","868.5","","","","1","","",""
"","html-keyboard-response","196","354664","0.0-196.0","null","<div style=""font-size:60px;"">+</div>","null","","","","",""
"","image-button-response","197","355172","0.0-197.0","null","stimuli/images_hvm10/im74.png","","","null","74","8","3"
"","html-button-response","198","355921","0.0-198.0","747.7000000476837","","","","1","","",""
"","html-keyboard-response","199","356924","0.0-199.0","null","<div style=""font-size:60px;"">+</div>","null","","","","",""
"","image-button-response","200","357431","0.0-200.0","null","stimuli/images_hvm10/im123.png","","","null","123","3","6"
"","html-button-response","201","358277","0.0-201.0","843.2000000476837","","","","1","","",""
"","html-keyboard-response","202","359281","0.0-202.0","null","<div style=""font-size:60px;"">+</div>","null","","","","",""
"","image-button-response","203","359789","0.0-203.0","null","stimuli/images_hvm10/im67.png","","","null","67","0","3"
"","html-button-response","204","360433","0.0-204.0","641.2999999523163","","","","1","","",""
"","html-keyboard-response","205","361440","0.0-205.0","null","<div style=""font-size:60px;"">+</div>","null","","","","",""
"","image-button-response","206","361948","0.0-206.0","null","stimuli/images_hvm10/im6.png","","","null","6","0","6"
"","html-button-response","207","363062","0.0-207.0","1110.7999999523163","","","","0","","",""
"","html-keyboard-response","208","364064","0.0-208.0","null","<div style=""font-size:60px;"">+</div>","null","","","","",""
"","image-button-response","209","364571","0.0-209.0","null","stimuli/images_hvm10/im56.png","","","null","56","2","6"
"","html-button-response","210","365426","0.0-210.0","852.9000000953674","","","","0","","",""
"","html-keyboard-response","211","366431","0.0-211.0","null","<div style=""font-size:60px;"">+</div>","null","","","","",""
"","image-button-response","212","366938","0.0-212.0","null","stimuli/images_hvm10/im35.png","","","null","35","1","3"
"","html-button-response","213","368159","0.0-213.0","1218.2000000476837","","","","1","","",""
"","html-keyboard-response","214","369165","0.0-214.0","null","<div style=""font-size:60px;"">+</div>","null","","","","",""
"","image-button-response","215","369668","0.0-215.0","null","stimuli/images_hvm10/im120.png","","","null","120","6","9"
"","html-button-response","216","370683","0.0-216.0","1012","","","","0","","",""
"","html-keyboard-response","217","371686","0.0-217.0","null","<div style=""font-size:60px;"">+</div>","null","","","","",""
"","image-button-response","218","372191","0.0-218.0","null","stimuli/images_hvm10/im8.png","","","null","8","8","0"
"","html-button-response","219","373062","0.0-219.0","868.1000001430511","","","","1","","",""
"","html-keyboard-response","220","374065","0.0-220.0","null","<div style=""font-size:60px;"">+</div>","null","","","","",""
"","image-button-response","221","374573","0.0-221.0","null","stimuli/images_hvm10/im75.png","","","null","75","1","3"
"","html-button-response","222","375250","0.0-222.0","674.6000001430511","","","","1","","",""
"","html-keyboard-response","223","376257","0.0-223.0","null","<div style=""font-size:60px;"">+</div>","null","","","","",""
"","image-button-response","224","376765","0.0-224.0","null","stimuli/images_hvm10/im23.png","","","null","23","1","4"
"","html-button-response","225","377623","0.0-225.0","855.7999999523163","","","","0","","",""
"","html-keyboard-response","226","378628","0.0-226.0","null","<div style=""font-size:60px;"">+</div>","null","","","","",""
"","image-button-response","227","379132","0.0-227.0","null","stimuli/images_hvm10/im173.png","","","null","173","8","2"
"","html-button-response","228","380107","0.0-228.0","971.9000000953674","","","","0","","",""
"","html-keyboard-response","229","381114","0.0-229.0","null","<div style=""font-size:60px;"">+</div>","null","","","","",""
"","image-button-response","230","381620","0.0-230.0","null","stimuli/images_hvm10/im72.png","","","null","72","8","3"
"","html-button-response","231","382593","0.0-231.0","970.7000000476837","","","","1","","",""
"","html-keyboard-response","232","383598","0.0-232.0","null","<div style=""font-size:60px;"">+</div>","null","","","","",""
"","image-button-response","233","384105","0.0-233.0","null","stimuli/images_hvm10/im7.png","","","null","7","3","0"
"","html-button-response","234","384867","0.0-234.0","758.0999999046326","","","","1","","",""
"","html-keyboard-response","235","385873","0.0-235.0","null","<div style=""font-size:60px;"">+</div>","null","","","","",""
"","image-button-response","236","386381","0.0-236.0","null","stimuli/images_hvm10/im87.png","","","null","87","6","4"
"","html-button-response","237","387288","0.0-237.0","903.7999999523163","","","","1","","",""
"","html-keyboard-response","238","388294","0.0-238.0","null","<div style=""font-size:60px;"">+</div>","null","","","","",""
"","image-button-response","239","388798","0.0-239.0","null","stimuli/images_hvm10/im172.png","","","null","172","2","8"
"","html-button-response","240","389619","0.0-240.0","818.5","","","","1","","",""
"","html-keyboard-response","241","390625","0.0-241.0","null","<div style=""font-size:60px;"">+</div>","null","","","","",""
"","image-button-response","242","391131","0.0-242.0","null","stimuli/images_hvm10/im147.png","","","null","147","7","4"
"","html-button-response","243","391961","0.0-243.0","825.9000000953674","","","","0","","",""
"","html-keyboard-response","244","392965","0.0-244.0","null","<div style=""font-size:60px;"">+</div>","null","","","","",""
"","image-button-response","245","393469","0.0-245.0","null","stimuli/images_hvm10/im185.png","","","null","185","3","9"
"","html-button-response","246","394332","0.0-246.0","859.2999999523163","","","","1","","",""
"","html-keyboard-response","247","395334","0.0-247.0","null","<div style=""font-size:60px;"">+</div>","null","","","","",""
"","image-button-response","248","395838","0.0-248.0","null","stimuli/images_hvm10/im1.png","","","null","1","6","0"
"","html-button-response","249","396600","0.0-249.0","757.9000000953674","","","","1","","",""
"","html-keyboard-response","250","397607","0.0-250.0","null","<div style=""font-size:60px;"">+</div>","null","","","","",""
"","image-button-response","251","398115","0.0-251.0","null","stimuli/images_hvm10/im189.png","","","null","189","9","1"
"","html-button-response","252","398915","0.0-252.0","797.2999999523163","","","","0","","",""
"","html-keyboard-response","253","399920","0.0-253.0","null","<div style=""font-size:60px;"">+</div>","null","","","","",""
"","image-button-response","254","400429","0.0-254.0","null","stimuli/images_hvm10/im198.png","","","null","198","7","9"
"","html-button-response","255","401191","0.0-255.0","759.3999998569489","","","","1","","",""
"","html-keyboard-response","256","402198","0.0-256.0","null","<div style=""font-size:60px;"">+</div>","null","","","","",""
"","image-button-response","257","402702","0.0-257.0","null","stimuli/images_hvm10/im108.png","","","null","108","2","5"
"","html-button-response","258","403748","0.0-258.0","1042.5","","","","1","","",""
"","html-keyboard-response","259","404752","0.0-259.0","null","<div style=""font-size:60px;"">+</div>","null","","","","",""
"","image-button-response","260","405258","0.0-260.0","null","stimuli/images_hvm10/im168.png","","","null","168","5","8"
"","html-button-response","261","406014","0.0-261.0","753.4000000953674","","","","1","","",""
"","html-keyboard-response","262","407021","0.0-262.0","null","<div style=""font-size:60px;"">+</div>","null","","","","",""
"","image-button-response","263","407530","0.0-263.0","null","stimuli/images_hvm10/im136.png","","","null","136","6","1"
"","html-button-response","264","410226","0.0-264.0","2692.5","","","","0","","",""
"","html-keyboard-response","265","411232","0.0-265.0","null","<div style=""font-size:60px;"">+</div>","null","","","","",""
"","image-button-response","266","411739","0.0-266.0","null","stimuli/images_hvm10/im162.png","","","null","162","4","8"
"","html-button-response","267","415156","0.0-267.0","3412.4000000953674","","","","1","","",""
"","html-keyboard-response","268","416163","0.0-268.0","null","<div style=""font-size:60px;"">+</div>","null","","","","",""
"","image-button-response","269","416672","0.0-269.0","null","stimuli/images_hvm10/im21.png","","","null","21","1","9"
"","html-button-response","270","418687","0.0-270.0","2012.0999999046326","","","","1","","",""
"","html-keyboard-response","271","419695","0.0-271.0","null","<div style=""font-size:60px;"">+</div>","null","","","","",""
"","image-button-response","272","420203","0.0-272.0","null","stimuli/images_hvm10/im164.png","","","null","164","6","8"
"","html-button-response","273","421165","0.0-273.0","959.3999998569489","","","","0","","",""
"","html-keyboard-response","274","422169","0.0-274.0","null","<div style=""font-size:60px;"">+</div>","null","","","","",""
"","image-button-response","275","422675","0.0-275.0","null","stimuli/images_hvm10/im124.png","","","null","124","2","6"
"","html-button-response","276","423623","0.0-276.0","944.0999999046326","","","","1","","",""
"","html-keyboard-response","277","424628","0.0-277.0","null","<div style=""font-size:60px;"">+</div>","null","","","","",""
"","image-button-response","278","425133","0.0-278.0","null","stimuli/images_hvm10/im27.png","","","null","27","1","2"
"","html-button-response","279","425907","0.0-279.0","770.2000000476837","","","","0","","",""
"","html-keyboard-response","280","426914","0.0-280.0","null","<div style=""font-size:60px;"">+</div>","null","","","","",""
"","image-button-response","281","427420","0.0-281.0","null","stimuli/images_hvm10/im103.png","","","null","103","2","5"
"","html-button-response","282","428343","0.0-282.0","920.0999999046326","","","","1","","",""
"","html-keyboard-response","283","429348","0.0-283.0","null","<div style=""font-size:60px;"">+</div>","null","","","","",""
"","image-button-response","284","429854","0.0-284.0","null","stimuli/images_hvm10/im22.png","","","null","22","1","0"
"","html-button-response","285","430748","0.0-285.0","890.2000000476837","","","","0","","",""
"","html-keyboard-response","286","431754","0.0-286.0","null","<div style=""font-size:60px;"">+</div>","null","","","","",""
"","image-button-response","287","432263","0.0-287.0","null","stimuli/images_hvm10/im41.png","","","null","41","7","2"
"","html-button-response","288","433056","0.0-288.0","788.8999998569489","","","","1","","",""
"","html-keyboard-response","289","434063","0.0-289.0","null","<div style=""font-size:60px;"">+</div>","null","","","","",""
"","image-button-response","290","434572","0.0-290.0","null","stimuli/images_hvm10/im133.png","","","null","133","1","6"
"","html-button-response","291","435308","0.0-291.0","732.2999999523163","","","","1","","",""
"","html-keyboard-response","292","436316","0.0-292.0","null","<div style=""font-size:60px;"">+</div>","null","","","","",""
"","image-button-response","293","436823","0.0-293.0","null","stimuli/images_hvm10/im33.png","","","null","33","1","3"
"","html-button-response","294","437935","0.0-294.0","1109.3999998569489","","","","0","","",""
"","html-keyboard-response","295","438939","0.0-295.0","null","<div style=""font-size:60px;"">+</div>","null","","","","",""
"","image-button-response","296","439445","0.0-296.0","null","stimuli/images_hvm10/im117.png","","","null","117","8","5"
"","html-button-response","297","440212","0.0-297.0","764.3000001907349","","","","1","","",""
"","html-keyboard-response","298","441216","0.0-298.0","null","<div style=""font-size:60px;"">+</div>","null","","","","",""
"","image-button-response","299","441720","0.0-299.0","null","stimuli/images_hvm10/im171.png","","","null","171","0","8"
"","html-button-response","300","442352","0.0-300.0","628.2000000476837","","","","1","","",""
"","html-keyboard-response","301","443358","0.0-301.0","null","<div style=""font-size:60px;"">+</div>","null","","","","",""
"","image-button-response","302","443866","0.0-302.0","null","stimuli/images_hvm10/im180.png","","","null","180","9","2"
"","html-button-response","303","444610","0.0-303.0","741.5","","","","0","","",""
"","html-keyboard-response","304","445615","0.0-304.0","null","<div style=""font-size:60px;"">+</div>","null","","","","",""
"","image-button-response","305","446123","0.0-305.0","null","stimuli/images_hvm10/im150.png","","","null","150","2","7"
"","html-button-response","306","446902","0.0-306.0","776.3999998569489","","","","1","","",""
"","html-keyboard-response","307","447907","0.0-307.0","null","<div style=""font-size:60px;"">+</div>","null","","","","",""
"","image-button-response","308","448414","0.0-308.0","null","stimuli/images_hvm10/im196.png","","","null","196","5","9"
"","html-button-response","309","449355","0.0-309.0","937.2000000476837","","","","1","","",""
"","html-keyboard-response","310","450357","0.0-310.0","null","<div style=""font-size:60px;"">+</div>","null","","","","",""
"","image-button-response","311","450863","0.0-311.0","null","stimuli/images_hvm10/im142.png","","","null","142","7","3"
"","html-button-response","312","452983","0.0-312.0","2116.5","","","","0","","",""
"","html-keyboard-response","313","453990","0.0-313.0","null","<div style=""font-size:60px;"">+</div>","null","","","","",""
"","image-button-response","314","454496","0.0-314.0","null","stimuli/images_hvm10/im145.png","","","null","145","7","2"
"","html-button-response","315","455475","0.0-315.0","975.7999999523163","","","","0","","",""
"","html-keyboard-response","316","456482","0.0-316.0","null","<div style=""font-size:60px;"">+</div>","null","","","","",""
"","image-button-response","317","456990","0.0-317.0","null","stimuli/images_hvm10/im149.png","","","null","149","7","5"
"","html-button-response","318","457878","0.0-318.0","884.7000000476837","","","","0","","",""
"","html-keyboard-response","319","458882","0.0-319.0","null","<div style=""font-size:60px;"">+</div>","null","","","","",""
"","image-button-response","320","459390","0.0-320.0","null","stimuli/images_hvm10/im30.png","","","null","30","1","6"
"","html-button-response","321","460371","0.0-321.0","978.6000001430511","","","","0","","",""
"","html-keyboard-response","322","461374","0.0-322.0","null","<div style=""font-size:60px;"">+</div>","null","","","","",""
"","image-button-response","323","461882","0.0-323.0","null","stimuli/images_hvm10/im109.png","","","null","109","5","2"
"","html-button-response","324","463552","0.0-324.0","1667","","","","0","","",""
"","html-keyboard-response","325","464557","0.0-325.0","null","<div style=""font-size:60px;"">+</div>","null","","","","",""
"","image-button-response","326","465065","0.0-326.0","null","stimuli/images_hvm10/im157.png","","","null","157","7","0"
"","html-button-response","327","466293","0.0-327.0","1225.7999999523163","","","","0","","",""
"","html-keyboard-response","328","467300","0.0-328.0","null","<div style=""font-size:60px;"">+</div>","null","","","","",""
"","image-button-response","329","467807","0.0-329.0","null","stimuli/images_hvm10/im66.png","","","null","66","3","9"
"","html-button-response","330","468505","0.0-330.0","695.0999999046326","","","","0","","",""
"","html-keyboard-response","331","469513","0.0-331.0","null","<div style=""font-size:60px;"">+</div>","null","","","","",""
"","image-button-response","332","470018","0.0-332.0","null","stimuli/images_hvm10/im16.png","","","null","16","6","0"
"","html-button-response","333","470692","0.0-333.0","670.9000000953674","","","","1","","",""
"","html-keyboard-response","334","471699","0.0-334.0","null","<div style=""font-size:60px;"">+</div>","null","","","","",""
"","image-button-response","335","472207","0.0-335.0","null","stimuli/images_hvm10/im10.png","","","null","10","1","0"
"","html-button-response","336","473320","0.0-336.0","1109.7000000476837","","","","0","","",""
"","html-keyboard-response","337","474324","0.0-337.0","null","<div style=""font-size:60px;"">+</div>","null","","","","",""
"","image-button-response","338","474832","0.0-338.0","null","stimuli/images_hvm10/im0.png","","","null","0","8","0"
"","html-button-response","339","475677","0.0-339.0","841.2000000476837","","","","1","","",""
"","html-keyboard-response","340","476682","0.0-340.0","null","<div style=""font-size:60px;"">+</div>","null","","","","",""
"","image-button-response","341","477191","0.0-341.0","null","stimuli/images_hvm10/im54.png","","","null","54","2","5"
"","html-button-response","342","478057","0.0-342.0","863.3999998569489","","","","0","","",""
"","html-keyboard-response","343","479062","0.0-343.0","null","<div style=""font-size:60px;"">+</div>","null","","","","",""
"","image-button-response","344","479566","0.0-344.0","null","stimuli/images_hvm10/im29.png","","","null","29","1","8"
"","html-button-response","345","480726","0.0-345.0","1156.7000000476837","","","","0","","",""
"","html-keyboard-response","346","481733","0.0-346.0","null","<div style=""font-size:60px;"">+</div>","null","","","","",""
"","image-button-response","347","482238","0.0-347.0","null","stimuli/images_hvm10/im77.png","","","null","77","8","3"
"","html-button-response","348","483063","0.0-348.0","822.2999999523163","","","","1","","",""
"","html-keyboard-response","349","484066","0.0-349.0","null","<div style=""font-size:60px;"">+</div>","null","","","","",""
"","image-button-response","350","484574","0.0-350.0","null","stimuli/images_hvm10/im84.png","","","null","84","7","4"
"","html-button-response","351","485453","0.0-351.0","875.2999999523163","","","","1","","",""
"","html-keyboard-response","352","486457","0.0-352.0","null","<div style=""font-size:60px;"">+</div>","null","","","","",""
"","image-button-response","353","486966","0.0-353.0","null","stimuli/images_hvm10/im186.png","","","null","186","9","2"
"","html-button-response","354","487810","0.0-354.0","840.5999999046326","","","","0","","",""
"","html-keyboard-response","355","488816","0.0-355.0","null","<div style=""font-size:60px;"">+</div>","null","","","","",""
"","image-button-response","356","489323","0.0-356.0","null","stimuli/images_hvm10/im57.png","","","null","57","2","8"
"","html-button-response","357","490334","0.0-357.0","1007.1000001430511","","","","0","","",""
"","html-keyboard-response","358","491341","0.0-358.0","null","<div style=""font-size:60px;"">+</div>","null","","","","",""
"","image-button-response","359","491849","0.0-359.0","null","stimuli/images_hvm10/im102.png","","","null","102","5","8"
"","html-button-response","360","492811","0.0-360.0","958.4000000953674","","","","0","","",""
"","html-keyboard-response","361","493816","0.0-361.0","null","<div style=""font-size:60px;"">+</div>","null","","","","",""
"","image-button-response","362","494322","0.0-362.0","null","stimuli/images_hvm10/im116.png","","","null","116","9","5"
"","html-button-response","363","495095","0.0-363.0","768.7999999523163","","","","1","","",""
"","html-keyboard-response","364","496101","0.0-364.0","null","<div style=""font-size:60px;"">+</div>","null","","","","",""
"","image-button-response","365","496607","0.0-365.0","null","stimuli/images_hvm10/im170.png","","","null","170","8","6"
"","html-button-response","366","497491","0.0-366.0","880.5","","","","0","","",""
"","html-keyboard-response","367","498499","0.0-367.0","null","<div style=""font-size:60px;"">+</div>","null","","","","",""
"","image-button-response","368","499007","0.0-368.0","null","stimuli/images_hvm10/im46.png","","","null","46","0","2"
"","html-button-response","369","499733","0.0-369.0","722.6000001430511","","","","1","","",""
"","html-keyboard-response","370","500741","0.0-370.0","null","<div style=""font-size:60px;"">+</div>","null","","","","",""
"","image-button-response","371","501249","0.0-371.0","null","stimuli/images_hvm10/im97.png","","","null","97","2","4"
"","html-button-response","372","502177","0.0-372.0","924.4000000953674","","","","1","","",""
"","html-keyboard-response","373","503183","0.0-373.0","null","<div style=""font-size:60px;"">+</div>","null","","","","",""
"","image-button-response","374","503691","0.0-374.0","null","stimuli/images_hvm10/im13.png","","","null","13","0","1"
"","html-button-response","375","504815","0.0-375.0","1119.7999999523163","","","","0","","",""
"","html-keyboard-response","376","505820","0.0-376.0","null","<div style=""font-size:60px;"">+</div>","null","","","","",""
"","image-button-response","377","506329","0.0-377.0","null","stimuli/images_hvm10/im94.png","","","null","94","7","4"
"","html-button-response","378","507195","0.0-378.0","862.8999998569489","","","","1","","",""
"","html-keyboard-response","379","508201","0.0-379.0","null","<div style=""font-size:60px;"">+</div>","null","","","","",""
"","image-button-response","380","508710","0.0-380.0","null","stimuli/images_hvm10/im194.png","","","null","194","9","3"
"","html-button-response","381","509551","0.0-381.0","837.4000000953674","","","","0","","",""
"","html-keyboard-response","382","510558","0.0-382.0","null","<div style=""font-size:60px;"">+</div>","null","","","","",""
"","image-button-response","383","511066","0.0-383.0","null","stimuli/images_hvm10/im141.png","","","null","141","1","7"
"","html-button-response","384","511923","0.0-384.0","853.5999999046326","","","","1","","",""
"","html-keyboard-response","385","512930","0.0-385.0","null","<div style=""font-size:60px;"">+</div>","null","","","","",""
"","image-button-response","386","513435","0.0-386.0","null","stimuli/images_hvm10/im93.png","","","null","93","4","1"
"","html-button-response","387","514425","0.0-387.0","986.2000000476837","","","","0","","",""
"","html-keyboard-response","388","515428","0.0-388.0","null","<div style=""font-size:60px;"">+</div>","null","","","","",""
"","image-button-response","389","515933","0.0-389.0","null","stimuli/images_hvm10/im61.png","","","null","61","3","1"
"","html-button-response","390","516676","0.0-390.0","739","","","","0","","",""
"","html-keyboard-response","391","517683","0.0-391.0","null","<div style=""font-size:60px;"">+</div>","null","","","","",""
"","image-button-response","392","518192","0.0-392.0","null","stimuli/images_hvm10/im12.png","","","null","12","7","0"
"","html-button-response","393","518933","0.0-393.0","738.1000001430511","","","","1","","",""
"","html-keyboard-response","394","519938","0.0-394.0","null","<div style=""font-size:60px;"">+</div>","null","","","","",""
"","image-button-response","395","520446","0.0-395.0","null","stimuli/images_hvm10/im169.png","","","null","169","9","8"
"","html-button-response","396","521217","0.0-396.0","769.1000001430511","","","","1","","",""
"","html-keyboard-response","397","522224","0.0-397.0","null","<div style=""font-size:60px;"">+</div>","null","","","","",""
"","image-button-response","398","522730","0.0-398.0","null","stimuli/images_hvm10/im115.png","","","null","115","3","5"
"","html-button-response","399","523775","0.0-399.0","1042.2000000476837","","","","0","","",""
"","html-keyboard-response","400","524780","0.0-400.0","null","<div style=""font-size:60px;"">+</div>","null","","","","",""
"","image-button-response","401","525288","0.0-401.0","null","stimuli/images_hvm10/im79.png","","","null","79","3","4"
"","html-button-response","402","526092","0.0-402.0","801.1999998092651","","","","0","","",""
"","html-keyboard-response","403","527095","0.0-403.0","null","<div style=""font-size:60px;"">+</div>","null","","","","",""
"","image-button-response","404","527601","0.0-404.0","null","stimuli/images_hvm10/im39.png","","","null","39","5","1"
"","html-button-response","405","528598","0.0-405.0","994.7999999523163","","","","1","","",""
"","html-keyboard-response","406","529601","0.0-406.0","null","<div style=""font-size:60px;"">+</div>","null","","","","",""
"","image-button-response","407","530106","0.0-407.0","null","stimuli/images_hvm10/im178.png","","","null","178","2","8"
"","html-button-response","408","530992","0.0-408.0","883.9000000953674","","","","1","","",""
"","html-keyboard-response","409","531999","0.0-409.0","null","<div style=""font-size:60px;"">+</div>","null","","","","",""
"","image-button-response","410","532506","0.0-410.0","null","stimuli/images_hvm10/im96.png","","","null","96","0","4"
"","html-button-response","411","533319","0.0-411.0","809.0999999046326","","","","0","","",""
"","html-keyboard-response","412","534324","0.0-412.0","null","<div style=""font-size:60px;"">+</div>","null","","","","",""
"","image-button-response","413","534829","0.0-413.0","null","stimuli/images_hvm10/im159.png","","","null","159","7","9"
"","html-button-response","414","535706","0.0-414.0","873.5","","","","0","","",""
"","html-keyboard-response","415","536713","0.0-415.0","null","<div style=""font-size:60px;"">+</div>","null","","","","",""
"","image-button-response","416","537221","0.0-416.0","null","stimuli/images_hvm10/im160.png","","","null","160","6","8"
"","html-button-response","417","537943","0.0-417.0","718.1000001430511","","","","1","","",""
"","html-keyboard-response","418","538949","0.0-418.0","null","<div style=""font-size:60px;"">+</div>","null","","","","",""
"","image-button-response","419","539456","0.0-419.0","null","stimuli/images_hvm10/im163.png","","","null","163","2","8"
"","html-button-response","420","540153","0.0-420.0","693.6000001430511","","","","1","","",""
"","html-keyboard-response","421","541158","0.0-421.0","null","<div style=""font-size:60px;"">+</div>","null","","","","",""
"","image-button-response","422","541665","0.0-422.0","null","stimuli/images_hvm10/im85.png","","","null","85","1","4"
"","html-button-response","423","542837","0.0-423.0","1169.7000000476837","","","","1","","",""
"","html-keyboard-response","424","543840","0.0-424.0","null","<div style=""font-size:60px;"">+</div>","null","","","","",""
"","image-button-response","425","544343","0.0-425.0","null","stimuli/images_hvm10/im158.png","","","null","158","7","5"
"","html-button-response","426","545306","0.0-426.0","959.5999999046326","","","","0","","",""
"","html-keyboard-response","427","546309","0.0-427.0","null","<div style=""font-size:60px;"">+</div>","null","","","","",""
"","image-button-response","428","546816","0.0-428.0","null","stimuli/images_hvm10/im44.png","","","null","44","3","2"
"","html-button-response","429","547672","0.0-429.0","852.7000000476837","","","","1","","",""
"","html-keyboard-response","430","548676","0.0-430.0","null","<div style=""font-size:60px;"">+</div>","null","","","","",""
"","image-button-response","431","549183","0.0-431.0","null","stimuli/images_hvm10/im110.png","","","null","110","4","5"
"","html-button-response","432","549987","0.0-432.0","801.2000000476837","","","","1","","",""
"","html-keyboard-response","433","550990","0.0-433.0","null","<div style=""font-size:60px;"">+</div>","null","","","","",""
"","image-button-response","434","551496","0.0-434.0","null","stimuli/images_hvm10/im122.png","","","null","122","8","6"
"","html-button-response","435","552383","0.0-435.0","883.8999998569489","","","","0","","",""
"","html-keyboard-response","436","553391","0.0-436.0","null","<div style=""font-size:60px;"">+</div>","null","","","","",""
"","image-button-response","437","553895","0.0-437.0","null","stimuli/images_hvm10/im187.png","","","null","187","9","7"
"","html-button-response","438","554771","0.0-438.0","872.2999999523163","","","","0","","",""
"","html-keyboard-response","439","555775","0.0-439.0","null","<div style=""font-size:60px;"">+</div>","null","","","","",""
"","image-button-response","440","556283","0.0-440.0","null","stimuli/images_hvm10/im34.png","","","null","34","1","9"
"","html-button-response","441","557880","0.0-441.0","1593.6000001430511","","","","1","","",""
"","html-keyboard-response","442","558883","0.0-442.0","null","<div style=""font-size:60px;"">+</div>","null","","","","",""
"","image-button-response","443","559389","0.0-443.0","null","stimuli/images_hvm10/im106.png","","","null","106","5","1"
"","html-button-response","444","560123","0.0-444.0","731","","","","0","","",""
"","html-keyboard-response","445","561128","0.0-445.0","null","<div style=""font-size:60px;"">+</div>","null","","","","",""
"","image-button-response","446","561635","0.0-446.0","null","stimuli/images_hvm10/im146.png","","","null","146","7","4"
"","html-button-response","447","562393","0.0-447.0","754.2999999523163","","","","0","","",""
"","html-keyboard-response","448","563400","0.0-448.0","null","<div style=""font-size:60px;"">+</div>","null","","","","",""
"","image-button-response","449","563906","0.0-449.0","null","stimuli/images_hvm10/im167.png","","","null","167","2","8"
"","html-button-response","450","564659","0.0-450.0","749.5","","","","1","","",""
"","html-keyboard-response","451","565666","0.0-451.0","null","<div style=""font-size:60px;"">+</div>","null","","","","",""
"","image-button-response","452","566174","0.0-452.0","null","stimuli/images_hvm10/im63.png","","","null","63","6","3"
"","html-button-response","453","567209","0.0-453.0","1031.5999999046326","","","","1","","",""
"","html-keyboard-response","454","568211","0.0-454.0","null","<div style=""font-size:60px;"">+</div>","null","","","","",""
"","image-button-response","455","568716","0.0-455.0","null","stimuli/images_hvm10/im40.png","","","null","40","2","7"
"","html-button-response","456","569548","0.0-456.0","828","","","","0","","",""
"","html-keyboard-response","457","570555","0.0-457.0","null","<div style=""font-size:60px;"">+</div>","null","","","","",""
"","image-button-response","458","571061","0.0-458.0","null","stimuli/images_hvm10/im151.png","","","null","151","8","7"
"","html-button-response","459","571889","0.0-459.0","824.2000000476837","","","","1","","",""
"","html-keyboard-response","460","572896","0.0-460.0","null","<div style=""font-size:60px;"">+</div>","null","","","","",""
"","image-button-response","461","573400","0.0-461.0","null","stimuli/images_hvm10/im128.png","","","null","128","6","2"
"","html-button-response","462","574564","0.0-462.0","1159.7000000476837","","","","0","","",""
"","html-keyboard-response","463","575567","0.0-463.0","null","<div style=""font-size:60px;"">+</div>","null","","","","",""
"","image-button-response","464","576074","0.0-464.0","null","stimuli/images_hvm10/im2.png","","","null","2","6","0"
"","html-button-response","465","576824","0.0-465.0","746.7000000476837","","","","1","","",""
"","html-keyboard-response","466","577832","0.0-466.0","null","<div style=""font-size:60px;"">+</div>","null","","","","",""
"","image-button-response","467","578341","0.0-467.0","null","stimuli/images_hvm10/im113.png","","","null","113","8","5"
"","html-button-response","468","579140","0.0-468.0","796","","","","1","","",""
"","html-keyboard-response","469","580146","0.0-469.0","null","<div style=""font-size:60px;"">+</div>","null","","","","",""
"","image-button-response","470","580651","0.0-470.0","null","stimuli/images_hvm10/im60.png","","","null","60","3","7"
"","html-button-response","471","581568","0.0-471.0","913.4000000953674","","","","0","","",""
"","html-keyboard-response","472","582575","0.0-472.0","null","<div style=""font-size:60px;"">+</div>","null","","","","",""
"","image-button-response","473","583083","0.0-473.0","null","stimuli/images_hvm10/im25.png","","","null","25","1","4"
"","html-button-response","474","584197","0.0-474.0","1110.4000000953674","","","","1","","",""
"","html-keyboard-response","475","585203","0.0-475.0","null","<div style=""font-size:60px;"">+</div>","null","","","","",""
"","image-button-response","476","585712","0.0-476.0","null","stimuli/images_hvm10/im48.png","","","null","48","8","2"
"","html-button-response","477","586607","0.0-477.0","892.1999998092651","","","","1","","",""
"","html-keyboard-response","478","587615","0.0-478.0","null","<div style=""font-size:60px;"">+</div>","null","","","","",""
"","image-button-response","479","588123","0.0-479.0","null","stimuli/images_hvm10/im49.png","","","null","49","2","3"
"","html-button-response","480","589141","0.0-480.0","1014.2000000476837","","","","0","","",""
"","html-keyboard-response","481","590146","0.0-481.0","null","<div style=""font-size:60px;"">+</div>","null","","","","",""
"","image-button-response","482","590651","0.0-482.0","null","stimuli/images_hvm10/im138.png","","","null","138","6","4"
"","html-button-response","483","591465","0.0-483.0","810.1999998092651","","","","1","","",""
"","html-keyboard-response","484","592471","0.0-484.0","null","<div style=""font-size:60px;"">+</div>","null","","","","",""
"","image-button-response","485","592980","0.0-485.0","null","stimuli/images_hvm10/im176.png","","","null","176","8","2"
"","html-button-response","486","593875","0.0-486.0","892.2000000476837","","","","0","","",""
"","html-keyboard-response","487","594879","0.0-487.0","null","<div style=""font-size:60px;"">+</div>","null","","","","",""
"","image-button-response","488","595383","0.0-488.0","null","stimuli/images_hvm10/im68.png","","","null","68","3","6"
"","html-button-response","489","596361","0.0-489.0","973.7999999523163","","","","0","","",""
"","html-keyboard-response","490","597367","0.0-490.0","null","<div style=""font-size:60px;"">+</div>","null","","","","",""
"","image-button-response","491","597876","0.0-491.0","null","stimuli/images_hvm10/im101.png","","","null","101","5","3"
"","html-button-response","492","599037","0.0-492.0","1158","","","","0","","",""
"","html-keyboard-response","493","600042","0.0-493.0","null","<div style=""font-size:60px;"">+</div>","null","","","","",""
"","image-button-response","494","600549","0.0-494.0","null","stimuli/images_hvm10/im43.png","","","null","43","2","0"
"","html-button-response","495","601713","0.0-495.0","1161.6999998092651","","","","0","","",""
"","html-keyboard-response","496","602716","0.0-496.0","null","<div style=""font-size:60px;"">+</div>","null","","","","",""
"","image-button-response","497","603222","0.0-497.0","null","stimuli/images_hvm10/im5.png","","","null","5","0","5"
"","html-button-response","498","605109","0.0-498.0","1884.2000000476837","","","","0","","",""
"","html-keyboard-response","499","606115","0.0-499.0","null","<div style=""font-size:60px;"">+</div>","null","","","","",""
"","image-button-response","500","606623","0.0-500.0","null","stimuli/images_hvm10/im26.png","","","null","26","7","1"
"","html-button-response","501","607648","0.0-501.0","1022.9000000953674","","","","1","","",""
"","html-keyboard-response","502","608650","0.0-502.0","null","<div style=""font-size:60px;"">+</div>","null","","","","",""
"","image-button-response","503","609155","0.0-503.0","null","stimuli/images_hvm10/im17.png","","","null","17","0","3"
"","html-button-response","504","609965","0.0-504.0","806.2999999523163","","","","0","","",""
"","html-keyboard-response","505","610969","0.0-505.0","null","<div style=""font-size:60px;"">+</div>","null","","","","",""
"","image-button-response","506","611473","0.0-506.0","null","stimuli/images_hvm10/im183.png","","","null","183","9","6"
"","html-button-response","507","612408","0.0-507.0","933.0999999046326","","","","0","","",""
"","html-keyboard-response","508","613413","0.0-508.0","null","<div style=""font-size:60px;"">+</div>","null","","","","",""
"","image-button-response","509","613916","0.0-509.0","null","stimuli/images_hvm10/im28.png","","","null","28","9","1"
"","html-button-response","510","615126","0.0-510.0","1208.2999999523163","","","","0","","",""
"","html-keyboard-response","511","616133","0.0-511.0","null","<div style=""font-size:60px;"">+</div>","null","","","","",""
"","image-button-response","512","616637","0.0-512.0","null","stimuli/images_hvm10/im62.png","","","null","62","8","3"
"","html-button-response","513","617969","0.0-513.0","1329.7999999523163","","","","1","","",""
"","html-keyboard-response","514","618976","0.0-514.0","null","<div style=""font-size:60px;"">+</div>","null","","","","",""
"","image-button-response","515","619483","0.0-515.0","null","stimuli/images_hvm10/im100.png","","","null","100","7","5"
"","html-button-response","516","622386","0.0-516.0","2899.0999999046326","","","","1","","",""
"","html-keyboard-response","517","623393","0.0-517.0","null","<div style=""font-size:60px;"">+</div>","null","","","","",""
"","image-button-response","518","623900","0.0-518.0","null","stimuli/images_hvm10/im129.png","","","null","129","8","6"
"","html-button-response","519","626427","0.0-519.0","2524.5999999046326","","","","1","","",""
"","html-keyboard-response","520","627434","0.0-520.0","null","<div style=""font-size:60px;"">+</div>","null","","","","",""
"","image-button-response","521","627942","0.0-521.0","null","stimuli/images_hvm10/im64.png","","","null","64","3","6"
"","html-button-response","522","628872","0.0-522.0","927.0999999046326","","","","0","","",""
"","html-keyboard-response","523","629875","0.0-523.0","null","<div style=""font-size:60px;"">+</div>","null","","","","",""
"","image-button-response","524","630384","0.0-524.0","null","stimuli/images_hvm10/im104.png","","","null","104","7","5"
"","html-button-response","525","631300","0.0-525.0","913.1000001430511","","","","1","","",""
"","html-keyboard-response","526","632305","0.0-526.0","null","<div style=""font-size:60px;"">+</div>","null","","","","",""
"","image-button-response","527","632813","0.0-527.0","null","stimuli/images_hvm10/im4.png","","","null","4","5","0"
"","html-button-response","528","633880","0.0-528.0","1063.5","","","","1","","",""
"","html-keyboard-response","529","634887","0.0-529.0","null","<div style=""font-size:60px;"">+</div>","null","","","","",""
"","image-button-response","530","635395","0.0-530.0","null","stimuli/images_hvm10/im15.png","","","null","15","0","2"
"","html-button-response","531","636220","0.0-531.0","821.4000000953674","","","","0","","",""
"","html-keyboard-response","532","637222","0.0-532.0","null","<div style=""font-size:60px;"">+</div>","null","","","","",""
"","image-button-response","533","637728","0.0-533.0","null","stimuli/images_hvm10/im119.png","","","null","119","5","1"
"","html-button-response","534","638424","0.0-534.0","692.4000000953674","","","","0","","",""
"","html-keyboard-response","535","639426","0.0-535.0","null","<div style=""font-size:60px;"">+</div>","null","","","","",""
"","image-button-response","536","639934","0.0-536.0","null","stimuli/images_hvm10/im135.png","","","null","135","3","6"
"","html-button-response","537","640891","0.0-537.0","954.5999999046326","","","","1","","",""
"","html-keyboard-response","538","641896","0.0-538.0","null","<div style=""font-size:60px;"">+</div>","null","","","","",""
"","image-button-response","539","642400","0.0-539.0","null","stimuli/images_hvm10/im11.png","","","null","11","0","1"
"","html-button-response","540","643314","0.0-540.0","910.2000000476837","","","","0","","",""
"","html-keyboard-response","541","644317","0.0-541.0","null","<div style=""font-size:60px;"">+</div>","null","","","","",""
"","image-button-response","542","644826","0.0-542.0","null","stimuli/images_hvm10/im148.png","","","null","148","8","7"
"","html-button-response","543","645693","0.0-543.0","864","","","","1","","",""
"","html-keyboard-response","544","646700","0.0-544.0","null","<div style=""font-size:60px;"">+</div>","null","","","","",""
"","image-button-response","545","647204","0.0-545.0","null","stimuli/images_hvm10/im188.png","","","null","188","1","9"
"","html-button-response","546","648105","0.0-546.0","898.2999999523163","","","","1","","",""
"","html-keyboard-response","547","649109","0.0-547.0","null","<div style=""font-size:60px;"">+</div>","null","","","","",""
"","image-button-response","548","649617","0.0-548.0","null","stimuli/images_hvm10/im192.png","","","null","192","3","9"
"","html-button-response","549","650453","0.0-549.0","833.2000000476837","","","","1","","",""
"","html-keyboard-response","550","651459","0.0-550.0","null","<div style=""font-size:60px;"">+</div>","null","","","","",""
"","image-button-response","551","651967","0.0-551.0","null","stimuli/images_hvm10/im65.png","","","null","65","4","3"
"","html-button-response","552","652817","0.0-552.0","846.2000000476837","","","","1","","",""
"","html-keyboard-response","553","653825","0.0-553.0","null","<div style=""font-size:60px;"">+</div>","null","","","","",""
"","image-button-response","554","654332","0.0-554.0","null","stimuli/images_hvm10/im121.png","","","null","121","8","6"
"","html-button-response","555","655470","0.0-555.0","1134.7999999523163","","","","0","","",""
"","html-keyboard-response","556","656476","0.0-556.0","null","<div style=""font-size:60px;"">+</div>","null","","","","",""
"","image-button-response","557","656984","0.0-557.0","null","stimuli/images_hvm10/im95.png","","","null","95","2","4"
"","html-button-response","558","657858","0.0-558.0","870.2999999523163","","","","1","","",""
"","html-keyboard-response","559","658865","0.0-559.0","null","<div style=""font-size:60px;"">+</div>","null","","","","",""
"","image-button-response","560","659370","0.0-560.0","null","stimuli/images_hvm10/im91.png","","","null","91","2","4"
"","html-button-response","561","660262","0.0-561.0","888.5999999046326","","","","1","","",""
"","html-keyboard-response","562","661267","0.0-562.0","null","<div style=""font-size:60px;"">+</div>","null","","","","",""
"","image-button-response","563","661776","0.0-563.0","null","stimuli/images_hvm10/im111.png","","","null","111","3","5"
"","html-button-response","564","662634","0.0-564.0","854.7000000476837","","","","1","","",""
"","html-keyboard-response","565","663637","0.0-565.0","null","<div style=""font-size:60px;"">+</div>","null","","","","",""
"","image-button-response","566","664146","0.0-566.0","null","stimuli/images_hvm10/im98.png","","","null","98","4","6"
"","html-button-response","567","664990","0.0-567.0","840.7999999523163","","","","0","","",""
"","html-keyboard-response","568","665998","0.0-568.0","null","<div style=""font-size:60px;"">+</div>","null","","","","",""
"","image-button-response","569","666505","0.0-569.0","null","stimuli/images_hvm10/im92.png","","","null","92","0","4"
"","html-button-response","570","667402","0.0-570.0","893.5999999046326","","","","1","","",""
"","html-keyboard-response","571","668409","0.0-571.0","null","<div style=""font-size:60px;"">+</div>","null","","","","",""
"","image-button-response","572","668918","0.0-572.0","null","stimuli/images_hvm10/im55.png","","","null","55","8","2"
"","html-button-response","573","669815","0.0-573.0","894","","","","1","","",""
"","html-keyboard-response","574","670822","0.0-574.0","null","<div style=""font-size:60px;"">+</div>","null","","","","",""
"","image-button-response","575","671331","0.0-575.0","null","stimuli/images_hvm10/im73.png","","","null","73","3","9"
"","html-button-response","576","672171","0.0-576.0","836.7000000476837","","","","0","","",""
"","html-keyboard-response","577","673176","0.0-577.0","null","<div style=""font-size:60px;"">+</div>","null","","","","",""
"","image-button-response","578","673684","0.0-578.0","null","stimuli/images_hvm10/im125.png","","","null","125","6","8"
"","html-button-response","579","674638","0.0-579.0","950.2000000476837","","","","0","","",""
"","html-keyboard-response","580","675643","0.0-580.0","null","<div style=""font-size:60px;"">+</div>","null","","","","",""
"","image-button-response","581","676151","0.0-581.0","null","stimuli/images_hvm10/im132.png","","","null","132","6","2"
"","html-button-response","582","677212","0.0-582.0","1057.5","","","","0","","",""
"","html-keyboard-response","583","678218","0.0-583.0","null","<div style=""font-size:60px;"">+</div>","null","","","","",""
"","image-button-response","584","678727","0.0-584.0","null","stimuli/images_hvm10/im90.png","","","null","90","4","2"
"","html-button-response","585","679503","0.0-585.0","773.5999999046326","","","","0","","",""
"","html-keyboard-response","586","680509","0.0-586.0","null","<div style=""font-size:60px;"">+</div>","null","","","","",""
"","image-button-response","587","681017","0.0-587.0","null","stimuli/images_hvm10/im81.png","","","null","81","4","0"
"","html-button-response","588","681804","0.0-588.0","783.0999999046326","","","","0","","",""
"","html-keyboard-response","589","682809","0.0-589.0","null","<div style=""font-size:60px;"">+</div>","null","","","","",""
"","image-button-response","590","683318","0.0-590.0","null","stimuli/images_hvm10/im118.png","","","null","118","5","3"
"","html-button-response","591","684377","0.0-591.0","1055.7999999523163","","","","1","","",""
"","html-keyboard-response","592","685384","0.0-592.0","null","<div style=""font-size:60px;"">+</div>","null","","","","",""
"","image-button-response","593","685892","0.0-593.0","null","stimuli/images_hvm10/im83.png","","","null","83","2","4"
"","html-button-response","594","687092","0.0-594.0","1197.1000001430511","","","","1","","",""
"","html-keyboard-response","595","688098","0.0-595.0","null","<div style=""font-size:60px;"">+</div>","null","","","","",""
"","image-button-response","596","688603","0.0-596.0","null","stimuli/images_hvm10/im37.png","","","null","37","3","1"
"","html-button-response","597","689545","0.0-597.0","939.4000000953674","","","","1","","",""
"","html-keyboard-response","598","690551","0.0-598.0","null","<div style=""font-size:60px;"">+</div>","null","","","","",""
"","image-button-response","599","691054","0.0-599.0","null","stimuli/images_hvm10/im144.png","","","null","144","9","7"
"","html-button-response","600","692014","0.0-600.0","957","","","","1","","",""
