"success","trial_type","trial_index","time_elapsed","internal_node_id","rt","stimulus","key_press","responses","button_pressed","images","left_choice","right_choice"
"true","fullscreen","0","3168","0.0-0.0","","","","","","","",""
"","html-keyboard-response","1","6822","0.0-1.0","3652.400000035763","Welcome to the experiment. Press any key to begin.","32","","","","",""
"","survey-html-form","2","25270","0.0-2.0","18444.899999976158","","","{""p_id"":""5945"",""age"":""19"",""handedness"":""right"",""sex"":""male"",""other_sex"":""""}","","","",""
"","html-keyboard-response","3","30368","0.0-3.0","5096.800000011921","<p>Please fixate at the center '+' sign which will appear once you press any key. Then, <strong> an image </strong> will be shown in the center of the screen.</p><p>The image will contain an object.This will be followed by a <strong> Choice Screen </strong> containing two objects. Please choose the option <strong>[Click on the object]</strong> that you think was present in the image<p>Press any key to begin.</p>","32","","","","",""
"","html-keyboard-response","4","33387","0.0-4.0","null","<div style=""font-size:60px;"">+</div>","null","","","","",""
"","image-button-response","5","33900","0.0-5.0","null","stimuli/images_hvm10/im64.png","","","null","64","3","2"
"","html-button-response","6","37069","0.0-6.0","3167.5","","","","0","","",""
"","html-keyboard-response","7","38077","0.0-7.0","null","<div style=""font-size:60px;"">+</div>","null","","","","",""
"","image-button-response","8","38590","0.0-8.0","null","stimuli/images_hvm10/im23.png","","","null","23","7","1"
"","html-button-response","9","39771","0.0-9.0","1179.6000000238419","","","","1","","",""
"","html-keyboard-response","10","40773","0.0-10.0","null","<div style=""font-size:60px;"">+</div>","null","","","","",""
"","image-button-response","11","41282","0.0-11.0","null","stimuli/images_hvm10/im47.png","","","null","47","2","4"
"","html-button-response","12","42952","0.0-12.0","1668.6000000238419","","","","1","","",""
"","html-keyboard-response","13","43954","0.0-13.0","null","<div style=""font-size:60px;"">+</div>","null","","","","",""
"","image-button-response","14","44469","0.0-14.0","null","stimuli/images_hvm10/im50.png","","","null","50","4","2"
"","html-button-response","15","46419","0.0-15.0","1948.4000000357628","","","","1","","",""
"","html-keyboard-response","16","47426","0.0-16.0","null","<div style=""font-size:60px;"">+</div>","null","","","","",""
"","image-button-response","17","47928","0.0-17.0","null","stimuli/images_hvm10/im107.png","","","null","107","2","5"
"","html-button-response","18","48496","0.0-18.0","566.8000000119209","","","","1","","",""
"","html-keyboard-response","19","49509","0.0-19.0","null","<div style=""font-size:60px;"">+</div>","null","","","","",""
"","image-button-response","20","50021","0.0-20.0","null","stimuli/images_hvm10/im187.png","","","null","187","9","7"
"","html-button-response","21","50719","0.0-21.0","695.1000000238419","","","","0","","",""
"","html-keyboard-response","22","51728","0.0-22.0","null","<div style=""font-size:60px;"">+</div>","null","","","","",""
"","image-button-response","23","52241","0.0-23.0","null","stimuli/images_hvm10/im115.png","","","null","115","1","5"
"","html-button-response","24","53628","0.0-24.0","1385.4000000357628","","","","1","","",""
"","html-keyboard-response","25","54629","0.0-25.0","null","<div style=""font-size:60px;"">+</div>","null","","","","",""
"","image-button-response","26","55130","0.0-26.0","null","stimuli/images_hvm10/im134.png","","","null","134","2","6"
"","html-button-response","27","56464","0.0-27.0","1332.5","","","","0","","",""
"","html-keyboard-response","28","57469","0.0-28.0","null","<div style=""font-size:60px;"">+</div>","null","","","","",""
"","image-button-response","29","57983","0.0-29.0","null","stimuli/images_hvm10/im127.png","","","null","127","6","3"
"","html-button-response","30","59336","0.0-30.0","1351","","","","1","","",""
"","html-keyboard-response","31","60343","0.0-31.0","null","<div style=""font-size:60px;"">+</div>","null","","","","",""
"","image-button-response","32","60858","0.0-32.0","null","stimuli/images_hvm10/im114.png","","","null","114","5","0"
"","html-button-response","33","61868","0.0-33.0","1009.4000000357628","","","","0","","",""
"","html-keyboard-response","34","62882","0.0-34.0","null","<div style=""font-size:60px;"">+</div>","null","","","","",""
"","image-button-response","35","63396","0.0-35.0","null","stimuli/images_hvm10/im148.png","","","null","148","9","7"
"","html-button-response","36","64554","0.0-36.0","1155.800000011921","","","","1","","",""
"","html-keyboard-response","37","65555","0.0-37.0","null","<div style=""font-size:60px;"">+</div>","null","","","","",""
"","image-button-response","38","66058","0.0-38.0","null","stimuli/images_hvm10/im79.png","","","null","79","3","7"
"","html-button-response","39","67756","0.0-39.0","1697.699999988079","","","","0","","",""
"","html-keyboard-response","40","68769","0.0-40.0","null","<div style=""font-size:60px;"">+</div>","null","","","","",""
"","image-button-response","41","69283","0.0-41.0","null","stimuli/images_hvm10/im144.png","","","null","144","3","7"
"","html-button-response","42","70165","0.0-42.0","881.6999999880791","","","","1","","",""
"","html-keyboard-response","43","71168","0.0-43.0","null","<div style=""font-size:60px;"">+</div>","null","","","","",""
"","image-button-response","44","71671","0.0-44.0","null","stimuli/images_hvm10/im119.png","","","null","119","5","7"
"","html-button-response","45","72352","0.0-45.0","680.7000000476837","","","","0","","",""
"","html-keyboard-response","46","73354","0.0-46.0","null","<div style=""font-size:60px;"">+</div>","null","","","","",""
"","image-button-response","47","73870","0.0-47.0","null","stimuli/images_hvm10/im165.png","","","null","165","2","8"
"","html-button-response","48","75209","0.0-48.0","1337.3999999761581","","","","1","","",""
"","html-keyboard-response","49","76214","0.0-49.0","null","<div style=""font-size:60px;"">+</div>","null","","","","",""
"","image-button-response","50","76716","0.0-50.0","null","stimuli/images_hvm10/im150.png","","","null","150","7","4"
"","html-button-response","51","78306","0.0-51.0","1588.6000000238419","","","","0","","",""
"","html-keyboard-response","52","79308","0.0-52.0","null","<div style=""font-size:60px;"">+</div>","null","","","","",""
"","image-button-response","53","79812","0.0-53.0","null","stimuli/images_hvm10/im65.png","","","null","65","8","3"
"","html-button-response","54","80969","0.0-54.0","1155.8999999761581","","","","1","","",""
"","html-keyboard-response","55","81975","0.0-55.0","null","<div style=""font-size:60px;"">+</div>","null","","","","",""
"","image-button-response","56","82490","0.0-56.0","null","stimuli/images_hvm10/im9.png","","","null","9","6","0"
"","html-button-response","57","83220","0.0-57.0","728.8000000119209","","","","1","","",""
"","html-keyboard-response","58","84221","0.0-58.0","null","<div style=""font-size:60px;"">+</div>","null","","","","",""
"","image-button-response","59","84723","0.0-59.0","null","stimuli/images_hvm10/im25.png","","","null","25","5","1"
"","html-button-response","60","86181","0.0-60.0","1457","","","","1","","",""
"","html-keyboard-response","61","87183","0.0-61.0","null","<div style=""font-size:60px;"">+</div>","null","","","","",""
"","image-button-response","62","87685","0.0-62.0","null","stimuli/images_hvm10/im198.png","","","null","198","9","6"
"","html-button-response","63","88222","0.0-63.0","535","","","","0","","",""
"","html-keyboard-response","64","89235","0.0-64.0","null","<div style=""font-size:60px;"">+</div>","null","","","","",""
"","image-button-response","65","89738","0.0-65.0","null","stimuli/images_hvm10/im146.png","","","null","146","7","9"
"","html-button-response","66","90427","0.0-66.0","687","","","","0","","",""
"","html-keyboard-response","67","91438","0.0-67.0","null","<div style=""font-size:60px;"">+</div>","null","","","","",""
"","image-button-response","68","91939","0.0-68.0","null","stimuli/images_hvm10/im90.png","","","null","90","4","2"
"","html-button-response","69","95486","0.0-69.0","3545.600000023842","","","","0","","",""
"","html-keyboard-response","70","96489","0.0-70.0","null","<div style=""font-size:60px;"">+</div>","null","","","","",""
"","image-button-response","71","96999","0.0-71.0","null","stimuli/images_hvm10/im5.png","","","null","5","7","0"
"","html-button-response","72","98240","0.0-72.0","1239","","","","1","","",""
"","html-keyboard-response","73","99241","0.0-73.0","null","<div style=""font-size:60px;"">+</div>","null","","","","",""
"","image-button-response","74","99744","0.0-74.0","null","stimuli/images_hvm10/im117.png","","","null","117","1","5"
"","html-button-response","75","100570","0.0-75.0","825.0999999642372","","","","1","","",""
"","html-keyboard-response","76","101571","0.0-76.0","null","<div style=""font-size:60px;"">+</div>","null","","","","",""
"","image-button-response","77","102073","0.0-77.0","null","stimuli/images_hvm10/im89.png","","","null","89","4","8"
"","html-button-response","78","102874","0.0-78.0","800.5","","","","0","","",""
"","html-keyboard-response","79","103875","0.0-79.0","null","<div style=""font-size:60px;"">+</div>","null","","","","",""
"","image-button-response","80","104377","0.0-80.0","null","stimuli/images_hvm10/im68.png","","","null","68","3","8"
"","html-button-response","81","105070","0.0-81.0","690.6000000238419","","","","0","","",""
"","html-keyboard-response","82","106070","0.0-82.0","null","<div style=""font-size:60px;"">+</div>","null","","","","",""
"","image-button-response","83","106581","0.0-83.0","null","stimuli/images_hvm10/im158.png","","","null","158","7","0"
"","html-button-response","84","108422","0.0-84.0","1839.6000000238419","","","","0","","",""
"","html-keyboard-response","85","109426","0.0-85.0","null","<div style=""font-size:60px;"">+</div>","null","","","","",""
"","image-button-response","86","109928","0.0-86.0","null","stimuli/images_hvm10/im35.png","","","null","35","3","1"
"","html-button-response","87","111197","0.0-87.0","1267","","","","1","","",""
"","html-keyboard-response","88","112198","0.0-88.0","null","<div style=""font-size:60px;"">+</div>","null","","","","",""
"","image-button-response","89","112706","0.0-89.0","null","stimuli/images_hvm10/im136.png","","","null","136","4","6"
"","html-button-response","90","113806","0.0-90.0","1099.0999999642372","","","","1","","",""
"","html-keyboard-response","91","114819","0.0-91.0","null","<div style=""font-size:60px;"">+</div>","null","","","","",""
"","image-button-response","92","115321","0.0-92.0","null","stimuli/images_hvm10/im168.png","","","null","168","8","1"
"","html-button-response","93","115897","0.0-93.0","574.3000000119209","","","","0","","",""
"","html-keyboard-response","94","116911","0.0-94.0","null","<div style=""font-size:60px;"">+</div>","null","","","","",""
"","image-button-response","95","117412","0.0-95.0","null","stimuli/images_hvm10/im42.png","","","null","42","2","6"
"","html-button-response","96","118384","0.0-96.0","970.8000000119209","","","","0","","",""
"","html-keyboard-response","97","119388","0.0-97.0","null","<div style=""font-size:60px;"">+</div>","null","","","","",""
"","image-button-response","98","119903","0.0-98.0","null","stimuli/images_hvm10/im151.png","","","null","151","7","0"
"","html-button-response","99","120415","0.0-99.0","510.0999999642372","","","","0","","",""
"","html-keyboard-response","100","121418","0.0-100.0","null","<div style=""font-size:60px;"">+</div>","null","","","","",""
"","image-button-response","101","121933","0.0-101.0","null","stimuli/images_hvm10/im143.png","","","null","143","7","1"
"","html-button-response","102","123061","0.0-102.0","1125.699999988079","","","","0","","",""
"","html-keyboard-response","103","124064","0.0-103.0","null","<div style=""font-size:60px;"">+</div>","null","","","","",""
"","image-button-response","104","124565","0.0-104.0","null","stimuli/images_hvm10/im53.png","","","null","53","2","3"
"","html-button-response","105","125095","0.0-105.0","528.3999999761581","","","","0","","",""
"","html-keyboard-response","106","126106","0.0-106.0","null","<div style=""font-size:60px;"">+</div>","null","","","","",""
"","image-button-response","107","126622","0.0-107.0","null","stimuli/images_hvm10/im17.png","","","null","17","5","0"
"","html-button-response","108","127229","0.0-108.0","606.5","","","","1","","",""
"","html-keyboard-response","109","128230","0.0-109.0","null","<div style=""font-size:60px;"">+</div>","null","","","","",""
"","image-button-response","110","128744","0.0-110.0","null","stimuli/images_hvm10/im154.png","","","null","154","7","1"
"","html-button-response","111","129183","0.0-111.0","437.39999997615814","","","","0","","",""
"","html-keyboard-response","112","130194","0.0-112.0","null","<div style=""font-size:60px;"">+</div>","null","","","","",""
"","image-button-response","113","130706","0.0-113.0","null","stimuli/images_hvm10/im12.png","","","null","12","0","7"
"","html-button-response","114","131284","0.0-114.0","576.6999999880791","","","","0","","",""
"","html-keyboard-response","115","132296","0.0-115.0","null","<div style=""font-size:60px;"">+</div>","null","","","","",""
"","image-button-response","116","132810","0.0-116.0","null","stimuli/images_hvm10/im60.png","","","null","60","7","3"
"","html-button-response","117","133588","0.0-117.0","776.1999999880791","","","","1","","",""
"","html-keyboard-response","118","134590","0.0-118.0","null","<div style=""font-size:60px;"">+</div>","null","","","","",""
"","image-button-response","119","135091","0.0-119.0","null","stimuli/images_hvm10/im57.png","","","null","57","2","0"
"","html-button-response","120","135464","0.0-120.0","372.2000000476837","","","","0","","",""
"","html-keyboard-response","121","136473","0.0-121.0","null","<div style=""font-size:60px;"">+</div>","null","","","","",""
"","image-button-response","122","136987","0.0-122.0","null","stimuli/images_hvm10/im2.png","","","null","2","5","0"
"","html-button-response","123","137405","0.0-123.0","416.30000001192093","","","","1","","",""
"","html-keyboard-response","124","138409","0.0-124.0","null","<div style=""font-size:60px;"">+</div>","null","","","","",""
"","image-button-response","125","138912","0.0-125.0","null","stimuli/images_hvm10/im155.png","","","null","155","7","5"
"","html-button-response","126","139300","0.0-126.0","387.5","","","","0","","",""
"","html-keyboard-response","127","140307","0.0-127.0","null","<div style=""font-size:60px;"">+</div>","null","","","","",""
"","image-button-response","128","140824","0.0-128.0","null","stimuli/images_hvm10/im22.png","","","null","22","3","1"
"","html-button-response","129","141348","0.0-129.0","522.3000000119209","","","","1","","",""
"","html-keyboard-response","130","142349","0.0-130.0","null","<div style=""font-size:60px;"">+</div>","null","","","","",""
"","image-button-response","131","142859","0.0-131.0","null","stimuli/images_hvm10/im14.png","","","null","14","0","6"
"","html-button-response","132","143327","0.0-132.0","466.69999998807907","","","","0","","",""
"","html-keyboard-response","133","144338","0.0-133.0","null","<div style=""font-size:60px;"">+</div>","null","","","","",""
"","image-button-response","134","144852","0.0-134.0","null","stimuli/images_hvm10/im72.png","","","null","72","3","8"
"","html-button-response","135","145433","0.0-135.0","579.8000000119209","","","","0","","",""
"","html-keyboard-response","136","146443","0.0-136.0","null","<div style=""font-size:60px;"">+</div>","null","","","","",""
"","image-button-response","137","146958","0.0-137.0","null","stimuli/images_hvm10/im105.png","","","null","105","9","5"
"","html-button-response","138","147607","0.0-138.0","647.8000000119209","","","","1","","",""
"","html-keyboard-response","139","148611","0.0-139.0","null","<div style=""font-size:60px;"">+</div>","null","","","","",""
"","image-button-response","140","149125","0.0-140.0","null","stimuli/images_hvm10/im113.png","","","null","113","5","3"
"","html-button-response","141","149703","0.0-141.0","576.2999999523163","","","","0","","",""
"","html-keyboard-response","142","150716","0.0-142.0","null","<div style=""font-size:60px;"">+</div>","null","","","","",""
"","image-button-response","143","151219","0.0-143.0","null","stimuli/images_hvm10/im4.png","","","null","4","3","0"
"","html-button-response","144","151733","0.0-144.0","512.5999999642372","","","","1","","",""
"","html-keyboard-response","145","152744","0.0-145.0","null","<div style=""font-size:60px;"">+</div>","null","","","","",""
"","image-button-response","146","153257","0.0-146.0","null","stimuli/images_hvm10/im188.png","","","null","188","0","9"
"","html-button-response","147","153900","0.0-147.0","643","","","","1","","",""
"","html-keyboard-response","148","154910","0.0-148.0","null","<div style=""font-size:60px;"">+</div>","null","","","","",""
"","image-button-response","149","155423","0.0-149.0","null","stimuli/images_hvm10/im69.png","","","null","69","6","3"
"","html-button-response","150","156204","0.0-150.0","780.3999999761581","","","","1","","",""
"","html-keyboard-response","151","157206","0.0-151.0","null","<div style=""font-size:60px;"">+</div>","null","","","","",""
"","image-button-response","152","157718","0.0-152.0","null","stimuli/images_hvm10/im84.png","","","null","84","2","4"
"","html-button-response","153","159146","0.0-153.0","1427.3999999761581","","","","0","","",""
"","html-keyboard-response","154","160150","0.0-154.0","null","<div style=""font-size:60px;"">+</div>","null","","","","",""
"","image-button-response","155","160663","0.0-155.0","null","stimuli/images_hvm10/im123.png","","","null","123","6","0"
"","html-button-response","156","161258","0.0-156.0","594.5","","","","0","","",""
"","html-keyboard-response","157","162263","0.0-157.0","null","<div style=""font-size:60px;"">+</div>","null","","","","",""
"","image-button-response","158","162764","0.0-158.0","null","stimuli/images_hvm10/im16.png","","","null","16","0","3"
"","html-button-response","159","163366","0.0-159.0","599.8000000119209","","","","0","","",""
"","html-keyboard-response","160","164375","0.0-160.0","null","<div style=""font-size:60px;"">+</div>","null","","","","",""
"","image-button-response","161","164877","0.0-161.0","null","stimuli/images_hvm10/im116.png","","","null","116","5","0"
"","html-button-response","162","165333","0.0-162.0","454.19999998807907","","","","0","","",""
"","html-keyboard-response","163","166335","0.0-163.0","null","<div style=""font-size:60px;"">+</div>","null","","","","",""
"","image-button-response","164","166850","0.0-164.0","null","stimuli/images_hvm10/im26.png","","","null","26","1","7"
"","html-button-response","165","168482","0.0-165.0","1630.5","","","","1","","",""
"","html-keyboard-response","166","169484","0.0-166.0","null","<div style=""font-size:60px;"">+</div>","null","","","","",""
"","image-button-response","167","169985","0.0-167.0","null","stimuli/images_hvm10/im46.png","","","null","46","2","1"
"","html-button-response","168","170475","0.0-168.0","490","","","","0","","",""
"","html-keyboard-response","169","171488","0.0-169.0","null","<div style=""font-size:60px;"">+</div>","null","","","","",""
"","image-button-response","170","172003","0.0-170.0","null","stimuli/images_hvm10/im31.png","","","null","31","4","1"
"","html-button-response","171","173044","0.0-171.0","1039.300000011921","","","","1","","",""
"","html-keyboard-response","172","174058","0.0-172.0","null","<div style=""font-size:60px;"">+</div>","null","","","","",""
"","image-button-response","173","174572","0.0-173.0","null","stimuli/images_hvm10/im32.png","","","null","32","7","1"
"","html-button-response","174","175104","0.0-174.0","531.8000000119209","","","","1","","",""
"","html-keyboard-response","175","176113","0.0-175.0","null","<div style=""font-size:60px;"">+</div>","null","","","","",""
"","image-button-response","176","176625","0.0-176.0","null","stimuli/images_hvm10/im194.png","","","null","194","9","2"
"","html-button-response","177","177269","0.0-177.0","642.3000000119209","","","","0","","",""
"","html-keyboard-response","178","178284","0.0-178.0","null","<div style=""font-size:60px;"">+</div>","null","","","","",""
"","image-button-response","179","178786","0.0-179.0","null","stimuli/images_hvm10/im192.png","","","null","192","6","9"
"","html-button-response","180","179372","0.0-180.0","585.8999999761581","","","","1","","",""
"","html-keyboard-response","181","180376","0.0-181.0","null","<div style=""font-size:60px;"">+</div>","null","","","","",""
"","image-button-response","182","180893","0.0-182.0","null","stimuli/images_hvm10/im13.png","","","null","13","4","0"
"","html-button-response","183","181530","0.0-183.0","635","","","","1","","",""
"","html-keyboard-response","184","182543","0.0-184.0","null","<div style=""font-size:60px;"">+</div>","null","","","","",""
"","image-button-response","185","183046","0.0-185.0","null","stimuli/images_hvm10/im58.png","","","null","58","8","2"
"","html-button-response","186","184802","0.0-186.0","1754.9000000357628","","","","0","","",""
"","html-keyboard-response","187","185803","0.0-187.0","null","<div style=""font-size:60px;"">+</div>","null","","","","",""
"","image-button-response","188","186304","0.0-188.0","null","stimuli/images_hvm10/im96.png","","","null","96","8","4"
"","html-button-response","189","186952","0.0-189.0","646.9000000357628","","","","0","","",""
"","html-keyboard-response","190","187954","0.0-190.0","null","<div style=""font-size:60px;"">+</div>","null","","","","",""
"","image-button-response","191","188457","0.0-191.0","null","stimuli/images_hvm10/im80.png","","","null","80","2","4"
"","html-button-response","192","189362","0.0-192.0","903.1000000238419","","","","0","","",""
"","html-keyboard-response","193","190363","0.0-193.0","null","<div style=""font-size:60px;"">+</div>","null","","","","",""
"","image-button-response","194","190864","0.0-194.0","null","stimuli/images_hvm10/im74.png","","","null","74","3","1"
"","html-button-response","195","191508","0.0-195.0","643.5","","","","0","","",""
"","html-keyboard-response","196","192522","0.0-196.0","null","<div style=""font-size:60px;"">+</div>","null","","","","",""
"","image-button-response","197","193037","0.0-197.0","null","stimuli/images_hvm10/im191.png","","","null","191","9","7"
"","html-button-response","198","193605","0.0-198.0","567.9000000357628","","","","0","","",""
"","html-keyboard-response","199","194613","0.0-199.0","null","<div style=""font-size:60px;"">+</div>","null","","","","",""
"","image-button-response","200","195128","0.0-200.0","null","stimuli/images_hvm10/im49.png","","","null","49","2","6"
"","html-button-response","201","196827","0.0-201.0","1697.699999988079","","","","0","","",""
"","html-keyboard-response","202","197829","0.0-202.0","null","<div style=""font-size:60px;"">+</div>","null","","","","",""
"","image-button-response","203","198331","0.0-203.0","null","stimuli/images_hvm10/im55.png","","","null","55","2","8"
"","html-button-response","204","199378","0.0-204.0","1044.8999999761581","","","","0","","",""
"","html-keyboard-response","205","200388","0.0-205.0","null","<div style=""font-size:60px;"">+</div>","null","","","","",""
"","image-button-response","206","200903","0.0-206.0","null","stimuli/images_hvm10/im7.png","","","null","7","0","9"
"","html-button-response","207","201463","0.0-207.0","558.3999999761581","","","","0","","",""
"","html-keyboard-response","208","202475","0.0-208.0","null","<div style=""font-size:60px;"">+</div>","null","","","","",""
"","image-button-response","209","202989","0.0-209.0","null","stimuli/images_hvm10/im98.png","","","null","98","4","1"
"","html-button-response","210","203774","0.0-210.0","784.8000000119209","","","","0","","",""
"","html-keyboard-response","211","204779","0.0-211.0","null","<div style=""font-size:60px;"">+</div>","null","","","","",""
"","image-button-response","212","205282","0.0-212.0","null","stimuli/images_hvm10/im197.png","","","null","197","1","9"
"","html-button-response","213","205801","0.0-213.0","517.5999999642372","","","","1","","",""
"","html-keyboard-response","214","206807","0.0-214.0","null","<div style=""font-size:60px;"">+</div>","null","","","","",""
"","image-button-response","215","207320","0.0-215.0","null","stimuli/images_hvm10/im67.png","","","null","67","5","3"
"","html-button-response","216","207964","0.0-216.0","643","","","","1","","",""
"","html-keyboard-response","217","208974","0.0-217.0","null","<div style=""font-size:60px;"">+</div>","null","","","","",""
"","image-button-response","218","209489","0.0-218.0","null","stimuli/images_hvm10/im51.png","","","null","51","2","0"
"","html-button-response","219","210056","0.0-219.0","564.8000000119209","","","","0","","",""
"","html-keyboard-response","220","211066","0.0-220.0","null","<div style=""font-size:60px;"">+</div>","null","","","","",""
"","image-button-response","221","211580","0.0-221.0","null","stimuli/images_hvm10/im78.png","","","null","78","3","6"
"","html-button-response","222","213164","0.0-222.0","1583.8999999761581","","","","1","","",""
"","html-keyboard-response","223","214172","0.0-223.0","null","<div style=""font-size:60px;"">+</div>","null","","","","",""
"","image-button-response","224","214674","0.0-224.0","null","stimuli/images_hvm10/im181.png","","","null","181","9","5"
"","html-button-response","225","215387","0.0-225.0","711.6999999880791","","","","0","","",""
"","html-keyboard-response","226","216398","0.0-226.0","null","<div style=""font-size:60px;"">+</div>","null","","","","",""
"","image-button-response","227","216902","0.0-227.0","null","stimuli/images_hvm10/im149.png","","","null","149","7","4"
"","html-button-response","228","217595","0.0-228.0","691.5","","","","0","","",""
"","html-keyboard-response","229","218599","0.0-229.0","null","<div style=""font-size:60px;"">+</div>","null","","","","",""
"","image-button-response","230","219101","0.0-230.0","null","stimuli/images_hvm10/im161.png","","","null","161","3","8"
"","html-button-response","231","219671","0.0-231.0","567.8000000119209","","","","1","","",""
"","html-keyboard-response","232","220686","0.0-232.0","null","<div style=""font-size:60px;"">+</div>","null","","","","",""
"","image-button-response","233","221188","0.0-233.0","null","stimuli/images_hvm10/im195.png","","","null","195","9","3"
"","html-button-response","234","221681","0.0-234.0","491.5","","","","0","","",""
"","html-keyboard-response","235","222683","0.0-235.0","null","<div style=""font-size:60px;"">+</div>","null","","","","",""
"","image-button-response","236","223186","0.0-236.0","null","stimuli/images_hvm10/im38.png","","","null","38","1","7"
"","html-button-response","237","223844","0.0-237.0","656.5","","","","0","","",""
"","html-keyboard-response","238","224850","0.0-238.0","null","<div style=""font-size:60px;"">+</div>","null","","","","",""
"","image-button-response","239","225352","0.0-239.0","null","stimuli/images_hvm10/im34.png","","","null","34","1","6"
"","html-button-response","240","225965","0.0-240.0","611.0999999642372","","","","0","","",""
"","html-keyboard-response","241","226969","0.0-241.0","null","<div style=""font-size:60px;"">+</div>","null","","","","",""
"","image-button-response","242","227484","0.0-242.0","null","stimuli/images_hvm10/im43.png","","","null","43","2","3"
"","html-button-response","243","229840","0.0-243.0","2354.300000011921","","","","1","","",""
"","html-keyboard-response","244","230841","0.0-244.0","null","<div style=""font-size:60px;"">+</div>","null","","","","",""
"","image-button-response","245","231356","0.0-245.0","null","stimuli/images_hvm10/im176.png","","","null","176","8","0"
"","html-button-response","246","237621","0.0-246.0","6263.600000023842","","","","0","","",""
"","html-keyboard-response","247","238623","0.0-247.0","null","<div style=""font-size:60px;"">+</div>","null","","","","",""
"","image-button-response","248","239125","0.0-248.0","null","stimuli/images_hvm10/im45.png","","","null","45","2","8"
"","html-button-response","249","240110","0.0-249.0","983","","","","0","","",""
"","html-keyboard-response","250","241112","0.0-250.0","null","<div style=""font-size:60px;"">+</div>","null","","","","",""
"","image-button-response","251","241614","0.0-251.0","null","stimuli/images_hvm10/im163.png","","","null","163","8","7"
"","html-button-response","252","242353","0.0-252.0","738.5","","","","0","","",""
"","html-keyboard-response","253","243362","0.0-253.0","null","<div style=""font-size:60px;"">+</div>","null","","","","",""
"","image-button-response","254","243878","0.0-254.0","null","stimuli/images_hvm10/im92.png","","","null","92","4","2"
"","html-button-response","255","244817","0.0-255.0","936.8000000119209","","","","0","","",""
"","html-keyboard-response","256","245823","0.0-256.0","null","<div style=""font-size:60px;"">+</div>","null","","","","",""
"","image-button-response","257","246340","0.0-257.0","null","stimuli/images_hvm10/im138.png","","","null","138","6","7"
"","html-button-response","258","246948","0.0-258.0","606.6000000238419","","","","0","","",""
"","html-keyboard-response","259","247958","0.0-259.0","null","<div style=""font-size:60px;"">+</div>","null","","","","",""
"","image-button-response","260","248474","0.0-260.0","null","stimuli/images_hvm10/im124.png","","","null","124","3","6"
"","html-button-response","261","249381","0.0-261.0","905.3000000119209","","","","1","","",""
"","html-keyboard-response","262","250391","0.0-262.0","null","<div style=""font-size:60px;"">+</div>","null","","","","",""
"","image-button-response","263","250893","0.0-263.0","null","stimuli/images_hvm10/im118.png","","","null","118","3","5"
"","html-button-response","264","254260","0.0-264.0","3366.199999988079","","","","0","","",""
"","html-keyboard-response","265","255260","0.0-265.0","null","<div style=""font-size:60px;"">+</div>","null","","","","",""
"","image-button-response","266","255763","0.0-266.0","null","stimuli/images_hvm10/im21.png","","","null","21","9","1"
"","html-button-response","267","256701","0.0-267.0","938.1999999880791","","","","0","","",""
"","html-keyboard-response","268","257703","0.0-268.0","null","<div style=""font-size:60px;"">+</div>","null","","","","",""
"","image-button-response","269","258204","0.0-269.0","null","stimuli/images_hvm10/im59.png","","","null","59","1","2"
"","html-button-response","270","258730","0.0-270.0","523.9000000357628","","","","1","","",""
"","html-keyboard-response","271","259732","0.0-271.0","null","<div style=""font-size:60px;"">+</div>","null","","","","",""
"","image-button-response","272","260246","0.0-272.0","null","stimuli/images_hvm10/im54.png","","","null","54","2","5"
"","html-button-response","273","260963","0.0-273.0","714.8999999761581","","","","0","","",""
"","html-keyboard-response","274","261965","0.0-274.0","null","<div style=""font-size:60px;"">+</div>","null","","","","",""
"","image-button-response","275","262475","0.0-275.0","null","stimuli/images_hvm10/im106.png","","","null","106","1","5"
"","html-button-response","276","263007","0.0-276.0","530.6000000238419","","","","1","","",""
"","html-keyboard-response","277","264021","0.0-277.0","null","<div style=""font-size:60px;"">+</div>","null","","","","",""
"","image-button-response","278","264524","0.0-278.0","null","stimuli/images_hvm10/im3.png","","","null","3","0","1"
"","html-button-response","279","264893","0.0-279.0","368.5","","","","0","","",""
"","html-keyboard-response","280","265894","0.0-280.0","null","<div style=""font-size:60px;"">+</div>","null","","","","",""
"","image-button-response","281","266403","0.0-281.0","null","stimuli/images_hvm10/im162.png","","","null","162","3","8"
"","html-button-response","282","266848","0.0-282.0","443.69999998807907","","","","1","","",""
"","html-keyboard-response","283","267855","0.0-283.0","null","<div style=""font-size:60px;"">+</div>","null","","","","",""
"","image-button-response","284","268358","0.0-284.0","null","stimuli/images_hvm10/im141.png","","","null","141","9","7"
"","html-button-response","285","269061","0.0-285.0","701.1000000238419","","","","1","","",""
"","html-keyboard-response","286","270063","0.0-286.0","null","<div style=""font-size:60px;"">+</div>","null","","","","",""
"","image-button-response","287","270574","0.0-287.0","null","stimuli/images_hvm10/im70.png","","","null","70","8","3"
"","html-button-response","288","271304","0.0-288.0","728.8999999761581","","","","1","","",""
"","html-keyboard-response","289","272319","0.0-289.0","null","<div style=""font-size:60px;"">+</div>","null","","","","",""
"","image-button-response","290","272821","0.0-290.0","null","stimuli/images_hvm10/im40.png","","","null","40","0","2"
"","html-button-response","291","274848","0.0-291.0","2025.1000000238419","","","","1","","",""
"","html-keyboard-response","292","275849","0.0-292.0","null","<div style=""font-size:60px;"">+</div>","null","","","","",""
"","image-button-response","293","276352","0.0-293.0","null","stimuli/images_hvm10/im129.png","","","null","129","6","3"
"","html-button-response","294","277544","0.0-294.0","1192.300000011921","","","","1","","",""
"","html-keyboard-response","295","278549","0.0-295.0","null","<div style=""font-size:60px;"">+</div>","null","","","","",""
"","image-button-response","296","279051","0.0-296.0","null","stimuli/images_hvm10/im104.png","","","null","104","5","7"
"","html-button-response","297","280414","0.0-297.0","1362.5","","","","1","","",""
"","html-keyboard-response","298","281416","0.0-298.0","null","<div style=""font-size:60px;"">+</div>","null","","","","",""
"","image-button-response","299","281918","0.0-299.0","null","stimuli/images_hvm10/im147.png","","","null","147","2","7"
"","html-button-response","300","282392","0.0-300.0","472.9000000357628","","","","1","","",""
"","html-keyboard-response","301","283395","0.0-301.0","null","<div style=""font-size:60px;"">+</div>","null","","","","",""
"","image-button-response","302","283896","0.0-302.0","null","stimuli/images_hvm10/im189.png","","","null","189","8","9"
"","html-button-response","303","284445","0.0-303.0","547.5","","","","1","","",""
"","html-keyboard-response","304","285456","0.0-304.0","null","<div style=""font-size:60px;"">+</div>","null","","","","",""
"","image-button-response","305","285971","0.0-305.0","null","stimuli/images_hvm10/im166.png","","","null","166","7","8"
"","html-button-response","306","287081","0.0-306.0","1108.300000011921","","","","0","","",""
"","html-keyboard-response","307","288097","0.0-307.0","null","<div style=""font-size:60px;"">+</div>","null","","","","",""
"","image-button-response","308","288599","0.0-308.0","null","stimuli/images_hvm10/im37.png","","","null","37","1","3"
"","html-button-response","309","289389","0.0-309.0","787.5","","","","1","","",""
"","html-keyboard-response","310","290390","0.0-310.0","null","<div style=""font-size:60px;"">+</div>","null","","","","",""
"","image-button-response","311","290891","0.0-311.0","null","stimuli/images_hvm10/im82.png","","","null","82","2","4"
"","html-button-response","312","291767","0.0-312.0","874.0999999642372","","","","0","","",""
"","html-keyboard-response","313","292768","0.0-313.0","null","<div style=""font-size:60px;"">+</div>","null","","","","",""
"","image-button-response","314","293270","0.0-314.0","null","stimuli/images_hvm10/im52.png","","","null","52","2","6"
"","html-button-response","315","294110","0.0-315.0","838.3000000119209","","","","0","","",""
"","html-keyboard-response","316","295115","0.0-316.0","null","<div style=""font-size:60px;"">+</div>","null","","","","",""
"","image-button-response","317","295629","0.0-317.0","null","stimuli/images_hvm10/im137.png","","","null","137","4","6"
"","html-button-response","318","304840","0.0-318.0","9210","","","","0","","",""
"","html-keyboard-response","319","305847","0.0-319.0","null","<div style=""font-size:60px;"">+</div>","null","","","","",""
"","image-button-response","320","306350","0.0-320.0","null","stimuli/images_hvm10/im125.png","","","null","125","6","2"
"","html-button-response","321","307120","0.0-321.0","768.1000000238419","","","","0","","",""
"","html-keyboard-response","322","308127","0.0-322.0","null","<div style=""font-size:60px;"">+</div>","null","","","","",""
"","image-button-response","323","308630","0.0-323.0","null","stimuli/images_hvm10/im132.png","","","null","132","1","6"
"","html-button-response","324","309441","0.0-324.0","811","","","","1","","",""
"","html-keyboard-response","325","310442","0.0-325.0","null","<div style=""font-size:60px;"">+</div>","null","","","","",""
"","image-button-response","326","310959","0.0-326.0","null","stimuli/images_hvm10/im87.png","","","null","87","4","0"
"","html-button-response","327","311816","0.0-327.0","855.0999999642372","","","","0","","",""
"","html-keyboard-response","328","312817","0.0-328.0","null","<div style=""font-size:60px;"">+</div>","null","","","","",""
"","image-button-response","329","313319","0.0-329.0","null","stimuli/images_hvm10/im173.png","","","null","173","8","1"
"","html-button-response","330","313956","0.0-330.0","637","","","","0","","",""
"","html-keyboard-response","331","314958","0.0-331.0","null","<div style=""font-size:60px;"">+</div>","null","","","","",""
"","image-button-response","332","315473","0.0-332.0","null","stimuli/images_hvm10/im103.png","","","null","103","5","2"
"","html-button-response","333","316200","0.0-333.0","725.4000000357628","","","","0","","",""
"","html-keyboard-response","334","317202","0.0-334.0","null","<div style=""font-size:60px;"">+</div>","null","","","","",""
"","image-button-response","335","317705","0.0-335.0","null","stimuli/images_hvm10/im27.png","","","null","27","6","1"
"","html-button-response","336","318174","0.0-336.0","467.9000000357628","","","","1","","",""
"","html-keyboard-response","337","319176","0.0-337.0","null","<div style=""font-size:60px;"">+</div>","null","","","","",""
"","image-button-response","338","319679","0.0-338.0","null","stimuli/images_hvm10/im196.png","","","null","196","9","4"
"","html-button-response","339","320139","0.0-339.0","457.89999997615814","","","","0","","",""
"","html-keyboard-response","340","321154","0.0-340.0","null","<div style=""font-size:60px;"">+</div>","null","","","","",""
"","image-button-response","341","321670","0.0-341.0","null","stimuli/images_hvm10/im112.png","","","null","112","6","5"
"","html-button-response","342","322633","0.0-342.0","962.3999999761581","","","","0","","",""
"","html-keyboard-response","343","323634","0.0-343.0","null","<div style=""font-size:60px;"">+</div>","null","","","","",""
"","image-button-response","344","324135","0.0-344.0","null","stimuli/images_hvm10/im71.png","","","null","71","7","3"
"","html-button-response","345","324627","0.0-345.0","491.89999997615814","","","","0","","",""
"","html-keyboard-response","346","325642","0.0-346.0","null","<div style=""font-size:60px;"">+</div>","null","","","","",""
"","image-button-response","347","326145","0.0-347.0","null","stimuli/images_hvm10/im1.png","","","null","1","7","0"
"","html-button-response","348","326565","0.0-348.0","419.69999998807907","","","","1","","",""
"","html-keyboard-response","349","327566","0.0-349.0","null","<div style=""font-size:60px;"">+</div>","null","","","","",""
"","image-button-response","350","328075","0.0-350.0","null","stimuli/images_hvm10/im85.png","","","null","85","4","0"
"","html-button-response","351","330267","0.0-351.0","2189.899999976158","","","","1","","",""
"","html-keyboard-response","352","331278","0.0-352.0","null","<div style=""font-size:60px;"">+</div>","null","","","","",""
"","image-button-response","353","331780","0.0-353.0","null","stimuli/images_hvm10/im91.png","","","null","91","4","5"
"","html-button-response","354","332844","0.0-354.0","1063.7999999523163","","","","1","","",""
"","html-keyboard-response","355","333859","0.0-355.0","null","<div style=""font-size:60px;"">+</div>","null","","","","",""
"","image-button-response","356","334373","0.0-356.0","null","stimuli/images_hvm10/im41.png","","","null","41","3","2"
"","html-button-response","357","334915","0.0-357.0","540.2000000476837","","","","1","","",""
"","html-keyboard-response","358","335918","0.0-358.0","null","<div style=""font-size:60px;"">+</div>","null","","","","",""
"","image-button-response","359","336434","0.0-359.0","null","stimuli/images_hvm10/im140.png","","","null","140","1","7"
"","html-button-response","360","336894","0.0-360.0","458.69999998807907","","","","1","","",""
"","html-keyboard-response","361","337910","0.0-361.0","null","<div style=""font-size:60px;"">+</div>","null","","","","",""
"","image-button-response","362","338427","0.0-362.0","null","stimuli/images_hvm10/im178.png","","","null","178","2","8"
"","html-button-response","363","339464","0.0-363.0","1035.6000000238419","","","","0","","",""
"","html-keyboard-response","364","340470","0.0-364.0","null","<div style=""font-size:60px;"">+</div>","null","","","","",""
"","image-button-response","365","340972","0.0-365.0","null","stimuli/images_hvm10/im95.png","","","null","95","0","4"
"","html-button-response","366","342105","0.0-366.0","1131.699999988079","","","","0","","",""
"","html-keyboard-response","367","343112","0.0-367.0","null","<div style=""font-size:60px;"">+</div>","null","","","","",""
"","image-button-response","368","343624","0.0-368.0","null","stimuli/images_hvm10/im152.png","","","null","152","2","7"
"","html-button-response","369","344849","0.0-369.0","1224.8999999761581","","","","1","","",""
"","html-keyboard-response","370","345850","0.0-370.0","null","<div style=""font-size:60px;"">+</div>","null","","","","",""
"","image-button-response","371","346351","0.0-371.0","null","stimuli/images_hvm10/im6.png","","","null","6","8","0"
"","html-button-response","372","346886","0.0-372.0","534.3000000119209","","","","1","","",""
"","html-keyboard-response","373","347901","0.0-373.0","null","<div style=""font-size:60px;"">+</div>","null","","","","",""
"","image-button-response","374","348405","0.0-374.0","null","stimuli/images_hvm10/im177.png","","","null","177","8","9"
"","html-button-response","375","349136","0.0-375.0","728.7999999523163","","","","0","","",""
"","html-keyboard-response","376","350137","0.0-376.0","null","<div style=""font-size:60px;"">+</div>","null","","","","",""
"","image-button-response","377","350640","0.0-377.0","null","stimuli/images_hvm10/im24.png","","","null","24","1","4"
"","html-button-response","378","351453","0.0-378.0","812.6000000238419","","","","0","","",""
"","html-keyboard-response","379","352458","0.0-379.0","null","<div style=""font-size:60px;"">+</div>","null","","","","",""
"","image-button-response","380","352961","0.0-380.0","null","stimuli/images_hvm10/im15.png","","","null","15","0","9"
"","html-button-response","381","353932","0.0-381.0","969.1999999880791","","","","1","","",""
"","html-keyboard-response","382","354933","0.0-382.0","null","<div style=""font-size:60px;"">+</div>","null","","","","",""
"","image-button-response","383","355439","0.0-383.0","null","stimuli/images_hvm10/im86.png","","","null","86","4","6"
"","html-button-response","384","356274","0.0-384.0","833.6999999880791","","","","0","","",""
"","html-keyboard-response","385","357279","0.0-385.0","null","<div style=""font-size:60px;"">+</div>","null","","","","",""
"","image-button-response","386","357793","0.0-386.0","null","stimuli/images_hvm10/im157.png","","","null","157","7","9"
"","html-button-response","387","358388","0.0-387.0","593.3000000119209","","","","0","","",""
"","html-keyboard-response","388","359401","0.0-388.0","null","<div style=""font-size:60px;"">+</div>","null","","","","",""
"","image-button-response","389","359903","0.0-389.0","null","stimuli/images_hvm10/im11.png","","","null","11","0","5"
"","html-button-response","390","360399","0.0-390.0","495.19999998807907","","","","0","","",""
"","html-keyboard-response","391","361412","0.0-391.0","null","<div style=""font-size:60px;"">+</div>","null","","","","",""
"","image-button-response","392","361926","0.0-392.0","null","stimuli/images_hvm10/im77.png","","","null","77","3","5"
"","html-button-response","393","362680","0.0-393.0","753.5","","","","1","","",""
"","html-keyboard-response","394","363693","0.0-394.0","null","<div style=""font-size:60px;"">+</div>","null","","","","",""
"","image-button-response","395","364205","0.0-395.0","null","stimuli/images_hvm10/im0.png","","","null","0","0","5"
"","html-button-response","396","364763","0.0-396.0","555.5999999642372","","","","0","","",""
"","html-keyboard-response","397","365765","0.0-397.0","null","<div style=""font-size:60px;"">+</div>","null","","","","",""
"","image-button-response","398","366268","0.0-398.0","null","stimuli/images_hvm10/im110.png","","","null","110","8","5"
"","html-button-response","399","366629","0.0-399.0","359.0999999642372","","","","1","","",""
"","html-keyboard-response","400","367641","0.0-400.0","null","<div style=""font-size:60px;"">+</div>","null","","","","",""
"","image-button-response","401","368142","0.0-401.0","null","stimuli/images_hvm10/im182.png","","","null","182","9","3"
"","html-button-response","402","368518","0.0-402.0","375.4000000357628","","","","0","","",""
"","html-keyboard-response","403","369527","0.0-403.0","null","<div style=""font-size:60px;"">+</div>","null","","","","",""
"","image-button-response","404","370029","0.0-404.0","null","stimuli/images_hvm10/im172.png","","","null","172","8","4"
"","html-button-response","405","370866","0.0-405.0","835.6999999880791","","","","0","","",""
"","html-keyboard-response","406","371871","0.0-406.0","null","<div style=""font-size:60px;"">+</div>","null","","","","",""
"","image-button-response","407","372385","0.0-407.0","null","stimuli/images_hvm10/im28.png","","","null","28","1","3"
"","html-button-response","408","372871","0.0-408.0","483.2000000476837","","","","0","","",""
"","html-keyboard-response","409","373879","0.0-409.0","null","<div style=""font-size:60px;"">+</div>","null","","","","",""
"","image-button-response","410","374381","0.0-410.0","null","stimuli/images_hvm10/im63.png","","","null","63","4","3"
"","html-button-response","411","374869","0.0-411.0","486.9000000357628","","","","1","","",""
"","html-keyboard-response","412","375869","0.0-412.0","null","<div style=""font-size:60px;"">+</div>","null","","","","",""
"","image-button-response","413","376371","0.0-413.0","null","stimuli/images_hvm10/im36.png","","","null","36","3","1"
"","html-button-response","414","376961","0.0-414.0","589.0999999642372","","","","1","","",""
"","html-keyboard-response","415","377966","0.0-415.0","null","<div style=""font-size:60px;"">+</div>","null","","","","",""
"","image-button-response","416","378482","0.0-416.0","null","stimuli/images_hvm10/im126.png","","","null","126","6","3"
"","html-button-response","417","379550","0.0-417.0","1066.5","","","","0","","",""
"","html-keyboard-response","418","380554","0.0-418.0","null","<div style=""font-size:60px;"">+</div>","null","","","","",""
"","image-button-response","419","381056","0.0-419.0","null","stimuli/images_hvm10/im29.png","","","null","29","5","1"
"","html-button-response","420","381588","0.0-420.0","529.6000000238419","","","","1","","",""
"","html-keyboard-response","421","382593","0.0-421.0","null","<div style=""font-size:60px;"">+</div>","null","","","","",""
"","image-button-response","422","383095","0.0-422.0","null","stimuli/images_hvm10/im81.png","","","null","81","6","4"
"","html-button-response","423","384060","0.0-423.0","963.7000000476837","","","","1","","",""
"","html-keyboard-response","424","385062","0.0-424.0","null","<div style=""font-size:60px;"">+</div>","null","","","","",""
"","image-button-response","425","385565","0.0-425.0","null","stimuli/images_hvm10/im145.png","","","null","145","7","3"
"","html-button-response","426","386200","0.0-426.0","634.1000000238419","","","","0","","",""
"","html-keyboard-response","427","387201","0.0-427.0","null","<div style=""font-size:60px;"">+</div>","null","","","","",""
"","image-button-response","428","387703","0.0-428.0","null","stimuli/images_hvm10/im102.png","","","null","102","4","5"
"","html-button-response","429","388551","0.0-429.0","845.1999999880791","","","","0","","",""
"","html-keyboard-response","430","389554","0.0-430.0","null","<div style=""font-size:60px;"">+</div>","null","","","","",""
"","image-button-response","431","390068","0.0-431.0","null","stimuli/images_hvm10/im122.png","","","null","122","9","6"
"","html-button-response","432","390965","0.0-432.0","895.6000000238419","","","","1","","",""
"","html-keyboard-response","433","391966","0.0-433.0","null","<div style=""font-size:60px;"">+</div>","null","","","","",""
"","image-button-response","434","392469","0.0-434.0","null","stimuli/images_hvm10/im10.png","","","null","10","7","0"
"","html-button-response","435","398894","0.0-435.0","6424.699999988079","","","","1","","",""
"","html-keyboard-response","436","399896","0.0-436.0","null","<div style=""font-size:60px;"">+</div>","null","","","","",""
"","image-button-response","437","400404","0.0-437.0","null","stimuli/images_hvm10/im19.png","","","null","19","9","0"
"","html-button-response","438","400786","0.0-438.0","379.4000000357628","","","","1","","",""
"","html-keyboard-response","439","401790","0.0-439.0","null","<div style=""font-size:60px;"">+</div>","null","","","","",""
"","image-button-response","440","402292","0.0-440.0","null","stimuli/images_hvm10/im62.png","","","null","62","3","9"
"","html-button-response","441","403283","0.0-441.0","989.5","","","","0","","",""
"","html-keyboard-response","442","404284","0.0-442.0","null","<div style=""font-size:60px;"">+</div>","null","","","","",""
"","image-button-response","443","404798","0.0-443.0","null","stimuli/images_hvm10/im128.png","","","null","128","6","0"
"","html-button-response","444","406081","0.0-444.0","1281.800000011921","","","","1","","",""
"","html-keyboard-response","445","407083","0.0-445.0","null","<div style=""font-size:60px;"">+</div>","null","","","","",""
"","image-button-response","446","407585","0.0-446.0","null","stimuli/images_hvm10/im73.png","","","null","73","3","0"
"","html-button-response","447","408097","0.0-447.0","512.1999999880791","","","","0","","",""
"","html-keyboard-response","448","409099","0.0-448.0","null","<div style=""font-size:60px;"">+</div>","null","","","","",""
"","image-button-response","449","409601","0.0-449.0","null","stimuli/images_hvm10/im97.png","","","null","97","4","0"
"","html-button-response","450","410284","0.0-450.0","681.9000000357628","","","","0","","",""
"","html-keyboard-response","451","411285","0.0-451.0","null","<div style=""font-size:60px;"">+</div>","null","","","","",""
"","image-button-response","452","411788","0.0-452.0","null","stimuli/images_hvm10/im190.png","","","null","190","9","4"
"","html-button-response","453","412366","0.0-453.0","577.1999999880791","","","","0","","",""
"","html-keyboard-response","454","413373","0.0-454.0","null","<div style=""font-size:60px;"">+</div>","null","","","","",""
"","image-button-response","455","413874","0.0-455.0","null","stimuli/images_hvm10/im20.png","","","null","20","4","1"
"","html-button-response","456","414295","0.0-456.0","420.39999997615814","","","","1","","",""
"","html-keyboard-response","457","415306","0.0-457.0","null","<div style=""font-size:60px;"">+</div>","null","","","","",""
"","image-button-response","458","415820","0.0-458.0","null","stimuli/images_hvm10/im160.png","","","null","160","4","8"
"","html-button-response","459","425578","0.0-459.0","9757.300000011921","","","","1","","",""
"","html-keyboard-response","460","426592","0.0-460.0","null","<div style=""font-size:60px;"">+</div>","null","","","","",""
"","image-button-response","461","427105","0.0-461.0","null","stimuli/images_hvm10/im48.png","","","null","48","8","2"
"","html-button-response","462","430042","0.0-462.0","2935.399999976158","","","","0","","",""
"","html-keyboard-response","463","431056","0.0-463.0","null","<div style=""font-size:60px;"">+</div>","null","","","","",""
"","image-button-response","464","431569","0.0-464.0","null","stimuli/images_hvm10/im156.png","","","null","156","7","9"
"","html-button-response","465","442720","0.0-465.0","11148.899999976158","","","","0","","",""
"","html-keyboard-response","466","443723","0.0-466.0","null","<div style=""font-size:60px;"">+</div>","null","","","","",""
"","image-button-response","467","444225","0.0-467.0","null","stimuli/images_hvm10/im108.png","","","null","108","5","7"
"","html-button-response","468","447422","0.0-468.0","3195.7000000476837","","","","1","","",""
"","html-keyboard-response","469","448436","0.0-469.0","null","<div style=""font-size:60px;"">+</div>","null","","","","",""
"","image-button-response","470","448937","0.0-470.0","null","stimuli/images_hvm10/im76.png","","","null","76","7","3"
"","html-button-response","471","452313","0.0-471.0","3374.400000035763","","","","0","","",""
"","html-keyboard-response","472","453317","0.0-472.0","null","<div style=""font-size:60px;"">+</div>","null","","","","",""
"","image-button-response","473","453819","0.0-473.0","null","stimuli/images_hvm10/im164.png","","","null","164","1","8"
"","html-button-response","474","456332","0.0-474.0","2511","","","","1","","",""
"","html-keyboard-response","475","457340","0.0-475.0","null","<div style=""font-size:60px;"">+</div>","null","","","","",""
"","image-button-response","476","457856","0.0-476.0","null","stimuli/images_hvm10/im75.png","","","null","75","3","1"
"","html-button-response","477","460255","0.0-477.0","2397.300000011921","","","","0","","",""
"","html-keyboard-response","478","461271","0.0-478.0","null","<div style=""font-size:60px;"">+</div>","null","","","","",""
"","image-button-response","479","461787","0.0-479.0","null","stimuli/images_hvm10/im133.png","","","null","133","1","6"
"","html-button-response","480","463459","0.0-480.0","1671.300000011921","","","","1","","",""
"","html-keyboard-response","481","464468","0.0-481.0","null","<div style=""font-size:60px;"">+</div>","null","","","","",""
"","image-button-response","482","464969","0.0-482.0","null","stimuli/images_hvm10/im83.png","","","null","83","4","5"
"","html-button-response","483","466887","0.0-483.0","1915.5999999642372","","","","0","","",""
"","html-keyboard-response","484","467901","0.0-484.0","null","<div style=""font-size:60px;"">+</div>","null","","","","",""
"","image-button-response","485","468404","0.0-485.0","null","stimuli/images_hvm10/im167.png","","","null","167","8","3"
"","html-button-response","486","470219","0.0-486.0","1814.1000000238419","","","","0","","",""
"","html-keyboard-response","487","471225","0.0-487.0","null","<div style=""font-size:60px;"">+</div>","null","","","","",""
"","image-button-response","488","471727","0.0-488.0","null","stimuli/images_hvm10/im101.png","","","null","101","5","8"
"","html-button-response","489","472798","0.0-489.0","1070.1000000238419","","","","0","","",""
"","html-keyboard-response","490","473803","0.0-490.0","null","<div style=""font-size:60px;"">+</div>","null","","","","",""
"","image-button-response","491","474317","0.0-491.0","null","stimuli/images_hvm10/im44.png","","","null","44","2","6"
"","html-button-response","492","475131","0.0-492.0","812.3000000119209","","","","0","","",""
"","html-keyboard-response","493","476143","0.0-493.0","null","<div style=""font-size:60px;"">+</div>","null","","","","",""
"","image-button-response","494","476659","0.0-494.0","null","stimuli/images_hvm10/im8.png","","","null","8","2","0"
"","html-button-response","495","478518","0.0-495.0","1858.3999999761581","","","","1","","",""
"","html-keyboard-response","496","479531","0.0-496.0","null","<div style=""font-size:60px;"">+</div>","null","","","","",""
"","image-button-response","497","480047","0.0-497.0","null","stimuli/images_hvm10/im93.png","","","null","93","4","0"
"","html-button-response","498","482111","0.0-498.0","2063.100000023842","","","","0","","",""
"","html-keyboard-response","499","483115","0.0-499.0","null","<div style=""font-size:60px;"">+</div>","null","","","","",""
"","image-button-response","500","483616","0.0-500.0","null","stimuli/images_hvm10/im33.png","","","null","33","3","1"
"","html-button-response","501","491992","0.0-501.0","8375.5","","","","1","","",""
"","html-keyboard-response","502","493004","0.0-502.0","null","<div style=""font-size:60px;"">+</div>","null","","","","",""
"","image-button-response","503","493505","0.0-503.0","null","stimuli/images_hvm10/im30.png","","","null","30","1","8"
"","html-button-response","504","495625","0.0-504.0","2118.800000011921","","","","0","","",""
"","html-keyboard-response","505","496625","0.0-505.0","null","<div style=""font-size:60px;"">+</div>","null","","","","",""
"","image-button-response","506","497139","0.0-506.0","null","stimuli/images_hvm10/im180.png","","","null","180","6","9"
"","html-button-response","507","498582","0.0-507.0","1442","","","","1","","",""
"","html-keyboard-response","508","499592","0.0-508.0","null","<div style=""font-size:60px;"">+</div>","null","","","","",""
"","image-button-response","509","500107","0.0-509.0","null","stimuli/images_hvm10/im183.png","","","null","183","4","9"
"","html-button-response","510","502732","0.0-510.0","2623.7000000476837","","","","1","","",""
"","html-keyboard-response","511","503737","0.0-511.0","null","<div style=""font-size:60px;"">+</div>","null","","","","",""
"","image-button-response","512","504239","0.0-512.0","null","stimuli/images_hvm10/im99.png","","","null","99","4","6"
"","html-button-response","513","505249","0.0-513.0","1008.1999999880791","","","","0","","",""
"","html-keyboard-response","514","506262","0.0-514.0","null","<div style=""font-size:60px;"">+</div>","null","","","","",""
"","image-button-response","515","506775","0.0-515.0","null","stimuli/images_hvm10/im18.png","","","null","18","0","9"
"","html-button-response","516","508269","0.0-516.0","1493.5","","","","0","","",""
"","html-keyboard-response","517","509285","0.0-517.0","null","<div style=""font-size:60px;"">+</div>","null","","","","",""
"","image-button-response","518","509787","0.0-518.0","null","stimuli/images_hvm10/im56.png","","","null","56","2","6"
"","html-button-response","519","511267","0.0-519.0","1478.3999999761581","","","","0","","",""
"","html-keyboard-response","520","512280","0.0-520.0","null","<div style=""font-size:60px;"">+</div>","null","","","","",""
"","image-button-response","521","512793","0.0-521.0","null","stimuli/images_hvm10/im193.png","","","null","193","6","9"
"","html-button-response","522","514066","0.0-522.0","1271.6000000238419","","","","1","","",""
"","html-keyboard-response","523","515069","0.0-523.0","null","<div style=""font-size:60px;"">+</div>","null","","","","",""
"","image-button-response","524","515570","0.0-524.0","null","stimuli/images_hvm10/im66.png","","","null","66","3","0"
"","html-button-response","525","516591","0.0-525.0","1019.5999999642372","","","","0","","",""
"","html-keyboard-response","526","517593","0.0-526.0","null","<div style=""font-size:60px;"">+</div>","null","","","","",""
"","image-button-response","527","518109","0.0-527.0","null","stimuli/images_hvm10/im88.png","","","null","88","4","2"
"","html-button-response","528","520100","0.0-528.0","1989.199999988079","","","","0","","",""
"","html-keyboard-response","529","521103","0.0-529.0","null","<div style=""font-size:60px;"">+</div>","null","","","","",""
"","image-button-response","530","521605","0.0-530.0","null","stimuli/images_hvm10/im159.png","","","null","159","7","3"
"","html-button-response","531","523203","0.0-531.0","1597.800000011921","","","","0","","",""
"","html-keyboard-response","532","524206","0.0-532.0","null","<div style=""font-size:60px;"">+</div>","null","","","","",""
"","image-button-response","533","524718","0.0-533.0","null","stimuli/images_hvm10/im94.png","","","null","94","4","7"
"","html-button-response","534","525965","0.0-534.0","1245.5","","","","0","","",""
"","html-keyboard-response","535","526978","0.0-535.0","null","<div style=""font-size:60px;"">+</div>","null","","","","",""
"","image-button-response","536","527490","0.0-536.0","null","stimuli/images_hvm10/im109.png","","","null","109","0","5"
"","html-button-response","537","529739","0.0-537.0","2248","","","","1","","",""
"","html-keyboard-response","538","530748","0.0-538.0","null","<div style=""font-size:60px;"">+</div>","null","","","","",""
"","image-button-response","539","531250","0.0-539.0","null","stimuli/images_hvm10/im61.png","","","null","61","4","3"
"","html-button-response","540","532400","0.0-540.0","1148.5999999642372","","","","1","","",""
"","html-keyboard-response","541","533411","0.0-541.0","null","<div style=""font-size:60px;"">+</div>","null","","","","",""
"","image-button-response","542","533926","0.0-542.0","null","stimuli/images_hvm10/im169.png","","","null","169","5","8"
"","html-button-response","543","535465","0.0-543.0","1537.1000000238419","","","","1","","",""
"","html-keyboard-response","544","536479","0.0-544.0","null","<div style=""font-size:60px;"">+</div>","null","","","","",""
"","image-button-response","545","536993","0.0-545.0","null","stimuli/images_hvm10/im153.png","","","null","153","7","5"
"","html-button-response","546","538741","0.0-546.0","1746.6000000238419","","","","0","","",""
"","html-keyboard-response","547","539750","0.0-547.0","null","<div style=""font-size:60px;"">+</div>","null","","","","",""
"","image-button-response","548","540254","0.0-548.0","null","stimuli/images_hvm10/im131.png","","","null","131","6","5"
"","html-button-response","549","541477","0.0-549.0","1221","","","","0","","",""
"","html-keyboard-response","550","542485","0.0-550.0","null","<div style=""font-size:60px;"">+</div>","null","","","","",""
"","image-button-response","551","543002","0.0-551.0","null","stimuli/images_hvm10/im171.png","","","null","171","8","1"
"","html-button-response","552","545335","0.0-552.0","2331.300000011921","","","","1","","",""
"","html-keyboard-response","553","546337","0.0-553.0","null","<div style=""font-size:60px;"">+</div>","null","","","","",""
"","image-button-response","554","546851","0.0-554.0","null","stimuli/images_hvm10/im186.png","","","null","186","9","8"
"","html-button-response","555","548337","0.0-555.0","1484.800000011921","","","","0","","",""
"","html-keyboard-response","556","549342","0.0-556.0","null","<div style=""font-size:60px;"">+</div>","null","","","","",""
"","image-button-response","557","549845","0.0-557.0","null","stimuli/images_hvm10/im135.png","","","null","135","4","6"
"","html-button-response","558","551976","0.0-558.0","2130.100000023842","","","","1","","",""
"","html-keyboard-response","559","552987","0.0-559.0","null","<div style=""font-size:60px;"">+</div>","null","","","","",""
"","image-button-response","560","553500","0.0-560.0","null","stimuli/images_hvm10/im100.png","","","null","100","8","5"
"","html-button-response","561","554485","0.0-561.0","984.3999999761581","","","","1","","",""
"","html-keyboard-response","562","555494","0.0-562.0","null","<div style=""font-size:60px;"">+</div>","null","","","","",""
"","image-button-response","563","555998","0.0-563.0","null","stimuli/images_hvm10/im130.png","","","null","130","6","1"
"","html-button-response","564","557948","0.0-564.0","1947.8999999761581","","","","0","","",""
"","html-keyboard-response","565","558954","0.0-565.0","null","<div style=""font-size:60px;"">+</div>","null","","","","",""
"","image-button-response","566","559468","0.0-566.0","null","stimuli/images_hvm10/im170.png","","","null","170","8","1"
"","html-button-response","567","562381","0.0-567.0","2910.300000011921","","","","0","","",""
"","html-keyboard-response","568","563387","0.0-568.0","null","<div style=""font-size:60px;"">+</div>","null","","","","",""
"","image-button-response","569","563900","0.0-569.0","null","stimuli/images_hvm10/im120.png","","","null","120","6","3"
"","html-button-response","570","566741","0.0-570.0","2838.900000035763","","","","0","","",""
"","html-keyboard-response","571","567753","0.0-571.0","null","<div style=""font-size:60px;"">+</div>","null","","","","",""
"","image-button-response","572","568255","0.0-572.0","null","stimuli/images_hvm10/im184.png","","","null","184","9","3"
"","html-button-response","573","569321","0.0-573.0","1065.4000000357628","","","","0","","",""
"","html-keyboard-response","574","570323","0.0-574.0","null","<div style=""font-size:60px;"">+</div>","null","","","","",""
"","image-button-response","575","570837","0.0-575.0","null","stimuli/images_hvm10/im175.png","","","null","175","8","2"
"","html-button-response","576","572190","0.0-576.0","1352.5999999642372","","","","0","","",""
"","html-keyboard-response","577","573207","0.0-577.0","null","<div style=""font-size:60px;"">+</div>","null","","","","",""
"","image-button-response","578","573722","0.0-578.0","null","stimuli/images_hvm10/im121.png","","","null","121","6","9"
"","html-button-response","579","576055","0.0-579.0","2332.400000035763","","","","1","","",""
"","html-keyboard-response","580","577058","0.0-580.0","null","<div style=""font-size:60px;"">+</div>","null","","","","",""
"","image-button-response","581","577560","0.0-581.0","null","stimuli/images_hvm10/im139.png","","","null","139","6","8"
"","html-button-response","582","581849","0.0-582.0","4286.799999952316","","","","1","","",""
"","html-keyboard-response","583","582857","0.0-583.0","null","<div style=""font-size:60px;"">+</div>","null","","","","",""
"","image-button-response","584","583359","0.0-584.0","null","stimuli/images_hvm10/im174.png","","","null","174","0","8"
"","html-button-response","585","587219","0.0-585.0","3858.099999964237","","","","0","","",""
"","html-keyboard-response","586","588223","0.0-586.0","null","<div style=""font-size:60px;"">+</div>","null","","","","",""
"","image-button-response","587","588739","0.0-587.0","null","stimuli/images_hvm10/im142.png","","","null","142","3","7"
"","html-button-response","588","591268","0.0-588.0","2527.900000035763","","","","1","","",""
"","html-keyboard-response","589","592274","0.0-589.0","null","<div style=""font-size:60px;"">+</div>","null","","","","",""
"","image-button-response","590","592777","0.0-590.0","null","stimuli/images_hvm10/im179.png","","","null","179","6","8"
"","html-button-response","591","595019","0.0-591.0","2240.800000011921","","","","0","","",""
"","html-keyboard-response","592","596031","0.0-592.0","null","<div style=""font-size:60px;"">+</div>","null","","","","",""
"","image-button-response","593","596532","0.0-593.0","null","stimuli/images_hvm10/im111.png","","","null","111","9","5"
"","html-button-response","594","600047","0.0-594.0","3513.900000035763","","","","1","","",""
"","html-keyboard-response","595","601057","0.0-595.0","null","<div style=""font-size:60px;"">+</div>","null","","","","",""
"","image-button-response","596","601571","0.0-596.0","null","stimuli/images_hvm10/im39.png","","","null","39","7","1"
"","html-button-response","597","602903","0.0-597.0","1330.300000011921","","","","1","","",""
"","html-keyboard-response","598","603917","0.0-598.0","null","<div style=""font-size:60px;"">+</div>","null","","","","",""
"","image-button-response","599","604430","0.0-599.0","null","stimuli/images_hvm10/im185.png","","","null","185","9","2"
"","html-button-response","600","607068","0.0-600.0","2637.399999976158","","","","1","","",""
