"success","trial_type","trial_index","time_elapsed","internal_node_id","rt","stimulus","key_press","button_pressed","images","left_choice","right_choice"
"true","fullscreen","0","2589","0.0-0.0","","","","","","",""
"","html-keyboard-response","1","3829","0.0-1.0","1238","Welcome to the experiment. Press any key to begin.","32","","","",""
"","html-keyboard-response","2","5325","0.0-2.0","1495","<p>Please fixate at the center '+' sign which will appear once you press any key. Then, <strong> an image </strong> will be shown in the center of the screen.</p><p>The image will contain an object.This will be followed by a <strong> Choice Screen </strong> containing two objects. Please choose the option <strong>[Click on the object]</strong> that you think was present in the image<p>Press any key to begin.</p>","32","","","",""
"","html-keyboard-response","3","8326","0.0-3.0","null","<div style=""font-size:60px;"">+</div>","null","","","",""
"","image-button-response","4","8828","0.0-4.0","null","../stimuli/images_hvm10/im192.png","","null","192","9","5"
"","html-button-response","5","11995","0.0-5.0","3164.999999999998","","","0","","",""
"","html-keyboard-response","6","12997","0.0-6.0","null","<div style=""font-size:60px;"">+</div>","null","","","",""
"","image-button-response","7","13498","0.0-7.0","null","../stimuli/images_hvm10/im54.png","","null","54","2","0"
"","html-button-response","8","14092","0.0-8.0","591.9999999999982","","","1","","",""
"","html-keyboard-response","9","15093","0.0-9.0","null","<div style=""font-size:60px;"">+</div>","null","","","",""
"","image-button-response","10","15594","0.0-10.0","null","../stimuli/images_hvm10/im148.png","","null","148","4","7"
"","html-button-response","11","16201","0.0-11.0","606","","","0","","",""
"","html-keyboard-response","12","17202","0.0-12.0","null","<div style=""font-size:60px;"">+</div>","null","","","",""
"","image-button-response","13","17703","0.0-13.0","null","../stimuli/images_hvm10/im194.png","","null","194","7","9"
"","html-button-response","14","18292","0.0-14.0","588","","","0","","",""
"","html-keyboard-response","15","19293","0.0-15.0","null","<div style=""font-size:60px;"">+</div>","null","","","",""
"","image-button-response","16","19794","0.0-16.0","null","../stimuli/images_hvm10/im163.png","","null","163","5","8"
"","html-button-response","17","20395","0.0-17.0","600","","","1","","",""
"","html-keyboard-response","18","21397","0.0-18.0","null","<div style=""font-size:60px;"">+</div>","null","","","",""
"","image-button-response","19","21898","0.0-19.0","null","../stimuli/images_hvm10/im178.png","","null","178","9","8"
"","html-button-response","20","22457","0.0-20.0","557.9999999999964","","","0","","",""
"","html-keyboard-response","21","23458","0.0-21.0","null","<div style=""font-size:60px;"">+</div>","null","","","",""
"","image-button-response","22","23959","0.0-22.0","null","../stimuli/images_hvm10/im65.png","","null","65","7","3"
"","html-button-response","23","24521","0.0-23.0","560.9999999999964","","","1","","",""
"","html-keyboard-response","24","25523","0.0-24.0","null","<div style=""font-size:60px;"">+</div>","null","","","",""
"","image-button-response","25","26026","0.0-25.0","null","../stimuli/images_hvm10/im125.png","","null","125","6","4"
"","html-button-response","26","26757","0.0-26.0","729.9999999999964","","","0","","",""
"","html-keyboard-response","27","27759","0.0-27.0","null","<div style=""font-size:60px;"">+</div>","null","","","",""
"","image-button-response","28","28260","0.0-28.0","null","../stimuli/images_hvm10/im195.png","","null","195","2","9"
"","html-button-response","29","28889","0.0-29.0","628","","","1","","",""
"","html-keyboard-response","30","29890","0.0-30.0","null","<div style=""font-size:60px;"">+</div>","null","","","",""
"","image-button-response","31","30391","0.0-31.0","null","../stimuli/images_hvm10/im26.png","","null","26","1","5"
"","html-button-response","32","31312","0.0-32.0","920.0000000000036","","","0","","",""
"","html-keyboard-response","33","32314","0.0-33.0","null","<div style=""font-size:60px;"">+</div>","null","","","",""
"","image-button-response","34","32815","0.0-34.0","null","../stimuli/images_hvm10/im196.png","","null","196","2","9"
"","html-button-response","35","33350","0.0-35.0","534","","","0","","",""
"","html-keyboard-response","36","34351","0.0-36.0","null","<div style=""font-size:60px;"">+</div>","null","","","",""
"","image-button-response","37","34852","0.0-37.0","null","../stimuli/images_hvm10/im135.png","","null","135","9","6"
"","html-button-response","38","35511","0.0-38.0","658","","","1","","",""
"","html-keyboard-response","39","36513","0.0-39.0","null","<div style=""font-size:60px;"">+</div>","null","","","",""
"","image-button-response","40","37015","0.0-40.0","null","../stimuli/images_hvm10/im126.png","","null","126","9","6"
"","html-button-response","41","37626","0.0-41.0","610","","","1","","",""
"","html-keyboard-response","42","38627","0.0-42.0","null","<div style=""font-size:60px;"">+</div>","null","","","",""
"","image-button-response","43","39129","0.0-43.0","null","../stimuli/images_hvm10/im127.png","","null","127","6","1"
"","html-button-response","44","40045","0.0-44.0","915.0000000000073","","","0","","",""
"","html-keyboard-response","45","41047","0.0-45.0","null","<div style=""font-size:60px;"">+</div>","null","","","",""
"","image-button-response","46","41549","0.0-46.0","null","../stimuli/images_hvm10/im174.png","","null","174","3","8"
"","html-button-response","47","42717","0.0-47.0","1168","","","1","","",""
"","html-keyboard-response","48","43718","0.0-48.0","null","<div style=""font-size:60px;"">+</div>","null","","","",""
"","image-button-response","49","44220","0.0-49.0","null","../stimuli/images_hvm10/im198.png","","null","198","1","9"
"","html-button-response","50","44673","0.0-50.0","452","","","1","","",""
"","html-keyboard-response","51","45673","0.0-51.0","null","<div style=""font-size:60px;"">+</div>","null","","","",""
"","image-button-response","52","46176","0.0-52.0","null","../stimuli/images_hvm10/im133.png","","null","133","6","9"
"","html-button-response","53","46765","0.0-53.0","588.9999999999927","","","1","","",""
"","html-keyboard-response","54","47766","0.0-54.0","null","<div style=""font-size:60px;"">+</div>","null","","","",""
"","image-button-response","55","48268","0.0-55.0","null","../stimuli/images_hvm10/im183.png","","null","183","7","9"
"","html-button-response","56","49016","0.0-56.0","747","","","0","","",""
"","html-keyboard-response","57","50017","0.0-57.0","null","<div style=""font-size:60px;"">+</div>","null","","","",""
"","image-button-response","58","50518","0.0-58.0","null","../stimuli/images_hvm10/im197.png","","null","197","9","1"
"","html-button-response","59","51226","0.0-59.0","708","","","1","","",""
"","html-keyboard-response","60","52227","0.0-60.0","null","<div style=""font-size:60px;"">+</div>","null","","","",""
"","image-button-response","61","52729","0.0-61.0","null","../stimuli/images_hvm10/im193.png","","null","193","6","9"
"","html-button-response","62","53620","0.0-62.0","891","","","0","","",""
"","html-keyboard-response","63","54621","0.0-63.0","null","<div style=""font-size:60px;"">+</div>","null","","","",""
"","image-button-response","64","55123","0.0-64.0","null","../stimuli/images_hvm10/im70.png","","null","70","3","2"
"","html-button-response","65","55916","0.0-65.0","791.9999999999927","","","1","","",""
"","html-keyboard-response","66","56918","0.0-66.0","null","<div style=""font-size:60px;"">+</div>","null","","","",""
"","image-button-response","67","57419","0.0-67.0","null","../stimuli/images_hvm10/im34.png","","null","34","1","3"
"","html-button-response","68","57928","0.0-68.0","506.9999999999927","","","1","","",""
"","html-keyboard-response","69","58929","0.0-69.0","null","<div style=""font-size:60px;"">+</div>","null","","","",""
"","image-button-response","70","59430","0.0-70.0","null","../stimuli/images_hvm10/im155.png","","null","155","9","7"
"","html-button-response","71","60012","0.0-71.0","582","","","0","","",""
"","html-keyboard-response","72","61014","0.0-72.0","null","<div style=""font-size:60px;"">+</div>","null","","","",""
"","image-button-response","73","61515","0.0-73.0","null","../stimuli/images_hvm10/im9.png","","null","9","0","5"
"","html-button-response","74","62301","0.0-74.0","784","","","1","","",""
"","html-keyboard-response","75","63302","0.0-75.0","null","<div style=""font-size:60px;"">+</div>","null","","","",""
"","image-button-response","76","63803","0.0-76.0","null","../stimuli/images_hvm10/im88.png","","null","88","4","6"
"","html-button-response","77","64465","0.0-77.0","661.9999999999927","","","0","","",""
"","html-keyboard-response","78","65466","0.0-78.0","null","<div style=""font-size:60px;"">+</div>","null","","","",""
"","image-button-response","79","65968","0.0-79.0","null","../stimuli/images_hvm10/im138.png","","null","138","7","6"
"","html-button-response","80","66668","0.0-80.0","698","","","0","","",""
"","html-keyboard-response","81","67668","0.0-81.0","null","<div style=""font-size:60px;"">+</div>","null","","","",""
"","image-button-response","82","68170","0.0-82.0","null","../stimuli/images_hvm10/im12.png","","null","12","0","3"
"","html-button-response","83","68782","0.0-83.0","611","","","1","","",""
"","html-keyboard-response","84","69784","0.0-84.0","null","<div style=""font-size:60px;"">+</div>","null","","","",""
"","image-button-response","85","70285","0.0-85.0","null","../stimuli/images_hvm10/im75.png","","null","75","9","3"
"","html-button-response","86","70983","0.0-86.0","697","","","0","","",""
"","html-keyboard-response","87","71984","0.0-87.0","null","<div style=""font-size:60px;"">+</div>","null","","","",""
"","image-button-response","88","72485","0.0-88.0","null","../stimuli/images_hvm10/im171.png","","null","171","8","2"
"","html-button-response","89","73409","0.0-89.0","923","","","1","","",""
"","html-keyboard-response","90","74410","0.0-90.0","null","<div style=""font-size:60px;"">+</div>","null","","","",""
"","image-button-response","91","74911","0.0-91.0","null","../stimuli/images_hvm10/im172.png","","null","172","8","7"
"","html-button-response","92","75510","0.0-92.0","598","","","0","","",""
"","html-keyboard-response","93","76512","0.0-93.0","null","<div style=""font-size:60px;"">+</div>","null","","","",""
"","image-button-response","94","77014","0.0-94.0","null","../stimuli/images_hvm10/im170.png","","null","170","8","9"
"","html-button-response","95","77497","0.0-95.0","482","","","0","","",""
"","html-keyboard-response","96","78499","0.0-96.0","null","<div style=""font-size:60px;"">+</div>","null","","","",""
"","image-button-response","97","79000","0.0-97.0","null","../stimuli/images_hvm10/im129.png","","null","129","4","6"
"","html-button-response","98","79955","0.0-98.0","954.0000000000146","","","1","","",""
"","html-keyboard-response","99","80957","0.0-99.0","null","<div style=""font-size:60px;"">+</div>","null","","","",""
"","image-button-response","100","81458","0.0-100.0","null","../stimuli/images_hvm10/im142.png","","null","142","2","7"
"","html-button-response","101","82014","0.0-101.0","554","","","0","","",""
"","html-keyboard-response","102","83016","0.0-102.0","null","<div style=""font-size:60px;"">+</div>","null","","","",""
"","image-button-response","103","83518","0.0-103.0","null","../stimuli/images_hvm10/im86.png","","null","86","7","4"
"","html-button-response","104","84289","0.0-104.0","770","","","1","","",""
"","html-keyboard-response","105","85290","0.0-105.0","null","<div style=""font-size:60px;"">+</div>","null","","","",""
"","image-button-response","106","85791","0.0-106.0","null","../stimuli/images_hvm10/im182.png","","null","182","9","6"
"","html-button-response","107","86435","0.0-107.0","643","","","0","","",""
"","html-keyboard-response","108","87437","0.0-108.0","null","<div style=""font-size:60px;"">+</div>","null","","","",""
"","image-button-response","109","87939","0.0-109.0","null","../stimuli/images_hvm10/im157.png","","null","157","2","7"
"","html-button-response","110","88892","0.0-110.0","952","","","1","","",""
"","html-keyboard-response","111","89893","0.0-111.0","null","<div style=""font-size:60px;"">+</div>","null","","","",""
"","image-button-response","112","90394","0.0-112.0","null","../stimuli/images_hvm10/im156.png","","null","156","1","7"
"","html-button-response","113","90960","0.0-113.0","566.0000000000146","","","0","","",""
"","html-keyboard-response","114","91962","0.0-114.0","null","<div style=""font-size:60px;"">+</div>","null","","","",""
"","image-button-response","115","92464","0.0-115.0","null","../stimuli/images_hvm10/im143.png","","null","143","7","2"
"","html-button-response","116","93712","0.0-116.0","1246","","","1","","",""
"","html-keyboard-response","117","94714","0.0-117.0","null","<div style=""font-size:60px;"">+</div>","null","","","",""
"","image-button-response","118","95215","0.0-118.0","null","../stimuli/images_hvm10/im83.png","","null","83","4","1"
"","html-button-response","119","95898","0.0-119.0","680.9999999999854","","","0","","",""
"","html-keyboard-response","120","96899","0.0-120.0","null","<div style=""font-size:60px;"">+</div>","null","","","",""
"","image-button-response","121","97401","0.0-121.0","null","../stimuli/images_hvm10/im96.png","","null","96","1","4"
"","html-button-response","122","98366","0.0-122.0","964","","","1","","",""
"","html-keyboard-response","123","99367","0.0-123.0","null","<div style=""font-size:60px;"">+</div>","null","","","",""
"","image-button-response","124","99868","0.0-124.0","null","../stimuli/images_hvm10/im173.png","","null","173","8","7"
"","html-button-response","125","100880","0.0-125.0","1011","","","0","","",""
"","html-keyboard-response","126","101882","0.0-126.0","null","<div style=""font-size:60px;"">+</div>","null","","","",""
"","image-button-response","127","102383","0.0-127.0","null","../stimuli/images_hvm10/im20.png","","null","20","1","6"
"","html-button-response","128","102882","0.0-128.0","497","","","0","","",""
"","html-keyboard-response","129","103884","0.0-129.0","null","<div style=""font-size:60px;"">+</div>","null","","","",""
"","image-button-response","130","104385","0.0-130.0","null","../stimuli/images_hvm10/im132.png","","null","132","0","6"
"","html-button-response","131","105221","0.0-131.0","834","","","0","","",""
"","html-keyboard-response","132","106222","0.0-132.0","null","<div style=""font-size:60px;"">+</div>","null","","","",""
"","image-button-response","133","106724","0.0-133.0","null","../stimuli/images_hvm10/im177.png","","null","177","0","8"
"","html-button-response","134","107368","0.0-134.0","643","","","1","","",""
"","html-keyboard-response","135","108369","0.0-135.0","null","<div style=""font-size:60px;"">+</div>","null","","","",""
"","image-button-response","136","108871","0.0-136.0","null","../stimuli/images_hvm10/im153.png","","null","153","7","1"
"","html-button-response","137","110169","0.0-137.0","1296","","","1","","",""
"","html-keyboard-response","138","111171","0.0-138.0","null","<div style=""font-size:60px;"">+</div>","null","","","",""
"","image-button-response","139","111673","0.0-139.0","null","../stimuli/images_hvm10/im181.png","","null","181","9","7"
"","html-button-response","140","113893","0.0-140.0","2219","","","1","","",""
"","html-keyboard-response","141","114894","0.0-141.0","null","<div style=""font-size:60px;"">+</div>","null","","","",""
"","image-button-response","142","115396","0.0-142.0","null","../stimuli/images_hvm10/im43.png","","null","43","9","2"
"","html-button-response","143","115985","0.0-143.0","588","","","0","","",""
"","html-keyboard-response","144","116986","0.0-144.0","null","<div style=""font-size:60px;"">+</div>","null","","","",""
"","image-button-response","145","117488","0.0-145.0","null","../stimuli/images_hvm10/im175.png","","null","175","8","1"
"","html-button-response","146","118202","0.0-146.0","713","","","0","","",""
"","html-keyboard-response","147","119204","0.0-147.0","null","<div style=""font-size:60px;"">+</div>","null","","","",""
"","image-button-response","148","119705","0.0-148.0","null","../stimuli/images_hvm10/im0.png","","null","0","3","0"
"","html-button-response","149","120365","0.0-149.0","659.0000000000146","","","1","","",""
"","html-keyboard-response","150","121366","0.0-150.0","null","<div style=""font-size:60px;"">+</div>","null","","","",""
"","image-button-response","151","121867","0.0-151.0","null","../stimuli/images_hvm10/im180.png","","null","180","1","9"
"","html-button-response","152","122448","0.0-152.0","579.0000000000146","","","1","","",""
"","html-keyboard-response","153","123449","0.0-153.0","null","<div style=""font-size:60px;"">+</div>","null","","","",""
"","image-button-response","154","123951","0.0-154.0","null","../stimuli/images_hvm10/im168.png","","null","168","8","2"
"","html-button-response","155","124866","0.0-155.0","913","","","0","","",""
"","html-keyboard-response","156","125868","0.0-156.0","null","<div style=""font-size:60px;"">+</div>","null","","","",""
"","image-button-response","157","126369","0.0-157.0","null","../stimuli/images_hvm10/im169.png","","null","169","4","8"
"","html-button-response","158","127292","0.0-158.0","922","","","1","","",""
"","html-keyboard-response","159","128294","0.0-159.0","null","<div style=""font-size:60px;"">+</div>","null","","","",""
"","image-button-response","160","128795","0.0-160.0","null","../stimuli/images_hvm10/im22.png","","null","22","5","1"
"","html-button-response","161","129319","0.0-161.0","523","","","1","","",""
"","html-keyboard-response","162","130321","0.0-162.0","null","<div style=""font-size:60px;"">+</div>","null","","","",""
"","image-button-response","163","130823","0.0-163.0","null","../stimuli/images_hvm10/im64.png","","null","64","1","3"
"","html-button-response","164","131460","0.0-164.0","636","","","1","","",""
"","html-keyboard-response","165","132461","0.0-165.0","null","<div style=""font-size:60px;"">+</div>","null","","","",""
"","image-button-response","166","132963","0.0-166.0","null","../stimuli/images_hvm10/im104.png","","null","104","5","8"
"","html-button-response","167","133527","0.0-167.0","563","","","1","","",""
"","html-keyboard-response","168","134529","0.0-168.0","null","<div style=""font-size:60px;"">+</div>","null","","","",""
"","image-button-response","169","135030","0.0-169.0","null","../stimuli/images_hvm10/im112.png","","null","112","2","5"
"","html-button-response","170","135762","0.0-170.0","731","","","1","","",""
"","html-keyboard-response","171","136763","0.0-171.0","null","<div style=""font-size:60px;"">+</div>","null","","","",""
"","image-button-response","172","137264","0.0-172.0","null","../stimuli/images_hvm10/im57.png","","null","57","0","2"
"","html-button-response","173","138180","0.0-173.0","915","","","1","","",""
"","html-keyboard-response","174","139182","0.0-174.0","null","<div style=""font-size:60px;"">+</div>","null","","","",""
"","image-button-response","175","139683","0.0-175.0","null","../stimuli/images_hvm10/im66.png","","null","66","2","3"
"","html-button-response","176","140143","0.0-176.0","459.0000000000291","","","1","","",""
"","html-keyboard-response","177","141144","0.0-177.0","null","<div style=""font-size:60px;"">+</div>","null","","","",""
"","image-button-response","178","141645","0.0-178.0","null","../stimuli/images_hvm10/im33.png","","null","33","1","7"
"","html-button-response","179","142107","0.0-179.0","460","","","1","","",""
"","html-keyboard-response","180","143109","0.0-180.0","null","<div style=""font-size:60px;"">+</div>","null","","","",""
"","image-button-response","181","143611","0.0-181.0","null","../stimuli/images_hvm10/im89.png","","null","89","4","8"
"","html-button-response","182","144134","0.0-182.0","522","","","1","","",""
"","html-keyboard-response","183","145136","0.0-183.0","null","<div style=""font-size:60px;"">+</div>","null","","","",""
"","image-button-response","184","145637","0.0-184.0","null","../stimuli/images_hvm10/im87.png","","null","87","9","4"
"","html-button-response","185","146400","0.0-185.0","761","","","1","","",""
"","html-keyboard-response","186","147402","0.0-186.0","null","<div style=""font-size:60px;"">+</div>","null","","","",""
"","image-button-response","187","147904","0.0-187.0","null","../stimuli/images_hvm10/im84.png","","null","84","4","2"
"","html-button-response","188","148515","0.0-188.0","609.9999999999709","","","0","","",""
"","html-keyboard-response","189","149516","0.0-189.0","null","<div style=""font-size:60px;"">+</div>","null","","","",""
"","image-button-response","190","150017","0.0-190.0","null","../stimuli/images_hvm10/im134.png","","null","134","6","0"
"","html-button-response","191","151778","0.0-191.0","1760","","","0","","",""
"","html-keyboard-response","192","152780","0.0-192.0","null","<div style=""font-size:60px;"">+</div>","null","","","",""
"","image-button-response","193","153282","0.0-193.0","null","../stimuli/images_hvm10/im159.png","","null","159","7","5"
"","html-button-response","194","153858","0.0-194.0","574","","","0","","",""
"","html-keyboard-response","195","154860","0.0-195.0","null","<div style=""font-size:60px;"">+</div>","null","","","",""
"","image-button-response","196","155362","0.0-196.0","null","../stimuli/images_hvm10/im164.png","","null","164","7","8"
"","html-button-response","197","155945","0.0-197.0","582","","","0","","",""
"","html-keyboard-response","198","156946","0.0-198.0","null","<div style=""font-size:60px;"">+</div>","null","","","",""
"","image-button-response","199","157447","0.0-199.0","null","../stimuli/images_hvm10/im140.png","","null","140","9","7"
"","html-button-response","200","158193","0.0-200.0","744","","","1","","",""
"","html-keyboard-response","201","159194","0.0-201.0","null","<div style=""font-size:60px;"">+</div>","null","","","",""
"","image-button-response","202","159695","0.0-202.0","null","../stimuli/images_hvm10/im136.png","","null","136","6","4"
"","html-button-response","203","160275","0.0-203.0","578.9999999999709","","","1","","",""
"","html-keyboard-response","204","161277","0.0-204.0","null","<div style=""font-size:60px;"">+</div>","null","","","",""
"","image-button-response","205","161778","0.0-205.0","null","../stimuli/images_hvm10/im101.png","","null","101","5","6"
"","html-button-response","206","162327","0.0-206.0","548","","","1","","",""
"","html-keyboard-response","207","163329","0.0-207.0","null","<div style=""font-size:60px;"">+</div>","null","","","",""
"","image-button-response","208","163831","0.0-208.0","null","../stimuli/images_hvm10/im176.png","","null","176","5","8"
"","html-button-response","209","165280","0.0-209.0","1448","","","1","","",""
"","html-keyboard-response","210","166282","0.0-210.0","null","<div style=""font-size:60px;"">+</div>","null","","","",""
"","image-button-response","211","166783","0.0-211.0","null","../stimuli/images_hvm10/im137.png","","null","137","9","6"
"","html-button-response","212","167235","0.0-212.0","451","","","1","","",""
"","html-keyboard-response","213","168237","0.0-213.0","null","<div style=""font-size:60px;"">+</div>","null","","","",""
"","image-button-response","214","168738","0.0-214.0","null","../stimuli/images_hvm10/im149.png","","null","149","1","7"
"","html-button-response","215","169232","0.0-215.0","492","","","1","","",""
"","html-keyboard-response","216","170233","0.0-216.0","null","<div style=""font-size:60px;"">+</div>","null","","","",""
"","image-button-response","217","170735","0.0-217.0","null","../stimuli/images_hvm10/im82.png","","null","82","4","9"
"","html-button-response","218","171415","0.0-218.0","680","","","0","","",""
"","html-keyboard-response","219","172417","0.0-219.0","null","<div style=""font-size:60px;"">+</div>","null","","","",""
"","image-button-response","220","172919","0.0-220.0","null","../stimuli/images_hvm10/im58.png","","null","58","8","2"
"","html-button-response","221","173413","0.0-221.0","493","","","0","","",""
"","html-keyboard-response","222","174415","0.0-222.0","null","<div style=""font-size:60px;"">+</div>","null","","","",""
"","image-button-response","223","174918","0.0-223.0","null","../stimuli/images_hvm10/im154.png","","null","154","3","7"
"","html-button-response","224","175640","0.0-224.0","721","","","0","","",""
"","html-keyboard-response","225","176642","0.0-225.0","null","<div style=""font-size:60px;"">+</div>","null","","","",""
"","image-button-response","226","177143","0.0-226.0","null","../stimuli/images_hvm10/im188.png","","null","188","1","9"
"","html-button-response","227","177628","0.0-227.0","484","","","0","","",""
"","html-keyboard-response","228","178629","0.0-228.0","null","<div style=""font-size:60px;"">+</div>","null","","","",""
"","image-button-response","229","179132","0.0-229.0","null","../stimuli/images_hvm10/im152.png","","null","152","7","2"
"","html-button-response","230","179746","0.0-230.0","613","","","0","","",""
"","html-keyboard-response","231","180748","0.0-231.0","null","<div style=""font-size:60px;"">+</div>","null","","","",""
"","image-button-response","232","181249","0.0-232.0","null","../stimuli/images_hvm10/im63.png","","null","63","3","5"
"","html-button-response","233","181792","0.0-233.0","542","","","0","","",""
"","html-keyboard-response","234","182793","0.0-234.0","null","<div style=""font-size:60px;"">+</div>","null","","","",""
"","image-button-response","235","183295","0.0-235.0","null","../stimuli/images_hvm10/im128.png","","null","128","2","6"
"","html-button-response","236","187815","0.0-236.0","4519.000000000029","","","0","","",""
"","html-keyboard-response","237","188817","0.0-237.0","null","<div style=""font-size:60px;"">+</div>","null","","","",""
"","image-button-response","238","189319","0.0-238.0","null","../stimuli/images_hvm10/im32.png","","null","32","1","9"
"","html-button-response","239","189824","0.0-239.0","504","","","0","","",""
"","html-keyboard-response","240","190825","0.0-240.0","null","<div style=""font-size:60px;"">+</div>","null","","","",""
"","image-button-response","241","191326","0.0-241.0","null","../stimuli/images_hvm10/im98.png","","null","98","8","4"
"","html-button-response","242","192021","0.0-242.0","693","","","0","","",""
"","html-keyboard-response","243","193022","0.0-243.0","null","<div style=""font-size:60px;"">+</div>","null","","","",""
"","image-button-response","244","193523","0.0-244.0","null","../stimuli/images_hvm10/im191.png","","null","191","9","4"
"","html-button-response","245","194166","0.0-245.0","642","","","0","","",""
"","html-keyboard-response","246","195168","0.0-246.0","null","<div style=""font-size:60px;"">+</div>","null","","","",""
"","image-button-response","247","195670","0.0-247.0","null","../stimuli/images_hvm10/im2.png","","null","2","9","0"
"","html-button-response","248","195874","0.0-248.0","203","","","0","","",""
"","html-keyboard-response","249","196875","0.0-249.0","null","<div style=""font-size:60px;"">+</div>","null","","","",""
"","image-button-response","250","197377","0.0-250.0","null","../stimuli/images_hvm10/im106.png","","null","106","8","5"
"","html-button-response","251","198141","0.0-251.0","763","","","1","","",""
"","html-keyboard-response","252","199142","0.0-252.0","null","<div style=""font-size:60px;"">+</div>","null","","","",""
"","image-button-response","253","199643","0.0-253.0","null","../stimuli/images_hvm10/im158.png","","null","158","7","1"
"","html-button-response","254","200503","0.0-254.0","859","","","0","","",""
"","html-keyboard-response","255","201505","0.0-255.0","null","<div style=""font-size:60px;"">+</div>","null","","","",""
"","image-button-response","256","202006","0.0-256.0","null","../stimuli/images_hvm10/im50.png","","null","50","2","6"
"","html-button-response","257","202954","0.0-257.0","947","","","1","","",""
"","html-keyboard-response","258","203955","0.0-258.0","null","<div style=""font-size:60px;"">+</div>","null","","","",""
"","image-button-response","259","204457","0.0-259.0","null","../stimuli/images_hvm10/im123.png","","null","123","0","6"
"","html-button-response","260","205013","0.0-260.0","554.9999999999709","","","1","","",""
"","html-keyboard-response","261","206014","0.0-261.0","null","<div style=""font-size:60px;"">+</div>","null","","","",""
"","image-button-response","262","206515","0.0-262.0","null","../stimuli/images_hvm10/im160.png","","null","160","8","6"
"","html-button-response","263","207026","0.0-263.0","508.9999999999709","","","1","","",""
"","html-keyboard-response","264","208027","0.0-264.0","null","<div style=""font-size:60px;"">+</div>","null","","","",""
"","image-button-response","265","208528","0.0-265.0","null","../stimuli/images_hvm10/im3.png","","null","3","0","7"
"","html-button-response","266","209059","0.0-266.0","530","","","1","","",""
"","html-keyboard-response","267","210060","0.0-267.0","null","<div style=""font-size:60px;"">+</div>","null","","","",""
"","image-button-response","268","210562","0.0-268.0","null","../stimuli/images_hvm10/im77.png","","null","77","9","3"
"","html-button-response","269","211023","0.0-269.0","460","","","1","","",""
"","html-keyboard-response","270","212024","0.0-270.0","null","<div style=""font-size:60px;"">+</div>","null","","","",""
"","image-button-response","271","212525","0.0-271.0","null","../stimuli/images_hvm10/im124.png","","null","124","6","8"
"","html-button-response","272","212820","0.0-272.0","294.0000000000291","","","1","","",""
"","html-keyboard-response","273","213822","0.0-273.0","null","<div style=""font-size:60px;"">+</div>","null","","","",""
"","image-button-response","274","214323","0.0-274.0","null","../stimuli/images_hvm10/im130.png","","null","130","6","1"
"","html-button-response","275","214782","0.0-275.0","459","","","1","","",""
"","html-keyboard-response","276","215784","0.0-276.0","null","<div style=""font-size:60px;"">+</div>","null","","","",""
"","image-button-response","277","216285","0.0-277.0","null","../stimuli/images_hvm10/im139.png","","null","139","8","6"
"","html-button-response","278","216769","0.0-278.0","483","","","0","","",""
"","html-keyboard-response","279","217771","0.0-279.0","null","<div style=""font-size:60px;"">+</div>","null","","","",""
"","image-button-response","280","218272","0.0-280.0","null","../stimuli/images_hvm10/im108.png","","null","108","3","5"
"","html-button-response","281","218814","0.0-281.0","540","","","0","","",""
"","html-keyboard-response","282","219815","0.0-282.0","null","<div style=""font-size:60px;"">+</div>","null","","","",""
"","image-button-response","283","220317","0.0-283.0","null","../stimuli/images_hvm10/im179.png","","null","179","8","3"
"","html-button-response","284","220857","0.0-284.0","536.9999999999709","","","0","","",""
"","html-keyboard-response","285","221859","0.0-285.0","null","<div style=""font-size:60px;"">+</div>","null","","","",""
"","image-button-response","286","222360","0.0-286.0","null","../stimuli/images_hvm10/im186.png","","null","186","1","9"
"","html-button-response","287","222907","0.0-287.0","547","","","0","","",""
"","html-keyboard-response","288","223909","0.0-288.0","null","<div style=""font-size:60px;"">+</div>","null","","","",""
"","image-button-response","289","224410","0.0-289.0","null","../stimuli/images_hvm10/im167.png","","null","167","8","0"
"","html-button-response","290","225055","0.0-290.0","643","","","0","","",""
"","html-keyboard-response","291","226056","0.0-291.0","null","<div style=""font-size:60px;"">+</div>","null","","","",""
"","image-button-response","292","226557","0.0-292.0","null","../stimuli/images_hvm10/im59.png","","null","59","2","7"
"","html-button-response","293","227116","0.0-293.0","557.9999999999709","","","1","","",""
"","html-keyboard-response","294","228117","0.0-294.0","null","<div style=""font-size:60px;"">+</div>","null","","","",""
"","image-button-response","295","228619","0.0-295.0","null","../stimuli/images_hvm10/im146.png","","null","146","1","7"
"","html-button-response","296","229279","0.0-296.0","659.0000000000291","","","1","","",""
"","html-keyboard-response","297","230279","0.0-297.0","null","<div style=""font-size:60px;"">+</div>","null","","","",""
"","image-button-response","298","230781","0.0-298.0","null","../stimuli/images_hvm10/im80.png","","null","80","8","4"
"","html-button-response","299","231418","0.0-299.0","636","","","1","","",""
"","html-keyboard-response","300","232419","0.0-300.0","null","<div style=""font-size:60px;"">+</div>","null","","","",""
"","image-button-response","301","232922","0.0-301.0","null","../stimuli/images_hvm10/im55.png","","null","55","2","1"
"","html-button-response","302","233477","0.0-302.0","554","","","1","","",""
"","html-keyboard-response","303","234479","0.0-303.0","null","<div style=""font-size:60px;"">+</div>","null","","","",""
"","image-button-response","304","234981","0.0-304.0","null","../stimuli/images_hvm10/im151.png","","null","151","7","4"
"","html-button-response","305","235640","0.0-305.0","658","","","1","","",""
"","html-keyboard-response","306","236641","0.0-306.0","null","<div style=""font-size:60px;"">+</div>","null","","","",""
"","image-button-response","307","237143","0.0-307.0","null","../stimuli/images_hvm10/im150.png","","null","150","7","4"
"","html-button-response","308","238120","0.0-308.0","977","","","0","","",""
"","html-keyboard-response","309","239122","0.0-309.0","null","<div style=""font-size:60px;"">+</div>","null","","","",""
"","image-button-response","310","239624","0.0-310.0","null","../stimuli/images_hvm10/im35.png","","null","35","1","4"
"","html-button-response","311","240165","0.0-311.0","539.0000000000291","","","0","","",""
"","html-keyboard-response","312","241167","0.0-312.0","null","<div style=""font-size:60px;"">+</div>","null","","","",""
"","image-button-response","313","241669","0.0-313.0","null","../stimuli/images_hvm10/im21.png","","null","21","5","1"
"","html-button-response","314","242759","0.0-314.0","1090","","","0","","",""
"","html-keyboard-response","315","243761","0.0-315.0","null","<div style=""font-size:60px;"">+</div>","null","","","",""
"","image-button-response","316","244263","0.0-316.0","null","../stimuli/images_hvm10/im190.png","","null","190","6","9"
"","html-button-response","317","245351","0.0-317.0","1088","","","1","","",""
"","html-keyboard-response","318","246352","0.0-318.0","null","<div style=""font-size:60px;"">+</div>","null","","","",""
"","image-button-response","319","246854","0.0-319.0","null","../stimuli/images_hvm10/im121.png","","null","121","2","6"
"","html-button-response","320","247521","0.0-320.0","666","","","1","","",""
"","html-keyboard-response","321","248521","0.0-321.0","null","<div style=""font-size:60px;"">+</div>","null","","","",""
"","image-button-response","322","249024","0.0-322.0","null","../stimuli/images_hvm10/im78.png","","null","78","3","7"
"","html-button-response","323","249823","0.0-323.0","798","","","1","","",""
"","html-keyboard-response","324","250825","0.0-324.0","null","<div style=""font-size:60px;"">+</div>","null","","","",""
"","image-button-response","325","251327","0.0-325.0","null","../stimuli/images_hvm10/im131.png","","null","131","7","6"
"","html-button-response","326","253196","0.0-326.0","1868","","","1","","",""
"","html-keyboard-response","327","254198","0.0-327.0","null","<div style=""font-size:60px;"">+</div>","null","","","",""
"","image-button-response","328","254700","0.0-328.0","null","../stimuli/images_hvm10/im120.png","","null","120","6","9"
"","html-button-response","329","255223","0.0-329.0","521.9999999999709","","","1","","",""
"","html-keyboard-response","330","256225","0.0-330.0","null","<div style=""font-size:60px;"">+</div>","null","","","",""
"","image-button-response","331","256727","0.0-331.0","null","../stimuli/images_hvm10/im189.png","","null","189","9","0"
"","html-button-response","332","257431","0.0-332.0","703.9999999999418","","","1","","",""
"","html-keyboard-response","333","258433","0.0-333.0","null","<div style=""font-size:60px;"">+</div>","null","","","",""
"","image-button-response","334","258935","0.0-334.0","null","../stimuli/images_hvm10/im147.png","","null","147","7","2"
"","html-button-response","335","260139","0.0-335.0","1202.0000000000582","","","0","","",""
"","html-keyboard-response","336","261140","0.0-336.0","null","<div style=""font-size:60px;"">+</div>","null","","","",""
"","image-button-response","337","261641","0.0-337.0","null","../stimuli/images_hvm10/im145.png","","null","145","0","7"
"","html-button-response","338","262213","0.0-338.0","571","","","0","","",""
"","html-keyboard-response","339","263214","0.0-339.0","null","<div style=""font-size:60px;"">+</div>","null","","","",""
"","image-button-response","340","263716","0.0-340.0","null","../stimuli/images_hvm10/im141.png","","null","141","7","1"
"","html-button-response","341","264727","0.0-341.0","1011.0000000000582","","","0","","",""
"","html-keyboard-response","342","265728","0.0-342.0","null","<div style=""font-size:60px;"">+</div>","null","","","",""
"","image-button-response","343","266230","0.0-343.0","null","../stimuli/images_hvm10/im105.png","","null","105","5","9"
"","html-button-response","344","266773","0.0-344.0","541","","","1","","",""
"","html-keyboard-response","345","267774","0.0-345.0","null","<div style=""font-size:60px;"">+</div>","null","","","",""
"","image-button-response","346","268276","0.0-346.0","null","../stimuli/images_hvm10/im74.png","","null","74","4","3"
"","html-button-response","347","268845","0.0-347.0","569","","","1","","",""
"","html-keyboard-response","348","269846","0.0-348.0","null","<div style=""font-size:60px;"">+</div>","null","","","",""
"","image-button-response","349","270347","0.0-349.0","null","../stimuli/images_hvm10/im184.png","","null","184","9","3"
"","html-button-response","350","270873","0.0-350.0","525","","","1","","",""
"","html-keyboard-response","351","271875","0.0-351.0","null","<div style=""font-size:60px;"">+</div>","null","","","",""
"","image-button-response","352","272377","0.0-352.0","null","../stimuli/images_hvm10/im27.png","","null","27","7","1"
"","html-button-response","353","273086","0.0-353.0","709","","","1","","",""
"","html-keyboard-response","354","274088","0.0-354.0","null","<div style=""font-size:60px;"">+</div>","null","","","",""
"","image-button-response","355","274590","0.0-355.0","null","../stimuli/images_hvm10/im107.png","","null","107","2","5"
"","html-button-response","356","275119","0.0-356.0","528","","","1","","",""
"","html-keyboard-response","357","276120","0.0-357.0","null","<div style=""font-size:60px;"">+</div>","null","","","",""
"","image-button-response","358","276622","0.0-358.0","null","../stimuli/images_hvm10/im14.png","","null","14","0","2"
"","html-button-response","359","277474","0.0-359.0","850","","","0","","",""
"","html-keyboard-response","360","278475","0.0-360.0","null","<div style=""font-size:60px;"">+</div>","null","","","",""
"","image-button-response","361","278976","0.0-361.0","null","../stimuli/images_hvm10/im6.png","","null","6","0","1"
"","html-button-response","362","279851","0.0-362.0","873.9999999999418","","","0","","",""
"","html-keyboard-response","363","280853","0.0-363.0","null","<div style=""font-size:60px;"">+</div>","null","","","",""
"","image-button-response","364","281355","0.0-364.0","null","../stimuli/images_hvm10/im144.png","","null","144","7","9"
"","html-button-response","365","281921","0.0-365.0","565","","","0","","",""
"","html-keyboard-response","366","282922","0.0-366.0","null","<div style=""font-size:60px;"">+</div>","null","","","",""
"","image-button-response","367","283424","0.0-367.0","null","../stimuli/images_hvm10/im122.png","","null","122","6","3"
"","html-button-response","368","284028","0.0-368.0","602","","","0","","",""
"","html-keyboard-response","369","285029","0.0-369.0","null","<div style=""font-size:60px;"">+</div>","null","","","",""
"","image-button-response","370","285531","0.0-370.0","null","../stimuli/images_hvm10/im23.png","","null","23","1","6"
"","html-button-response","371","286052","0.0-371.0","520","","","0","","",""
"","html-keyboard-response","372","287054","0.0-372.0","null","<div style=""font-size:60px;"">+</div>","null","","","",""
"","image-button-response","373","287555","0.0-373.0","null","../stimuli/images_hvm10/im185.png","","null","185","6","9"
"","html-button-response","374","288559","0.0-374.0","1003","","","1","","",""
"","html-keyboard-response","375","289560","0.0-375.0","null","<div style=""font-size:60px;"">+</div>","null","","","",""
"","image-button-response","376","290062","0.0-376.0","null","../stimuli/images_hvm10/im115.png","","null","115","5","7"
"","html-button-response","377","290618","0.0-377.0","555","","","1","","",""
"","html-keyboard-response","378","291619","0.0-378.0","null","<div style=""font-size:60px;"">+</div>","null","","","",""
"","image-button-response","379","292120","0.0-379.0","null","../stimuli/images_hvm10/im44.png","","null","44","1","2"
"","html-button-response","380","292606","0.0-380.0","485","","","1","","",""
"","html-keyboard-response","381","293608","0.0-381.0","null","<div style=""font-size:60px;"">+</div>","null","","","",""
"","image-button-response","382","294109","0.0-382.0","null","../stimuli/images_hvm10/im113.png","","null","113","7","5"
"","html-button-response","383","294627","0.0-383.0","517","","","1","","",""
"","html-keyboard-response","384","295628","0.0-384.0","null","<div style=""font-size:60px;"">+</div>","null","","","",""
"","image-button-response","385","296131","0.0-385.0","null","../stimuli/images_hvm10/im114.png","","null","114","2","5"
"","html-button-response","386","296812","0.0-386.0","680","","","1","","",""
"","html-keyboard-response","387","297813","0.0-387.0","null","<div style=""font-size:60px;"">+</div>","null","","","",""
"","image-button-response","388","298316","0.0-388.0","null","../stimuli/images_hvm10/im8.png","","null","8","0","7"
"","html-button-response","389","299134","0.0-389.0","817","","","0","","",""
"","html-keyboard-response","390","300136","0.0-390.0","null","<div style=""font-size:60px;"">+</div>","null","","","",""
"","image-button-response","391","300637","0.0-391.0","null","../stimuli/images_hvm10/im162.png","","null","162","2","8"
"","html-button-response","392","301543","0.0-392.0","904.9999999999418","","","0","","",""
"","html-keyboard-response","393","302545","0.0-393.0","null","<div style=""font-size:60px;"">+</div>","null","","","",""
"","image-button-response","394","303047","0.0-394.0","null","../stimuli/images_hvm10/im187.png","","null","187","4","9"
"","html-button-response","395","303651","0.0-395.0","602","","","0","","",""
"","html-keyboard-response","396","304652","0.0-396.0","null","<div style=""font-size:60px;"">+</div>","null","","","",""
"","image-button-response","397","305154","0.0-397.0","null","../stimuli/images_hvm10/im76.png","","null","76","8","3"
"","html-button-response","398","305908","0.0-398.0","753.9999999999418","","","1","","",""
"","html-keyboard-response","399","306910","0.0-399.0","null","<div style=""font-size:60px;"">+</div>","null","","","",""
"","image-button-response","400","307413","0.0-400.0","null","../stimuli/images_hvm10/im79.png","","null","79","3","2"
"","html-button-response","401","307984","0.0-401.0","570","","","1","","",""
"","html-keyboard-response","402","308986","0.0-402.0","null","<div style=""font-size:60px;"">+</div>","null","","","",""
"","image-button-response","403","309487","0.0-403.0","null","../stimuli/images_hvm10/im166.png","","null","166","8","0"
"","html-button-response","404","310394","0.0-404.0","907","","","0","","",""
"","html-keyboard-response","405","311396","0.0-405.0","null","<div style=""font-size:60px;"">+</div>","null","","","",""
"","image-button-response","406","311897","0.0-406.0","null","../stimuli/images_hvm10/im165.png","","null","165","2","8"
"","html-button-response","407","312940","0.0-407.0","1041","","","1","","",""
"","html-keyboard-response","408","313940","0.0-408.0","null","<div style=""font-size:60px;"">+</div>","null","","","",""
"","image-button-response","409","314442","0.0-409.0","null","../stimuli/images_hvm10/im24.png","","null","24","1","8"
"","html-button-response","410","315358","0.0-410.0","915","","","0","","",""
"","html-keyboard-response","411","316359","0.0-411.0","null","<div style=""font-size:60px;"">+</div>","null","","","",""
"","image-button-response","412","316861","0.0-412.0","null","../stimuli/images_hvm10/im161.png","","null","161","6","8"
"","html-button-response","413","317856","0.0-413.0","995","","","1","","",""
"","html-keyboard-response","414","318858","0.0-414.0","null","<div style=""font-size:60px;"">+</div>","null","","","",""
"","image-button-response","415","319359","0.0-415.0","null","../stimuli/images_hvm10/im37.png","","null","37","1","3"
"","html-button-response","416","319979","0.0-416.0","619","","","0","","",""
"","html-keyboard-response","417","320980","0.0-417.0","null","<div style=""font-size:60px;"">+</div>","null","","","",""
"","image-button-response","418","321482","0.0-418.0","null","../stimuli/images_hvm10/im1.png","","null","1","0","3"
"","html-button-response","419","322158","0.0-419.0","676","","","0","","",""
"","html-keyboard-response","420","323160","0.0-420.0","null","<div style=""font-size:60px;"">+</div>","null","","","",""
"","image-button-response","421","323663","0.0-421.0","null","../stimuli/images_hvm10/im42.png","","null","42","1","2"
"","html-button-response","422","324250","0.0-422.0","586","","","0","","",""
"","html-keyboard-response","423","325251","0.0-423.0","null","<div style=""font-size:60px;"">+</div>","null","","","",""
"","image-button-response","424","325753","0.0-424.0","null","../stimuli/images_hvm10/im36.png","","null","36","1","4"
"","html-button-response","425","326421","0.0-425.0","667","","","0","","",""
"","html-keyboard-response","426","327422","0.0-426.0","null","<div style=""font-size:60px;"">+</div>","null","","","",""
"","image-button-response","427","327923","0.0-427.0","null","../stimuli/images_hvm10/im39.png","","null","39","7","1"
"","html-button-response","428","328655","0.0-428.0","731","","","1","","",""
"","html-keyboard-response","429","329657","0.0-429.0","null","<div style=""font-size:60px;"">+</div>","null","","","",""
"","image-button-response","430","330159","0.0-430.0","null","../stimuli/images_hvm10/im41.png","","null","41","7","2"
"","html-button-response","431","330883","0.0-431.0","723","","","1","","",""
"","html-keyboard-response","432","331884","0.0-432.0","null","<div style=""font-size:60px;"">+</div>","null","","","",""
"","image-button-response","433","332385","0.0-433.0","null","../stimuli/images_hvm10/im97.png","","null","97","1","4"
"","html-button-response","434","333086","0.0-434.0","699","","","1","","",""
"","html-keyboard-response","435","334086","0.0-435.0","null","<div style=""font-size:60px;"">+</div>","null","","","",""
"","image-button-response","436","334588","0.0-436.0","null","../stimuli/images_hvm10/im111.png","","null","111","4","5"
"","html-button-response","437","335249","0.0-437.0","659.9999999999418","","","1","","",""
"","html-keyboard-response","438","336251","0.0-438.0","null","<div style=""font-size:60px;"">+</div>","null","","","",""
"","image-button-response","439","336753","0.0-439.0","null","../stimuli/images_hvm10/im31.png","","null","31","1","2"
"","html-button-response","440","337741","0.0-440.0","987","","","0","","",""
"","html-keyboard-response","441","338742","0.0-441.0","null","<div style=""font-size:60px;"">+</div>","null","","","",""
"","image-button-response","442","339244","0.0-442.0","null","../stimuli/images_hvm10/im109.png","","null","109","5","0"
"","html-button-response","443","339976","0.0-443.0","731.0000000000582","","","0","","",""
"","html-keyboard-response","444","340977","0.0-444.0","null","<div style=""font-size:60px;"">+</div>","null","","","",""
"","image-button-response","445","341478","0.0-445.0","null","../stimuli/images_hvm10/im93.png","","null","93","0","4"
"","html-button-response","446","342089","0.0-446.0","610.0000000000582","","","0","","",""
"","html-keyboard-response","447","343091","0.0-447.0","null","<div style=""font-size:60px;"">+</div>","null","","","",""
"","image-button-response","448","343593","0.0-448.0","null","../stimuli/images_hvm10/im56.png","","null","56","1","2"
"","html-button-response","449","344142","0.0-449.0","548","","","0","","",""
"","html-keyboard-response","450","345144","0.0-450.0","null","<div style=""font-size:60px;"">+</div>","null","","","",""
"","image-button-response","451","345646","0.0-451.0","null","../stimuli/images_hvm10/im10.png","","null","10","1","0"
"","html-button-response","452","346313","0.0-452.0","666","","","0","","",""
"","html-keyboard-response","453","347315","0.0-453.0","null","<div style=""font-size:60px;"">+</div>","null","","","",""
"","image-button-response","454","347818","0.0-454.0","null","../stimuli/images_hvm10/im99.png","","null","99","0","4"
"","html-button-response","455","348482","0.0-455.0","663","","","0","","",""
"","html-keyboard-response","456","349483","0.0-456.0","null","<div style=""font-size:60px;"">+</div>","null","","","",""
"","image-button-response","457","349984","0.0-457.0","null","../stimuli/images_hvm10/im73.png","","null","73","9","3"
"","html-button-response","458","350549","0.0-458.0","564","","","0","","",""
"","html-keyboard-response","459","351550","0.0-459.0","null","<div style=""font-size:60px;"">+</div>","null","","","",""
"","image-button-response","460","352051","0.0-460.0","null","../stimuli/images_hvm10/im15.png","","null","15","0","9"
"","html-button-response","461","352720","0.0-461.0","668","","","1","","",""
"","html-keyboard-response","462","353720","0.0-462.0","null","<div style=""font-size:60px;"">+</div>","null","","","",""
"","image-button-response","463","354222","0.0-463.0","null","../stimuli/images_hvm10/im85.png","","null","85","2","4"
"","html-button-response","464","354963","0.0-464.0","740","","","1","","",""
"","html-keyboard-response","465","355964","0.0-465.0","null","<div style=""font-size:60px;"">+</div>","null","","","",""
"","image-button-response","466","356467","0.0-466.0","null","../stimuli/images_hvm10/im81.png","","null","81","1","4"
"","html-button-response","467","357047","0.0-467.0","579","","","1","","",""
"","html-keyboard-response","468","358048","0.0-468.0","null","<div style=""font-size:60px;"">+</div>","null","","","",""
"","image-button-response","469","358549","0.0-469.0","null","../stimuli/images_hvm10/im18.png","","null","18","0","8"
"","html-button-response","470","359712","0.0-470.0","1161","","","0","","",""
"","html-keyboard-response","471","360714","0.0-471.0","null","<div style=""font-size:60px;"">+</div>","null","","","",""
"","image-button-response","472","361216","0.0-472.0","null","../stimuli/images_hvm10/im94.png","","null","94","4","8"
"","html-button-response","473","361894","0.0-473.0","677","","","0","","",""
"","html-keyboard-response","474","362896","0.0-474.0","null","<div style=""font-size:60px;"">+</div>","null","","","",""
"","image-button-response","475","363397","0.0-475.0","null","../stimuli/images_hvm10/im29.png","","null","29","3","1"
"","html-button-response","476","364502","0.0-476.0","1102.9999999999418","","","1","","",""
"","html-keyboard-response","477","365504","0.0-477.0","null","<div style=""font-size:60px;"">+</div>","null","","","",""
"","image-button-response","478","366005","0.0-478.0","null","../stimuli/images_hvm10/im68.png","","null","68","6","3"
"","html-button-response","479","366625","0.0-479.0","620","","","1","","",""
"","html-keyboard-response","480","367627","0.0-480.0","null","<div style=""font-size:60px;"">+</div>","null","","","",""
"","image-button-response","481","368128","0.0-481.0","null","../stimuli/images_hvm10/im71.png","","null","71","7","3"
"","html-button-response","482","368637","0.0-482.0","509","","","1","","",""
"","html-keyboard-response","483","369639","0.0-483.0","null","<div style=""font-size:60px;"">+</div>","null","","","",""
"","image-button-response","484","370141","0.0-484.0","null","../stimuli/images_hvm10/im92.png","","null","92","6","4"
"","html-button-response","485","370665","0.0-485.0","523","","","1","","",""
"","html-keyboard-response","486","371666","0.0-486.0","null","<div style=""font-size:60px;"">+</div>","null","","","",""
"","image-button-response","487","372167","0.0-487.0","null","../stimuli/images_hvm10/im117.png","","null","117","5","4"
"","html-button-response","488","372731","0.0-488.0","563","","","1","","",""
"","html-keyboard-response","489","373733","0.0-489.0","null","<div style=""font-size:60px;"">+</div>","null","","","",""
"","image-button-response","490","374234","0.0-490.0","null","../stimuli/images_hvm10/im13.png","","null","13","0","1"
"","html-button-response","491","374721","0.0-491.0","485","","","1","","",""
"","html-keyboard-response","492","375722","0.0-492.0","null","<div style=""font-size:60px;"">+</div>","null","","","",""
"","image-button-response","493","376224","0.0-493.0","null","../stimuli/images_hvm10/im119.png","","null","119","1","5"
"","html-button-response","494","376761","0.0-494.0","537.0000000000582","","","1","","",""
"","html-keyboard-response","495","377763","0.0-495.0","null","<div style=""font-size:60px;"">+</div>","null","","","",""
"","image-button-response","496","378264","0.0-496.0","null","../stimuli/images_hvm10/im116.png","","null","116","5","2"
"","html-button-response","497","379191","0.0-497.0","927","","","0","","",""
"","html-keyboard-response","498","380193","0.0-498.0","null","<div style=""font-size:60px;"">+</div>","null","","","",""
"","image-button-response","499","380695","0.0-499.0","null","../stimuli/images_hvm10/im47.png","","null","47","2","8"
"","html-button-response","500","381394","0.0-500.0","697.9999999999418","","","0","","",""
"","html-keyboard-response","501","382396","0.0-501.0","null","<div style=""font-size:60px;"">+</div>","null","","","",""
"","image-button-response","502","382898","0.0-502.0","null","../stimuli/images_hvm10/im95.png","","null","95","9","4"
"","html-button-response","503","384218","0.0-503.0","1319","","","1","","",""
"","html-keyboard-response","504","385220","0.0-504.0","null","<div style=""font-size:60px;"">+</div>","null","","","",""
"","image-button-response","505","385721","0.0-505.0","null","../stimuli/images_hvm10/im40.png","","null","40","2","7"
"","html-button-response","506","386637","0.0-506.0","915","","","0","","",""
"","html-keyboard-response","507","387638","0.0-507.0","null","<div style=""font-size:60px;"">+</div>","null","","","",""
"","image-button-response","508","388140","0.0-508.0","null","../stimuli/images_hvm10/im38.png","","null","38","0","1"
"","html-button-response","509","389063","0.0-509.0","922","","","1","","",""
"","html-keyboard-response","510","390065","0.0-510.0","null","<div style=""font-size:60px;"">+</div>","null","","","",""
"","image-button-response","511","390567","0.0-511.0","null","../stimuli/images_hvm10/im118.png","","null","118","5","2"
"","html-button-response","512","391515","0.0-512.0","947","","","1","","",""
"","html-keyboard-response","513","392516","0.0-513.0","null","<div style=""font-size:60px;"">+</div>","null","","","",""
"","image-button-response","514","393017","0.0-514.0","null","../stimuli/images_hvm10/im45.png","","null","45","4","2"
"","html-button-response","515","393959","0.0-515.0","941","","","1","","",""
"","html-keyboard-response","516","394961","0.0-516.0","null","<div style=""font-size:60px;"">+</div>","null","","","",""
"","image-button-response","517","395463","0.0-517.0","null","../stimuli/images_hvm10/im53.png","","null","53","7","2"
"","html-button-response","518","395963","0.0-518.0","499.0000000000582","","","1","","",""
"","html-keyboard-response","519","396964","0.0-519.0","null","<div style=""font-size:60px;"">+</div>","null","","","",""
"","image-button-response","520","397465","0.0-520.0","null","../stimuli/images_hvm10/im100.png","","null","100","9","5"
"","html-button-response","521","398348","0.0-521.0","881","","","1","","",""
"","html-keyboard-response","522","399349","0.0-522.0","null","<div style=""font-size:60px;"">+</div>","null","","","",""
"","image-button-response","523","399852","0.0-523.0","null","../stimuli/images_hvm10/im110.png","","null","110","2","5"
"","html-button-response","524","401429","0.0-524.0","1576","","","1","","",""
"","html-keyboard-response","525","402431","0.0-525.0","null","<div style=""font-size:60px;"">+</div>","null","","","",""
"","image-button-response","526","402932","0.0-526.0","null","../stimuli/images_hvm10/im48.png","","null","48","2","0"
"","html-button-response","527","403362","0.0-527.0","429.0000000000582","","","1","","",""
"","html-keyboard-response","528","404364","0.0-528.0","null","<div style=""font-size:60px;"">+</div>","null","","","",""
"","image-button-response","529","404865","0.0-529.0","null","../stimuli/images_hvm10/im46.png","","null","46","6","2"
"","html-button-response","530","405437","0.0-530.0","571","","","1","","",""
"","html-keyboard-response","531","406438","0.0-531.0","null","<div style=""font-size:60px;"">+</div>","null","","","",""
"","image-button-response","532","406939","0.0-532.0","null","../stimuli/images_hvm10/im102.png","","null","102","8","5"
"","html-button-response","533","407441","0.0-533.0","501","","","1","","",""
"","html-keyboard-response","534","408443","0.0-534.0","null","<div style=""font-size:60px;"">+</div>","null","","","",""
"","image-button-response","535","408945","0.0-535.0","null","../stimuli/images_hvm10/im67.png","","null","67","3","1"
"","html-button-response","536","409465","0.0-536.0","519.9999999999418","","","1","","",""
"","html-keyboard-response","537","410467","0.0-537.0","null","<div style=""font-size:60px;"">+</div>","null","","","",""
"","image-button-response","538","410969","0.0-538.0","null","../stimuli/images_hvm10/im19.png","","null","19","4","0"
"","html-button-response","539","411631","0.0-539.0","661.9999999999418","","","1","","",""
"","html-keyboard-response","540","412633","0.0-540.0","null","<div style=""font-size:60px;"">+</div>","null","","","",""
"","image-button-response","541","413134","0.0-541.0","null","../stimuli/images_hvm10/im5.png","","null","5","0","3"
"","html-button-response","542","413627","0.0-542.0","492","","","1","","",""
"","html-keyboard-response","543","414629","0.0-543.0","null","<div style=""font-size:60px;"">+</div>","null","","","",""
"","image-button-response","544","415131","0.0-544.0","null","../stimuli/images_hvm10/im90.png","","null","90","4","2"
"","html-button-response","545","415750","0.0-545.0","618","","","1","","",""
"","html-keyboard-response","546","416752","0.0-546.0","null","<div style=""font-size:60px;"">+</div>","null","","","",""
"","image-button-response","547","417254","0.0-547.0","null","../stimuli/images_hvm10/im103.png","","null","103","5","1"
"","html-button-response","548","418199","0.0-548.0","945","","","0","","",""
"","html-keyboard-response","549","419201","0.0-549.0","null","<div style=""font-size:60px;"">+</div>","null","","","",""
"","image-button-response","550","419702","0.0-550.0","null","../stimuli/images_hvm10/im72.png","","null","72","3","9"
"","html-button-response","551","420322","0.0-551.0","619","","","0","","",""
"","html-keyboard-response","552","421323","0.0-552.0","null","<div style=""font-size:60px;"">+</div>","null","","","",""
"","image-button-response","553","421824","0.0-553.0","null","../stimuli/images_hvm10/im69.png","","null","69","0","3"
"","html-button-response","554","422602","0.0-554.0","775.9999999999418","","","1","","",""
"","html-keyboard-response","555","423603","0.0-555.0","null","<div style=""font-size:60px;"">+</div>","null","","","",""
"","image-button-response","556","424104","0.0-556.0","null","../stimuli/images_hvm10/im4.png","","null","4","0","2"
"","html-button-response","557","424931","0.0-557.0","826","","","0","","",""
"","html-keyboard-response","558","425932","0.0-558.0","null","<div style=""font-size:60px;"">+</div>","null","","","",""
"","image-button-response","559","426434","0.0-559.0","null","../stimuli/images_hvm10/im91.png","","null","91","4","6"
"","html-button-response","560","427326","0.0-560.0","890.0000000000582","","","1","","",""
"","html-keyboard-response","561","428327","0.0-561.0","null","<div style=""font-size:60px;"">+</div>","null","","","",""
"","image-button-response","562","428830","0.0-562.0","null","../stimuli/images_hvm10/im7.png","","null","7","4","0"
"","html-button-response","563","429343","0.0-563.0","512","","","1","","",""
"","html-keyboard-response","564","430344","0.0-564.0","null","<div style=""font-size:60px;"">+</div>","null","","","",""
"","image-button-response","565","430845","0.0-565.0","null","../stimuli/images_hvm10/im49.png","","null","49","9","2"
"","html-button-response","566","431380","0.0-566.0","534","","","1","","",""
"","html-keyboard-response","567","432381","0.0-567.0","null","<div style=""font-size:60px;"">+</div>","null","","","",""
"","image-button-response","568","432883","0.0-568.0","null","../stimuli/images_hvm10/im11.png","","null","11","0","3"
"","html-button-response","569","433855","0.0-569.0","972","","","0","","",""
"","html-keyboard-response","570","434856","0.0-570.0","null","<div style=""font-size:60px;"">+</div>","null","","","",""
"","image-button-response","571","435358","0.0-571.0","null","../stimuli/images_hvm10/im16.png","","null","16","0","7"
"","html-button-response","572","435937","0.0-572.0","578","","","0","","",""
"","html-keyboard-response","573","436939","0.0-573.0","null","<div style=""font-size:60px;"">+</div>","null","","","",""
"","image-button-response","574","437440","0.0-574.0","null","../stimuli/images_hvm10/im17.png","","null","17","0","7"
"","html-button-response","575","438037","0.0-575.0","595","","","0","","",""
"","html-keyboard-response","576","439039","0.0-576.0","null","<div style=""font-size:60px;"">+</div>","null","","","",""
"","image-button-response","577","439541","0.0-577.0","null","../stimuli/images_hvm10/im30.png","","null","30","8","1"
"","html-button-response","578","440489","0.0-578.0","947","","","1","","",""
"","html-keyboard-response","579","441490","0.0-579.0","null","<div style=""font-size:60px;"">+</div>","null","","","",""
"","image-button-response","580","441992","0.0-580.0","null","../stimuli/images_hvm10/im51.png","","null","51","9","2"
"","html-button-response","581","442675","0.0-581.0","683","","","1","","",""
"","html-keyboard-response","582","443677","0.0-582.0","null","<div style=""font-size:60px;"">+</div>","null","","","",""
"","image-button-response","583","444178","0.0-583.0","null","../stimuli/images_hvm10/im61.png","","null","61","3","1"
"","html-button-response","584","445064","0.0-584.0","885","","","0","","",""
"","html-keyboard-response","585","446066","0.0-585.0","null","<div style=""font-size:60px;"">+</div>","null","","","",""
"","image-button-response","586","446568","0.0-586.0","null","../stimuli/images_hvm10/im60.png","","null","60","6","3"
"","html-button-response","587","447505","0.0-587.0","936","","","1","","",""
"","html-keyboard-response","588","448506","0.0-588.0","null","<div style=""font-size:60px;"">+</div>","null","","","",""
"","image-button-response","589","449007","0.0-589.0","null","../stimuli/images_hvm10/im52.png","","null","52","2","0"
"","html-button-response","590","449891","0.0-590.0","883","","","0","","",""
"","html-keyboard-response","591","450893","0.0-591.0","null","<div style=""font-size:60px;"">+</div>","null","","","",""
"","image-button-response","592","451394","0.0-592.0","null","../stimuli/images_hvm10/im25.png","","null","25","1","4"
"","html-button-response","593","452476","0.0-593.0","1081","","","0","","",""
"","html-keyboard-response","594","453478","0.0-594.0","null","<div style=""font-size:60px;"">+</div>","null","","","",""
"","image-button-response","595","453981","0.0-595.0","null","../stimuli/images_hvm10/im28.png","","null","28","1","2"
"","html-button-response","596","454696","0.0-596.0","714","","","0","","",""
"","html-keyboard-response","597","455698","0.0-597.0","null","<div style=""font-size:60px;"">+</div>","null","","","",""
"","image-button-response","598","456199","0.0-598.0","null","../stimuli/images_hvm10/im62.png","","null","62","3","8"
"","html-button-response","599","456843","0.0-599.0","642.9999999999418","","","0","","",""
