"success","trial_type","trial_index","time_elapsed","internal_node_id","rt","stimulus","key_press","responses","button_pressed","images","left_choice","right_choice"
"true","fullscreen","0","2177","0.0-0.0","","","","","","","",""
"","html-keyboard-response","1","3379","0.0-1.0","1199","Welcome to the experiment. Press any key to begin.","32","","","","",""
"","survey-html-form","2","50477","0.0-2.0","47094.30000001192","","","{""p_id"":""7024"",""age"":""19"",""handedness"":""right"",""sex"":""female"",""other_sex"":""""}","","","",""
"","html-keyboard-response","3","78620","0.0-3.0","28141.69999998808","<p>Please fixate at the center '+' sign which will appear once you press any key. Then, <strong> an image </strong> will be shown in the center of the screen.</p><p>The image will contain an object.This will be followed by a <strong> Choice Screen </strong> containing two objects. Please choose the option <strong>[Click on the object]</strong> that you think was present in the image<p>Press any key to begin.</p>","32","","","","",""
"","html-keyboard-response","4","81626","0.0-4.0","null","<div style=""font-size:60px;"">+</div>","null","","","","",""
"","image-button-response","5","82134","0.0-5.0","null","stimuli/images_hvm10/im169.png","","","null","169","4","8"
"","html-button-response","6","83234","0.0-6.0","1097.3999999910593","","","","1","","",""
"","html-keyboard-response","7","84241","0.0-7.0","null","<div style=""font-size:60px;"">+</div>","null","","","","",""
"","image-button-response","8","84744","0.0-8.0","null","stimuli/images_hvm10/im157.png","","","null","157","0","7"
"","html-button-response","9","85653","0.0-9.0","907.4000000059605","","","","1","","",""
"","html-keyboard-response","10","86656","0.0-10.0","null","<div style=""font-size:60px;"">+</div>","null","","","","",""
"","image-button-response","11","87163","0.0-11.0","null","stimuli/images_hvm10/im155.png","","","null","155","7","3"
"","html-button-response","12","87852","0.0-12.0","687.2999999970198","","","","0","","",""
"","html-keyboard-response","13","88856","0.0-13.0","null","<div style=""font-size:60px;"">+</div>","null","","","","",""
"","image-button-response","14","89361","0.0-14.0","null","stimuli/images_hvm10/im162.png","","","null","162","8","0"
"","html-button-response","15","90686","0.0-15.0","1322.4000000059605","","","","0","","",""
"","html-keyboard-response","16","91690","0.0-16.0","null","<div style=""font-size:60px;"">+</div>","null","","","","",""
"","image-button-response","17","92197","0.0-17.0","null","stimuli/images_hvm10/im165.png","","","null","165","8","3"
"","html-button-response","18","93987","0.0-18.0","1787.3999999910593","","","","0","","",""
"","html-keyboard-response","19","94989","0.0-19.0","null","<div style=""font-size:60px;"">+</div>","null","","","","",""
"","image-button-response","20","95493","0.0-20.0","null","stimuli/images_hvm10/im164.png","","","null","164","8","1"
"","html-button-response","21","96277","0.0-21.0","781.7000000029802","","","","0","","",""
"","html-keyboard-response","22","97281","0.0-22.0","null","<div style=""font-size:60px;"">+</div>","null","","","","",""
"","image-button-response","23","97788","0.0-23.0","null","stimuli/images_hvm10/im159.png","","","null","159","7","1"
"","html-button-response","24","98392","0.0-24.0","601.8000000119209","","","","0","","",""
"","html-keyboard-response","25","99396","0.0-25.0","null","<div style=""font-size:60px;"">+</div>","null","","","","",""
"","image-button-response","26","99902","0.0-26.0","null","stimuli/images_hvm10/im156.png","","","null","156","4","7"
"","html-button-response","27","100693","0.0-27.0","788.2000000029802","","","","1","","",""
"","html-keyboard-response","28","101696","0.0-28.0","null","<div style=""font-size:60px;"">+</div>","null","","","","",""
"","image-button-response","29","102201","0.0-29.0","null","stimuli/images_hvm10/im181.png","","","null","181","9","7"
"","html-button-response","30","102831","0.0-30.0","628","","","","0","","",""
"","html-keyboard-response","31","103833","0.0-31.0","null","<div style=""font-size:60px;"">+</div>","null","","","","",""
"","image-button-response","32","104336","0.0-32.0","null","stimuli/images_hvm10/im196.png","","","null","196","9","4"
"","html-button-response","33","104986","0.0-33.0","648.1999999880791","","","","0","","",""
"","html-keyboard-response","34","105991","0.0-34.0","null","<div style=""font-size:60px;"">+</div>","null","","","","",""
"","image-button-response","35","106495","0.0-35.0","null","stimuli/images_hvm10/im174.png","","","null","174","4","8"
"","html-button-response","36","107109","0.0-36.0","611.6000000089407","","","","1","","",""
"","html-keyboard-response","37","108116","0.0-37.0","null","<div style=""font-size:60px;"">+</div>","null","","","","",""
"","image-button-response","38","108620","0.0-38.0","null","stimuli/images_hvm10/im79.png","","","null","79","6","3"
"","html-button-response","39","109274","0.0-39.0","651","","","","1","","",""
"","html-keyboard-response","40","110279","0.0-40.0","null","<div style=""font-size:60px;"">+</div>","null","","","","",""
"","image-button-response","41","110786","0.0-41.0","null","stimuli/images_hvm10/im70.png","","","null","70","7","3"
"","html-button-response","42","111483","0.0-42.0","694.7000000029802","","","","1","","",""
"","html-keyboard-response","43","112487","0.0-43.0","null","<div style=""font-size:60px;"">+</div>","null","","","","",""
"","image-button-response","44","112994","0.0-44.0","null","stimuli/images_hvm10/im80.png","","","null","80","4","6"
"","html-button-response","45","113542","0.0-45.0","545.7000000029802","","","","0","","",""
"","html-keyboard-response","46","114546","0.0-46.0","null","<div style=""font-size:60px;"">+</div>","null","","","","",""
"","image-button-response","47","115051","0.0-47.0","null","stimuli/images_hvm10/im12.png","","","null","12","0","9"
"","html-button-response","48","115632","0.0-48.0","578","","","","0","","",""
"","html-keyboard-response","49","116636","0.0-49.0","null","<div style=""font-size:60px;"">+</div>","null","","","","",""
"","image-button-response","50","117141","0.0-50.0","null","stimuli/images_hvm10/im197.png","","","null","197","0","9"
"","html-button-response","51","117730","0.0-51.0","586.4000000059605","","","","1","","",""
"","html-keyboard-response","52","118735","0.0-52.0","null","<div style=""font-size:60px;"">+</div>","null","","","","",""
"","image-button-response","53","119237","0.0-53.0","null","stimuli/images_hvm10/im152.png","","","null","152","1","7"
"","html-button-response","54","119869","0.0-54.0","629.1999999880791","","","","1","","",""
"","html-keyboard-response","55","120876","0.0-55.0","null","<div style=""font-size:60px;"">+</div>","null","","","","",""
"","image-button-response","56","121378","0.0-56.0","null","stimuli/images_hvm10/im184.png","","","null","184","9","0"
"","html-button-response","57","121873","0.0-57.0","492.20000000298023","","","","0","","",""
"","html-keyboard-response","58","122877","0.0-58.0","null","<div style=""font-size:60px;"">+</div>","null","","","","",""
"","image-button-response","59","123384","0.0-59.0","null","stimuli/images_hvm10/im52.png","","","null","52","2","4"
"","html-button-response","60","124171","0.0-60.0","784.4000000059605","","","","0","","",""
"","html-keyboard-response","61","125175","0.0-61.0","null","<div style=""font-size:60px;"">+</div>","null","","","","",""
"","image-button-response","62","125682","0.0-62.0","null","stimuli/images_hvm10/im161.png","","","null","161","6","8"
"","html-button-response","63","126116","0.0-63.0","430.69999998807907","","","","1","","",""
"","html-keyboard-response","64","127122","0.0-64.0","null","<div style=""font-size:60px;"">+</div>","null","","","","",""
"","image-button-response","65","127626","0.0-65.0","null","stimuli/images_hvm10/im183.png","","","null","183","8","9"
"","html-button-response","66","128111","0.0-66.0","482.09999999403954","","","","0","","",""
"","html-keyboard-response","67","129116","0.0-67.0","null","<div style=""font-size:60px;"">+</div>","null","","","","",""
"","image-button-response","68","129618","0.0-68.0","null","stimuli/images_hvm10/im68.png","","","null","68","0","3"
"","html-button-response","69","130299","0.0-69.0","677.9000000059605","","","","1","","",""
"","html-keyboard-response","70","131301","0.0-70.0","null","<div style=""font-size:60px;"">+</div>","null","","","","",""
"","image-button-response","71","131803","0.0-71.0","null","stimuli/images_hvm10/im8.png","","","null","8","3","0"
"","html-button-response","72","132412","0.0-72.0","607.5999999940395","","","","1","","",""
"","html-keyboard-response","73","133416","0.0-73.0","null","<div style=""font-size:60px;"">+</div>","null","","","","",""
"","image-button-response","74","133920","0.0-74.0","null","stimuli/images_hvm10/im191.png","","","null","191","9","6"
"","html-button-response","75","134497","0.0-75.0","575.2000000029802","","","","0","","",""
"","html-keyboard-response","76","135499","0.0-76.0","null","<div style=""font-size:60px;"">+</div>","null","","","","",""
"","image-button-response","77","136001","0.0-77.0","null","stimuli/images_hvm10/im176.png","","","null","176","2","8"
"","html-button-response","78","136625","0.0-78.0","621.8999999910593","","","","0","","",""
"","html-keyboard-response","79","137631","0.0-79.0","null","<div style=""font-size:60px;"">+</div>","null","","","","",""
"","image-button-response","80","138135","0.0-80.0","null","stimuli/images_hvm10/im22.png","","","null","22","6","1"
"","html-button-response","81","138742","0.0-81.0","605.3999999910593","","","","1","","",""
"","html-keyboard-response","82","139747","0.0-82.0","null","<div style=""font-size:60px;"">+</div>","null","","","","",""
"","image-button-response","83","140250","0.0-83.0","null","stimuli/images_hvm10/im130.png","","","null","130","9","6"
"","html-button-response","84","140954","0.0-84.0","701.1999999880791","","","","0","","",""
"","html-keyboard-response","85","141955","0.0-85.0","null","<div style=""font-size:60px;"">+</div>","null","","","","",""
"","image-button-response","86","142461","0.0-86.0","null","stimuli/images_hvm10/im144.png","","","null","144","7","8"
"","html-button-response","87","143236","0.0-87.0","772.2999999970198","","","","0","","",""
"","html-keyboard-response","88","144238","0.0-88.0","null","<div style=""font-size:60px;"">+</div>","null","","","","",""
"","image-button-response","89","144741","0.0-89.0","null","stimuli/images_hvm10/im44.png","","","null","44","6","2"
"","html-button-response","90","145376","0.0-90.0","633.8000000119209","","","","1","","",""
"","html-keyboard-response","91","146381","0.0-91.0","null","<div style=""font-size:60px;"">+</div>","null","","","","",""
"","image-button-response","92","146883","0.0-92.0","null","stimuli/images_hvm10/im137.png","","","null","137","6","3"
"","html-button-response","93","148352","0.0-93.0","1466.9000000059605","","","","1","","",""
"","html-keyboard-response","94","149355","0.0-94.0","null","<div style=""font-size:60px;"">+</div>","null","","","","",""
"","image-button-response","95","149861","0.0-95.0","null","stimuli/images_hvm10/im39.png","","","null","39","2","1"
"","html-button-response","96","150572","0.0-96.0","709.1999999880791","","","","1","","",""
"","html-keyboard-response","97","151577","0.0-97.0","null","<div style=""font-size:60px;"">+</div>","null","","","","",""
"","image-button-response","98","152079","0.0-98.0","null","stimuli/images_hvm10/im98.png","","","null","98","6","4"
"","html-button-response","99","152640","0.0-99.0","559.2000000029802","","","","0","","",""
"","html-keyboard-response","100","153643","0.0-100.0","null","<div style=""font-size:60px;"">+</div>","null","","","","",""
"","image-button-response","101","154150","0.0-101.0","null","stimuli/images_hvm10/im115.png","","","null","115","5","2"
"","html-button-response","102","154989","0.0-102.0","837","","","","0","","",""
"","html-keyboard-response","103","155996","0.0-103.0","null","<div style=""font-size:60px;"">+</div>","null","","","","",""
"","image-button-response","104","156500","0.0-104.0","null","stimuli/images_hvm10/im86.png","","","null","86","2","4"
"","html-button-response","105","157126","0.0-105.0","624","","","","1","","",""
"","html-keyboard-response","106","158128","0.0-106.0","null","<div style=""font-size:60px;"">+</div>","null","","","","",""
"","image-button-response","107","158631","0.0-107.0","null","stimuli/images_hvm10/im14.png","","","null","14","0","5"
"","html-button-response","108","159138","0.0-108.0","504.8999999910593","","","","0","","",""
"","html-keyboard-response","109","160141","0.0-109.0","null","<div style=""font-size:60px;"">+</div>","null","","","","",""
"","image-button-response","110","160645","0.0-110.0","null","stimuli/images_hvm10/im65.png","","","null","65","0","3"
"","html-button-response","111","161146","0.0-111.0","499","","","","1","","",""
"","html-keyboard-response","112","162148","0.0-112.0","null","<div style=""font-size:60px;"">+</div>","null","","","","",""
"","image-button-response","113","162652","0.0-113.0","null","stimuli/images_hvm10/im78.png","","","null","78","1","3"
"","html-button-response","114","163123","0.0-114.0","468.79999999701977","","","","1","","",""
"","html-keyboard-response","115","164126","0.0-115.0","null","<div style=""font-size:60px;"">+</div>","null","","","","",""
"","image-button-response","116","164631","0.0-116.0","null","stimuli/images_hvm10/im179.png","","","null","179","8","9"
"","html-button-response","117","165747","0.0-117.0","1113.300000011921","","","","0","","",""
"","html-keyboard-response","118","166751","0.0-118.0","null","<div style=""font-size:60px;"">+</div>","null","","","","",""
"","image-button-response","119","167254","0.0-119.0","null","stimuli/images_hvm10/im186.png","","","null","186","9","1"
"","html-button-response","120","167828","0.0-120.0","572.5999999940395","","","","0","","",""
"","html-keyboard-response","121","168831","0.0-121.0","null","<div style=""font-size:60px;"">+</div>","null","","","","",""
"","image-button-response","122","169337","0.0-122.0","null","stimuli/images_hvm10/im114.png","","","null","114","7","5"
"","html-button-response","123","169992","0.0-123.0","653","","","","1","","",""
"","html-keyboard-response","124","170996","0.0-124.0","null","<div style=""font-size:60px;"">+</div>","null","","","","",""
"","image-button-response","125","171499","0.0-125.0","null","stimuli/images_hvm10/im31.png","","","null","31","5","1"
"","html-button-response","126","172349","0.0-126.0","846.7000000029802","","","","1","","",""
"","html-keyboard-response","127","173355","0.0-127.0","null","<div style=""font-size:60px;"">+</div>","null","","","","",""
"","image-button-response","128","173861","0.0-128.0","null","stimuli/images_hvm10/im18.png","","","null","18","0","6"
"","html-button-response","129","174350","0.0-129.0","487","","","","0","","",""
"","html-keyboard-response","130","175352","0.0-130.0","null","<div style=""font-size:60px;"">+</div>","null","","","","",""
"","image-button-response","131","175855","0.0-131.0","null","stimuli/images_hvm10/im56.png","","","null","56","3","2"
"","html-button-response","132","176449","0.0-132.0","591.8000000119209","","","","1","","",""
"","html-keyboard-response","133","177454","0.0-133.0","null","<div style=""font-size:60px;"">+</div>","null","","","","",""
"","image-button-response","134","177961","0.0-134.0","null","stimuli/images_hvm10/im23.png","","","null","23","8","1"
"","html-button-response","135","178749","0.0-135.0","785.2999999970198","","","","1","","",""
"","html-keyboard-response","136","179753","0.0-136.0","null","<div style=""font-size:60px;"">+</div>","null","","","","",""
"","image-button-response","137","180260","0.0-137.0","null","stimuli/images_hvm10/im49.png","","","null","49","6","2"
"","html-button-response","138","181173","0.0-138.0","910.2999999970198","","","","1","","",""
"","html-keyboard-response","139","182178","0.0-139.0","null","<div style=""font-size:60px;"">+</div>","null","","","","",""
"","image-button-response","140","182683","0.0-140.0","null","stimuli/images_hvm10/im92.png","","","null","92","9","4"
"","html-button-response","141","183487","0.0-141.0","801.4000000059605","","","","1","","",""
"","html-keyboard-response","142","184490","0.0-142.0","null","<div style=""font-size:60px;"">+</div>","null","","","","",""
"","image-button-response","143","184992","0.0-143.0","null","stimuli/images_hvm10/im121.png","","","null","121","6","7"
"","html-button-response","144","185967","0.0-144.0","972.4000000059605","","","","0","","",""
"","html-keyboard-response","145","186974","0.0-145.0","null","<div style=""font-size:60px;"">+</div>","null","","","","",""
"","image-button-response","146","187479","0.0-146.0","null","stimuli/images_hvm10/im90.png","","","null","90","4","5"
"","html-button-response","147","188057","0.0-147.0","575.3999999910593","","","","0","","",""
"","html-keyboard-response","148","189062","0.0-148.0","null","<div style=""font-size:60px;"">+</div>","null","","","","",""
"","image-button-response","149","189569","0.0-149.0","null","stimuli/images_hvm10/im84.png","","","null","84","6","4"
"","html-button-response","150","190204","0.0-150.0","633.0999999940395","","","","1","","",""
"","html-keyboard-response","151","191209","0.0-151.0","null","<div style=""font-size:60px;"">+</div>","null","","","","",""
"","image-button-response","152","191715","0.0-152.0","null","stimuli/images_hvm10/im171.png","","","null","171","7","8"
"","html-button-response","153","192562","0.0-153.0","845.7999999970198","","","","1","","",""
"","html-keyboard-response","154","193566","0.0-154.0","null","<div style=""font-size:60px;"">+</div>","null","","","","",""
"","image-button-response","155","194068","0.0-155.0","null","stimuli/images_hvm10/im175.png","","","null","175","9","8"
"","html-button-response","156","194692","0.0-156.0","621.7999999970198","","","","1","","",""
"","html-keyboard-response","157","195697","0.0-157.0","null","<div style=""font-size:60px;"">+</div>","null","","","","",""
"","image-button-response","158","196204","0.0-158.0","null","stimuli/images_hvm10/im103.png","","","null","103","7","5"
"","html-button-response","159","196734","0.0-159.0","527.7999999970198","","","","1","","",""
"","html-keyboard-response","160","197737","0.0-160.0","null","<div style=""font-size:60px;"">+</div>","null","","","","",""
"","image-button-response","161","198241","0.0-161.0","null","stimuli/images_hvm10/im3.png","","","null","3","3","0"
"","html-button-response","162","198824","0.0-162.0","582.0999999940395","","","","1","","",""
"","html-keyboard-response","163","199830","0.0-163.0","null","<div style=""font-size:60px;"">+</div>","null","","","","",""
"","image-button-response","164","200337","0.0-164.0","null","stimuli/images_hvm10/im170.png","","","null","170","0","8"
"","html-button-response","165","200825","0.0-165.0","485.6000000089407","","","","1","","",""
"","html-keyboard-response","166","201827","0.0-166.0","null","<div style=""font-size:60px;"">+</div>","null","","","","",""
"","image-button-response","167","202329","0.0-167.0","null","stimuli/images_hvm10/im153.png","","","null","153","7","0"
"","html-button-response","168","202818","0.0-168.0","487.40000000596046","","","","0","","",""
"","html-keyboard-response","169","203823","0.0-169.0","null","<div style=""font-size:60px;"">+</div>","null","","","","",""
"","image-button-response","170","204325","0.0-170.0","null","stimuli/images_hvm10/im62.png","","","null","62","6","3"
"","html-button-response","171","204868","0.0-171.0","541.2000000029802","","","","1","","",""
"","html-keyboard-response","172","205871","0.0-172.0","null","<div style=""font-size:60px;"">+</div>","null","","","","",""
"","image-button-response","173","206372","0.0-173.0","null","stimuli/images_hvm10/im28.png","","","null","28","4","1"
"","html-button-response","174","206968","0.0-174.0","594.2999999970198","","","","1","","",""
"","html-keyboard-response","175","207973","0.0-175.0","null","<div style=""font-size:60px;"">+</div>","null","","","","",""
"","image-button-response","176","208476","0.0-176.0","null","stimuli/images_hvm10/im61.png","","","null","61","7","3"
"","html-button-response","177","209266","0.0-177.0","788.7000000029802","","","","1","","",""
"","html-keyboard-response","178","210273","0.0-178.0","null","<div style=""font-size:60px;"">+</div>","null","","","","",""
"","image-button-response","179","210776","0.0-179.0","null","stimuli/images_hvm10/im63.png","","","null","63","3","5"
"","html-button-response","180","211648","0.0-180.0","870.2000000029802","","","","0","","",""
"","html-keyboard-response","181","212652","0.0-181.0","null","<div style=""font-size:60px;"">+</div>","null","","","","",""
"","image-button-response","182","213155","0.0-182.0","null","stimuli/images_hvm10/im4.png","","","null","4","0","3"
"","html-button-response","183","213757","0.0-183.0","600.5","","","","0","","",""
"","html-keyboard-response","184","214760","0.0-184.0","null","<div style=""font-size:60px;"">+</div>","null","","","","",""
"","image-button-response","185","215265","0.0-185.0","null","stimuli/images_hvm10/im193.png","","","null","193","4","9"
"","html-button-response","186","215838","0.0-186.0","570.7999999970198","","","","1","","",""
"","html-keyboard-response","187","216843","0.0-187.0","null","<div style=""font-size:60px;"">+</div>","null","","","","",""
"","image-button-response","188","217347","0.0-188.0","null","stimuli/images_hvm10/im185.png","","","null","185","2","9"
"","html-button-response","189","218251","0.0-189.0","902.1000000089407","","","","0","","",""
"","html-keyboard-response","190","219255","0.0-190.0","null","<div style=""font-size:60px;"">+</div>","null","","","","",""
"","image-button-response","191","219761","0.0-191.0","null","stimuli/images_hvm10/im59.png","","","null","59","6","2"
"","html-button-response","192","220416","0.0-192.0","653.2999999970198","","","","1","","",""
"","html-keyboard-response","193","221418","0.0-193.0","null","<div style=""font-size:60px;"">+</div>","null","","","","",""
"","image-button-response","194","221923","0.0-194.0","null","stimuli/images_hvm10/im74.png","","","null","74","1","3"
"","html-button-response","195","222561","0.0-195.0","635.9000000059605","","","","1","","",""
"","html-keyboard-response","196","223566","0.0-196.0","null","<div style=""font-size:60px;"">+</div>","null","","","","",""
"","image-button-response","197","224073","0.0-197.0","null","stimuli/images_hvm10/im82.png","","","null","82","4","7"
"","html-button-response","198","224653","0.0-198.0","578.1000000089407","","","","0","","",""
"","html-keyboard-response","199","225655","0.0-199.0","null","<div style=""font-size:60px;"">+</div>","null","","","","",""
"","image-button-response","200","226160","0.0-200.0","null","stimuli/images_hvm10/im126.png","","","null","126","8","6"
"","html-button-response","201","226848","0.0-201.0","685.9000000059605","","","","1","","",""
"","html-keyboard-response","202","227851","0.0-202.0","null","<div style=""font-size:60px;"">+</div>","null","","","","",""
"","image-button-response","203","228355","0.0-203.0","null","stimuli/images_hvm10/im91.png","","","null","91","4","7"
"","html-button-response","204","228915","0.0-204.0","559.2000000029802","","","","0","","",""
"","html-keyboard-response","205","229919","0.0-205.0","null","<div style=""font-size:60px;"">+</div>","null","","","","",""
"","image-button-response","206","230422","0.0-206.0","null","stimuli/images_hvm10/im54.png","","","null","54","2","7"
"","html-button-response","207","230981","0.0-207.0","557.0999999940395","","","","0","","",""
"","html-keyboard-response","208","231986","0.0-208.0","null","<div style=""font-size:60px;"">+</div>","null","","","","",""
"","image-button-response","209","232488","0.0-209.0","null","stimuli/images_hvm10/im147.png","","","null","147","0","7"
"","html-button-response","210","233039","0.0-210.0","549.2000000029802","","","","1","","",""
"","html-keyboard-response","211","234043","0.0-211.0","null","<div style=""font-size:60px;"">+</div>","null","","","","",""
"","image-button-response","212","234548","0.0-212.0","null","stimuli/images_hvm10/im25.png","","","null","25","6","1"
"","html-button-response","213","235114","0.0-213.0","563.2999999970198","","","","1","","",""
"","html-keyboard-response","214","236116","0.0-214.0","null","<div style=""font-size:60px;"">+</div>","null","","","","",""
"","image-button-response","215","236618","0.0-215.0","null","stimuli/images_hvm10/im195.png","","","null","195","9","1"
"","html-button-response","216","237008","0.0-216.0","387.20000000298023","","","","0","","",""
"","html-keyboard-response","217","238014","0.0-217.0","null","<div style=""font-size:60px;"">+</div>","null","","","","",""
"","image-button-response","218","238519","0.0-218.0","null","stimuli/images_hvm10/im110.png","","","null","110","8","5"
"","html-button-response","219","239019","0.0-219.0","497.3999999910593","","","","1","","",""
"","html-keyboard-response","220","240025","0.0-220.0","null","<div style=""font-size:60px;"">+</div>","null","","","","",""
"","image-button-response","221","240528","0.0-221.0","null","stimuli/images_hvm10/im42.png","","","null","42","2","1"
"","html-button-response","222","241063","0.0-222.0","532","","","","1","","",""
"","html-keyboard-response","223","242067","0.0-223.0","null","<div style=""font-size:60px;"">+</div>","null","","","","",""
"","image-button-response","224","242570","0.0-224.0","null","stimuli/images_hvm10/im113.png","","","null","113","5","1"
"","html-button-response","225","242925","0.0-225.0","352.5","","","","0","","",""
"","html-keyboard-response","226","243928","0.0-226.0","null","<div style=""font-size:60px;"">+</div>","null","","","","",""
"","image-button-response","227","244430","0.0-227.0","null","stimuli/images_hvm10/im93.png","","","null","93","4","0"
"","html-button-response","228","245235","0.0-228.0","802.8999999910593","","","","1","","",""
"","html-keyboard-response","229","246239","0.0-229.0","null","<div style=""font-size:60px;"">+</div>","null","","","","",""
"","image-button-response","230","246746","0.0-230.0","null","stimuli/images_hvm10/im2.png","","","null","2","0","6"
"","html-button-response","231","247429","0.0-231.0","681","","","","0","","",""
"","html-keyboard-response","232","248432","0.0-232.0","null","<div style=""font-size:60px;"">+</div>","null","","","","",""
"","image-button-response","233","248936","0.0-233.0","null","stimuli/images_hvm10/im102.png","","","null","102","7","5"
"","html-button-response","234","249465","0.0-234.0","526.7000000029802","","","","1","","",""
"","html-keyboard-response","235","250468","0.0-235.0","null","<div style=""font-size:60px;"">+</div>","null","","","","",""
"","image-button-response","236","250972","0.0-236.0","null","stimuli/images_hvm10/im55.png","","","null","55","8","2"
"","html-button-response","237","251596","0.0-237.0","622.4000000059605","","","","1","","",""
"","html-keyboard-response","238","252599","0.0-238.0","null","<div style=""font-size:60px;"">+</div>","null","","","","",""
"","image-button-response","239","253103","0.0-239.0","null","stimuli/images_hvm10/im33.png","","","null","33","1","5"
"","html-button-response","240","254122","0.0-240.0","1016.5999999940395","","","","0","","",""
"","html-keyboard-response","241","255129","0.0-241.0","null","<div style=""font-size:60px;"">+</div>","null","","","","",""
"","image-button-response","242","255635","0.0-242.0","null","stimuli/images_hvm10/im124.png","","","null","124","6","9"
"","html-button-response","243","256221","0.0-243.0","583.0999999940395","","","","1","","",""
"","html-keyboard-response","244","257222","0.0-244.0","null","<div style=""font-size:60px;"">+</div>","null","","","","",""
"","image-button-response","245","257726","0.0-245.0","null","stimuli/images_hvm10/im48.png","","","null","48","3","2"
"","html-button-response","246","258326","0.0-246.0","597.5999999940395","","","","1","","",""
"","html-keyboard-response","247","259328","0.0-247.0","null","<div style=""font-size:60px;"">+</div>","null","","","","",""
"","image-button-response","248","259834","0.0-248.0","null","stimuli/images_hvm10/im132.png","","","null","132","6","2"
"","html-button-response","249","260580","0.0-249.0","743.7999999970198","","","","1","","",""
"","html-keyboard-response","250","261585","0.0-250.0","null","<div style=""font-size:60px;"">+</div>","null","","","","",""
"","image-button-response","251","262089","0.0-251.0","null","stimuli/images_hvm10/im108.png","","","null","108","5","9"
"","html-button-response","252","263088","0.0-252.0","996.5","","","","0","","",""
"","html-keyboard-response","253","264093","0.0-253.0","null","<div style=""font-size:60px;"">+</div>","null","","","","",""
"","image-button-response","254","264598","0.0-254.0","null","stimuli/images_hvm10/im141.png","","","null","141","0","7"
"","html-button-response","255","265197","0.0-255.0","595.7999999970198","","","","1","","",""
"","html-keyboard-response","256","266202","0.0-256.0","null","<div style=""font-size:60px;"">+</div>","null","","","","",""
"","image-button-response","257","266710","0.0-257.0","null","stimuli/images_hvm10/im105.png","","","null","105","9","5"
"","html-button-response","258","267222","0.0-258.0","510.29999999701977","","","","1","","",""
"","html-keyboard-response","259","268225","0.0-259.0","null","<div style=""font-size:60px;"">+</div>","null","","","","",""
"","image-button-response","260","268730","0.0-260.0","null","stimuli/images_hvm10/im111.png","","","null","111","1","5"
"","html-button-response","261","269150","0.0-261.0","418.20000000298023","","","","1","","",""
"","html-keyboard-response","262","270155","0.0-262.0","null","<div style=""font-size:60px;"">+</div>","null","","","","",""
"","image-button-response","263","270658","0.0-263.0","null","stimuli/images_hvm10/im150.png","","","null","150","2","7"
"","html-button-response","264","271377","0.0-264.0","716.7000000029802","","","","1","","",""
"","html-keyboard-response","265","272380","0.0-265.0","null","<div style=""font-size:60px;"">+</div>","null","","","","",""
"","image-button-response","266","272884","0.0-266.0","null","stimuli/images_hvm10/im9.png","","","null","9","7","0"
"","html-button-response","267","273462","0.0-267.0","575.5999999940395","","","","1","","",""
"","html-keyboard-response","268","274467","0.0-268.0","null","<div style=""font-size:60px;"">+</div>","null","","","","",""
"","image-button-response","269","274969","0.0-269.0","null","stimuli/images_hvm10/im187.png","","","null","187","5","9"
"","html-button-response","270","275536","0.0-270.0","565.7000000029802","","","","1","","",""
"","html-keyboard-response","271","276541","0.0-271.0","null","<div style=""font-size:60px;"">+</div>","null","","","","",""
"","image-button-response","272","277048","0.0-272.0","null","stimuli/images_hvm10/im34.png","","","null","34","1","0"
"","html-button-response","273","277641","0.0-273.0","590.6000000089407","","","","0","","",""
"","html-keyboard-response","274","278643","0.0-274.0","null","<div style=""font-size:60px;"">+</div>","null","","","","",""
"","image-button-response","275","279145","0.0-275.0","null","stimuli/images_hvm10/im30.png","","","null","30","1","9"
"","html-button-response","276","279983","0.0-276.0","836.2999999970198","","","","0","","",""
"","html-keyboard-response","277","280989","0.0-277.0","null","<div style=""font-size:60px;"">+</div>","null","","","","",""
"","image-button-response","278","281493","0.0-278.0","null","stimuli/images_hvm10/im142.png","","","null","142","7","6"
"","html-button-response","279","282034","0.0-279.0","538.9000000059605","","","","0","","",""
"","html-keyboard-response","280","283036","0.0-280.0","null","<div style=""font-size:60px;"">+</div>","null","","","","",""
"","image-button-response","281","283538","0.0-281.0","null","stimuli/images_hvm10/im178.png","","","null","178","8","2"
"","html-button-response","282","284479","0.0-282.0","939.0999999940395","","","","0","","",""
"","html-keyboard-response","283","285482","0.0-283.0","null","<div style=""font-size:60px;"">+</div>","null","","","","",""
"","image-button-response","284","285985","0.0-284.0","null","stimuli/images_hvm10/im40.png","","","null","40","7","2"
"","html-button-response","285","286439","0.0-285.0","451.80000001192093","","","","1","","",""
"","html-keyboard-response","286","287443","0.0-286.0","null","<div style=""font-size:60px;"">+</div>","null","","","","",""
"","image-button-response","287","287946","0.0-287.0","null","stimuli/images_hvm10/im46.png","","","null","46","2","1"
"","html-button-response","288","289450","0.0-288.0","1501.699999988079","","","","0","","",""
"","html-keyboard-response","289","290455","0.0-289.0","null","<div style=""font-size:60px;"">+</div>","null","","","","",""
"","image-button-response","290","290958","0.0-290.0","null","stimuli/images_hvm10/im198.png","","","null","198","8","9"
"","html-button-response","291","291728","0.0-291.0","766.8999999910593","","","","1","","",""
"","html-keyboard-response","292","292730","0.0-292.0","null","<div style=""font-size:60px;"">+</div>","null","","","","",""
"","image-button-response","293","293234","0.0-293.0","null","stimuli/images_hvm10/im134.png","","","null","134","4","6"
"","html-button-response","294","294268","0.0-294.0","1032.2000000029802","","","","1","","",""
"","html-keyboard-response","295","295272","0.0-295.0","null","<div style=""font-size:60px;"">+</div>","null","","","","",""
"","image-button-response","296","295778","0.0-296.0","null","stimuli/images_hvm10/im109.png","","","null","109","5","6"
"","html-button-response","297","296442","0.0-297.0","662.0999999940395","","","","0","","",""
"","html-keyboard-response","298","297444","0.0-298.0","null","<div style=""font-size:60px;"">+</div>","null","","","","",""
"","image-button-response","299","297948","0.0-299.0","null","stimuli/images_hvm10/im151.png","","","null","151","4","7"
"","html-button-response","300","298523","0.0-300.0","572.7999999970198","","","","1","","",""
"","html-keyboard-response","301","299527","0.0-301.0","null","<div style=""font-size:60px;"">+</div>","null","","","","",""
"","image-button-response","302","300031","0.0-302.0","null","stimuli/images_hvm10/im168.png","","","null","168","2","8"
"","html-button-response","303","300605","0.0-303.0","572.5","","","","1","","",""
"","html-keyboard-response","304","301610","0.0-304.0","null","<div style=""font-size:60px;"">+</div>","null","","","","",""
"","image-button-response","305","302116","0.0-305.0","null","stimuli/images_hvm10/im154.png","","","null","154","0","7"
"","html-button-response","306","302784","0.0-306.0","666.2000000029802","","","","1","","",""
"","html-keyboard-response","307","303789","0.0-307.0","null","<div style=""font-size:60px;"">+</div>","null","","","","",""
"","image-button-response","308","304292","0.0-308.0","null","stimuli/images_hvm10/im11.png","","","null","11","0","8"
"","html-button-response","309","304909","0.0-309.0","614.3000000119209","","","","0","","",""
"","html-keyboard-response","310","305912","0.0-310.0","null","<div style=""font-size:60px;"">+</div>","null","","","","",""
"","image-button-response","311","306418","0.0-311.0","null","stimuli/images_hvm10/im69.png","","","null","69","3","4"
"","html-button-response","312","307040","0.0-312.0","620.4000000059605","","","","0","","",""
"","html-keyboard-response","313","308042","0.0-313.0","null","<div style=""font-size:60px;"">+</div>","null","","","","",""
"","image-button-response","314","308546","0.0-314.0","null","stimuli/images_hvm10/im5.png","","","null","5","0","5"
"","html-button-response","315","309187","0.0-315.0","638.7999999970198","","","","0","","",""
"","html-keyboard-response","316","310192","0.0-316.0","null","<div style=""font-size:60px;"">+</div>","null","","","","",""
"","image-button-response","317","310695","0.0-317.0","null","stimuli/images_hvm10/im149.png","","","null","149","1","7"
"","html-button-response","318","311243","0.0-318.0","546.3999999910593","","","","1","","",""
"","html-keyboard-response","319","312250","0.0-319.0","null","<div style=""font-size:60px;"">+</div>","null","","","","",""
"","image-button-response","320","312757","0.0-320.0","null","stimuli/images_hvm10/im27.png","","","null","27","4","1"
"","html-button-response","321","313586","0.0-321.0","826.1000000089407","","","","1","","",""
"","html-keyboard-response","322","314590","0.0-322.0","null","<div style=""font-size:60px;"">+</div>","null","","","","",""
"","image-button-response","323","315096","0.0-323.0","null","stimuli/images_hvm10/im96.png","","","null","96","2","4"
"","html-button-response","324","316370","0.0-324.0","1271.5","","","","1","","",""
"","html-keyboard-response","325","317375","0.0-325.0","null","<div style=""font-size:60px;"">+</div>","null","","","","",""
"","image-button-response","326","317880","0.0-326.0","null","stimuli/images_hvm10/im26.png","","","null","26","1","3"
"","html-button-response","327","318687","0.0-327.0","805.4000000059605","","","","0","","",""
"","html-keyboard-response","328","319693","0.0-328.0","null","<div style=""font-size:60px;"">+</div>","null","","","","",""
"","image-button-response","329","320198","0.0-329.0","null","stimuli/images_hvm10/im167.png","","","null","167","6","8"
"","html-button-response","330","321666","0.0-330.0","1465.300000011921","","","","1","","",""
"","html-keyboard-response","331","322669","0.0-331.0","null","<div style=""font-size:60px;"">+</div>","null","","","","",""
"","image-button-response","332","323176","0.0-332.0","null","stimuli/images_hvm10/im53.png","","","null","53","8","2"
"","html-button-response","333","323682","0.0-333.0","503.59999999403954","","","","1","","",""
"","html-keyboard-response","334","324684","0.0-334.0","null","<div style=""font-size:60px;"">+</div>","null","","","","",""
"","image-button-response","335","325190","0.0-335.0","null","stimuli/images_hvm10/im135.png","","","null","135","6","9"
"","html-button-response","336","325821","0.0-336.0","629.2000000029802","","","","0","","",""
"","html-keyboard-response","337","326825","0.0-337.0","null","<div style=""font-size:60px;"">+</div>","null","","","","",""
"","image-button-response","338","327328","0.0-338.0","null","stimuli/images_hvm10/im51.png","","","null","51","2","8"
"","html-button-response","339","327943","0.0-339.0","612","","","","0","","",""
"","html-keyboard-response","340","328945","0.0-340.0","null","<div style=""font-size:60px;"">+</div>","null","","","","",""
"","image-button-response","341","329450","0.0-341.0","null","stimuli/images_hvm10/im125.png","","","null","125","9","6"
"","html-button-response","342","330179","0.0-342.0","726.3999999910593","","","","1","","",""
"","html-keyboard-response","343","331180","0.0-343.0","null","<div style=""font-size:60px;"">+</div>","null","","","","",""
"","image-button-response","344","331687","0.0-344.0","null","stimuli/images_hvm10/im163.png","","","null","163","5","8"
"","html-button-response","345","332207","0.0-345.0","517.5999999940395","","","","1","","",""
"","html-keyboard-response","346","333211","0.0-346.0","null","<div style=""font-size:60px;"">+</div>","null","","","","",""
"","image-button-response","347","333716","0.0-347.0","null","stimuli/images_hvm10/im97.png","","","null","97","4","3"
"","html-button-response","348","334362","0.0-348.0","643.5999999940395","","","","0","","",""
"","html-keyboard-response","349","335367","0.0-349.0","null","<div style=""font-size:60px;"">+</div>","null","","","","",""
"","image-button-response","350","335869","0.0-350.0","null","stimuli/images_hvm10/im104.png","","","null","104","9","5"
"","html-button-response","351","336402","0.0-351.0","530.1999999880791","","","","1","","",""
"","html-keyboard-response","352","337406","0.0-352.0","null","<div style=""font-size:60px;"">+</div>","null","","","","",""
"","image-button-response","353","337913","0.0-353.0","null","stimuli/images_hvm10/im13.png","","","null","13","0","2"
"","html-button-response","354","338519","0.0-354.0","604","","","","0","","",""
"","html-keyboard-response","355","339525","0.0-355.0","null","<div style=""font-size:60px;"">+</div>","null","","","","",""
"","image-button-response","356","340032","0.0-356.0","null","stimuli/images_hvm10/im6.png","","","null","6","0","4"
"","html-button-response","357","340520","0.0-357.0","485.29999999701977","","","","0","","",""
"","html-keyboard-response","358","341525","0.0-358.0","null","<div style=""font-size:60px;"">+</div>","null","","","","",""
"","image-button-response","359","342032","0.0-359.0","null","stimuli/images_hvm10/im60.png","","","null","60","3","6"
"","html-button-response","360","342827","0.0-360.0","791.3999999910593","","","","0","","",""
"","html-keyboard-response","361","343832","0.0-361.0","null","<div style=""font-size:60px;"">+</div>","null","","","","",""
"","image-button-response","362","344335","0.0-362.0","null","stimuli/images_hvm10/im73.png","","","null","73","3","6"
"","html-button-response","363","344868","0.0-363.0","530","","","","0","","",""
"","html-keyboard-response","364","345875","0.0-364.0","null","<div style=""font-size:60px;"">+</div>","null","","","","",""
"","image-button-response","365","346379","0.0-365.0","null","stimuli/images_hvm10/im21.png","","","null","21","2","1"
"","html-button-response","366","347662","0.0-366.0","1280","","","","0","","",""
"","html-keyboard-response","367","348668","0.0-367.0","null","<div style=""font-size:60px;"">+</div>","null","","","","",""
"","image-button-response","368","349171","0.0-368.0","null","stimuli/images_hvm10/im145.png","","","null","145","7","6"
"","html-button-response","369","349899","0.0-369.0","725.5","","","","0","","",""
"","html-keyboard-response","370","350902","0.0-370.0","null","<div style=""font-size:60px;"">+</div>","null","","","","",""
"","image-button-response","371","351406","0.0-371.0","null","stimuli/images_hvm10/im32.png","","","null","32","1","6"
"","html-button-response","372","352078","0.0-372.0","669.7000000029802","","","","0","","",""
"","html-keyboard-response","373","353083","0.0-373.0","null","<div style=""font-size:60px;"">+</div>","null","","","","",""
"","image-button-response","374","353589","0.0-374.0","null","stimuli/images_hvm10/im112.png","","","null","112","8","5"
"","html-button-response","375","354086","0.0-375.0","496.09999999403954","","","","1","","",""
"","html-keyboard-response","376","355090","0.0-376.0","null","<div style=""font-size:60px;"">+</div>","null","","","","",""
"","image-button-response","377","355596","0.0-377.0","null","stimuli/images_hvm10/im182.png","","","null","182","9","2"
"","html-button-response","378","356086","0.0-378.0","488.70000000298023","","","","0","","",""
"","html-keyboard-response","379","357092","0.0-379.0","null","<div style=""font-size:60px;"">+</div>","null","","","","",""
"","image-button-response","380","357595","0.0-380.0","null","stimuli/images_hvm10/im16.png","","","null","16","0","4"
"","html-button-response","381","358032","0.0-381.0","435.1000000089407","","","","0","","",""
"","html-keyboard-response","382","359035","0.0-382.0","null","<div style=""font-size:60px;"">+</div>","null","","","","",""
"","image-button-response","383","359541","0.0-383.0","null","stimuli/images_hvm10/im122.png","","","null","122","6","8"
"","html-button-response","384","360181","0.0-384.0","638.1000000089407","","","","0","","",""
"","html-keyboard-response","385","361188","0.0-385.0","null","<div style=""font-size:60px;"">+</div>","null","","","","",""
"","image-button-response","386","361692","0.0-386.0","null","stimuli/images_hvm10/im120.png","","","null","120","6","3"
"","html-button-response","387","362456","0.0-387.0","762.5999999940395","","","","0","","",""
"","html-keyboard-response","388","363462","0.0-388.0","null","<div style=""font-size:60px;"">+</div>","null","","","","",""
"","image-button-response","389","363967","0.0-389.0","null","stimuli/images_hvm10/im129.png","","","null","129","1","6"
"","html-button-response","390","364620","0.0-390.0","651.5","","","","0","","",""
"","html-keyboard-response","391","365624","0.0-391.0","null","<div style=""font-size:60px;"">+</div>","null","","","","",""
"","image-button-response","392","366127","0.0-392.0","null","stimuli/images_hvm10/im107.png","","","null","107","9","5"
"","html-button-response","393","366587","0.0-393.0","458.3999999910593","","","","1","","",""
"","html-keyboard-response","394","367592","0.0-394.0","null","<div style=""font-size:60px;"">+</div>","null","","","","",""
"","image-button-response","395","368095","0.0-395.0","null","stimuli/images_hvm10/im1.png","","","null","1","0","2"
"","html-button-response","396","368558","0.0-396.0","460.90000000596046","","","","0","","",""
"","html-keyboard-response","397","369561","0.0-397.0","null","<div style=""font-size:60px;"">+</div>","null","","","","",""
"","image-button-response","398","370063","0.0-398.0","null","stimuli/images_hvm10/im37.png","","","null","37","1","5"
"","html-button-response","399","370957","0.0-399.0","893.1999999880791","","","","1","","",""
"","html-keyboard-response","400","371962","0.0-400.0","null","<div style=""font-size:60px;"">+</div>","null","","","","",""
"","image-button-response","401","372466","0.0-401.0","null","stimuli/images_hvm10/im128.png","","","null","128","6","4"
"","html-button-response","402","373298","0.0-402.0","829.8000000119209","","","","0","","",""
"","html-keyboard-response","403","374302","0.0-403.0","null","<div style=""font-size:60px;"">+</div>","null","","","","",""
"","image-button-response","404","374804","0.0-404.0","null","stimuli/images_hvm10/im166.png","","","null","166","8","6"
"","html-button-response","405","375443","0.0-405.0","636.5","","","","0","","",""
"","html-keyboard-response","406","376449","0.0-406.0","null","<div style=""font-size:60px;"">+</div>","null","","","","",""
"","image-button-response","407","376956","0.0-407.0","null","stimuli/images_hvm10/im119.png","","","null","119","1","5"
"","html-button-response","408","377566","0.0-408.0","607.7000000029802","","","","1","","",""
"","html-keyboard-response","409","378571","0.0-409.0","null","<div style=""font-size:60px;"">+</div>","null","","","","",""
"","image-button-response","410","379075","0.0-410.0","null","stimuli/images_hvm10/im81.png","","","null","81","4","6"
"","html-button-response","411","379691","0.0-411.0","613.4000000059605","","","","0","","",""
"","html-keyboard-response","412","380696","0.0-412.0","null","<div style=""font-size:60px;"">+</div>","null","","","","",""
"","image-button-response","413","381198","0.0-413.0","null","stimuli/images_hvm10/im143.png","","","null","143","3","7"
"","html-button-response","414","382013","0.0-414.0","813","","","","1","","",""
"","html-keyboard-response","415","383017","0.0-415.0","null","<div style=""font-size:60px;"">+</div>","null","","","","",""
"","image-button-response","416","383522","0.0-416.0","null","stimuli/images_hvm10/im172.png","","","null","172","8","0"
"","html-button-response","417","384104","0.0-417.0","579.8999999910593","","","","0","","",""
"","html-keyboard-response","418","385106","0.0-418.0","null","<div style=""font-size:60px;"">+</div>","null","","","","",""
"","image-button-response","419","385610","0.0-419.0","null","stimuli/images_hvm10/im101.png","","","null","101","6","5"
"","html-button-response","420","386147","0.0-420.0","534.7000000029802","","","","1","","",""
"","html-keyboard-response","421","387152","0.0-421.0","null","<div style=""font-size:60px;"">+</div>","null","","","","",""
"","image-button-response","422","387656","0.0-422.0","null","stimuli/images_hvm10/im100.png","","","null","100","5","8"
"","html-button-response","423","388277","0.0-423.0","619","","","","0","","",""
"","html-keyboard-response","424","389282","0.0-424.0","null","<div style=""font-size:60px;"">+</div>","null","","","","",""
"","image-button-response","425","389789","0.0-425.0","null","stimuli/images_hvm10/im67.png","","","null","67","5","3"
"","html-button-response","426","390456","0.0-426.0","664.5999999940395","","","","1","","",""
"","html-keyboard-response","427","391459","0.0-427.0","null","<div style=""font-size:60px;"">+</div>","null","","","","",""
"","image-button-response","428","391965","0.0-428.0","null","stimuli/images_hvm10/im188.png","","","null","188","2","9"
"","html-button-response","429","392565","0.0-429.0","598.2000000029802","","","","1","","",""
"","html-keyboard-response","430","393569","0.0-430.0","null","<div style=""font-size:60px;"">+</div>","null","","","","",""
"","image-button-response","431","394076","0.0-431.0","null","stimuli/images_hvm10/im189.png","","","null","189","8","9"
"","html-button-response","432","394694","0.0-432.0","615.5","","","","1","","",""
"","html-keyboard-response","433","395695","0.0-433.0","null","<div style=""font-size:60px;"">+</div>","null","","","","",""
"","image-button-response","434","396198","0.0-434.0","null","stimuli/images_hvm10/im29.png","","","null","29","1","4"
"","html-button-response","435","396801","0.0-435.0","601.6000000089407","","","","0","","",""
"","html-keyboard-response","436","397806","0.0-436.0","null","<div style=""font-size:60px;"">+</div>","null","","","","",""
"","image-button-response","437","398308","0.0-437.0","null","stimuli/images_hvm10/im138.png","","","null","138","1","6"
"","html-button-response","438","398897","0.0-438.0","586.5","","","","1","","",""
"","html-keyboard-response","439","399900","0.0-439.0","null","<div style=""font-size:60px;"">+</div>","null","","","","",""
"","image-button-response","440","400403","0.0-440.0","null","stimuli/images_hvm10/im89.png","","","null","89","8","4"
"","html-button-response","441","401073","0.0-441.0","667.7999999970198","","","","1","","",""
"","html-keyboard-response","442","402074","0.0-442.0","null","<div style=""font-size:60px;"">+</div>","null","","","","",""
"","image-button-response","443","402578","0.0-443.0","null","stimuli/images_hvm10/im7.png","","","null","7","0","8"
"","html-button-response","444","403128","0.0-444.0","548.3999999910593","","","","0","","",""
"","html-keyboard-response","445","404134","0.0-445.0","null","<div style=""font-size:60px;"">+</div>","null","","","","",""
"","image-button-response","446","404637","0.0-446.0","null","stimuli/images_hvm10/im50.png","","","null","50","0","2"
"","html-button-response","447","405140","0.0-447.0","500.79999999701977","","","","1","","",""
"","html-keyboard-response","448","406141","0.0-448.0","null","<div style=""font-size:60px;"">+</div>","null","","","","",""
"","image-button-response","449","406646","0.0-449.0","null","stimuli/images_hvm10/im95.png","","","null","95","8","4"
"","html-button-response","450","407342","0.0-450.0","693.8999999910593","","","","1","","",""
"","html-keyboard-response","451","408349","0.0-451.0","null","<div style=""font-size:60px;"">+</div>","null","","","","",""
"","image-button-response","452","408853","0.0-452.0","null","stimuli/images_hvm10/im146.png","","","null","146","7","2"
"","html-button-response","453","409419","0.0-453.0","563.5","","","","0","","",""
"","html-keyboard-response","454","410425","0.0-454.0","null","<div style=""font-size:60px;"">+</div>","null","","","","",""
"","image-button-response","455","410928","0.0-455.0","null","stimuli/images_hvm10/im10.png","","","null","10","0","4"
"","html-button-response","456","411477","0.0-456.0","546.2999999970198","","","","0","","",""
"","html-keyboard-response","457","412482","0.0-457.0","null","<div style=""font-size:60px;"">+</div>","null","","","","",""
"","image-button-response","458","412985","0.0-458.0","null","stimuli/images_hvm10/im158.png","","","null","158","1","7"
"","html-button-response","459","413477","0.0-459.0","489.8999999910593","","","","1","","",""
"","html-keyboard-response","460","414481","0.0-460.0","null","<div style=""font-size:60px;"">+</div>","null","","","","",""
"","image-button-response","461","414985","0.0-461.0","null","stimuli/images_hvm10/im15.png","","","null","15","6","0"
"","html-button-response","462","415503","0.0-462.0","515.2999999970198","","","","1","","",""
"","html-keyboard-response","463","416506","0.0-463.0","null","<div style=""font-size:60px;"">+</div>","null","","","","",""
"","image-button-response","464","417009","0.0-464.0","null","stimuli/images_hvm10/im194.png","","","null","194","9","7"
"","html-button-response","465","417488","0.0-465.0","476.20000000298023","","","","0","","",""
"","html-keyboard-response","466","418491","0.0-466.0","null","<div style=""font-size:60px;"">+</div>","null","","","","",""
"","image-button-response","467","418995","0.0-467.0","null","stimuli/images_hvm10/im106.png","","","null","106","1","5"
"","html-button-response","468","419467","0.0-468.0","468.79999999701977","","","","1","","",""
"","html-keyboard-response","469","420473","0.0-469.0","null","<div style=""font-size:60px;"">+</div>","null","","","","",""
"","image-button-response","470","420980","0.0-470.0","null","stimuli/images_hvm10/im36.png","","","null","36","1","9"
"","html-button-response","471","421752","0.0-471.0","768.7999999970198","","","","0","","",""
"","html-keyboard-response","472","422755","0.0-472.0","null","<div style=""font-size:60px;"">+</div>","null","","","","",""
"","image-button-response","473","423258","0.0-473.0","null","stimuli/images_hvm10/im57.png","","","null","57","2","5"
"","html-button-response","474","423882","0.0-474.0","621.8000000119209","","","","1","","",""
"","html-keyboard-response","475","424886","0.0-475.0","null","<div style=""font-size:60px;"">+</div>","null","","","","",""
"","image-button-response","476","425393","0.0-476.0","null","stimuli/images_hvm10/im43.png","","","null","43","2","9"
"","html-button-response","477","425981","0.0-477.0","585.2999999970198","","","","0","","",""
"","html-keyboard-response","478","426983","0.0-478.0","null","<div style=""font-size:60px;"">+</div>","null","","","","",""
"","image-button-response","479","427489","0.0-479.0","null","stimuli/images_hvm10/im131.png","","","null","131","6","4"
"","html-button-response","480","428424","0.0-480.0","934.1000000089407","","","","1","","",""
"","html-keyboard-response","481","429426","0.0-481.0","null","<div style=""font-size:60px;"">+</div>","null","","","","",""
"","image-button-response","482","429931","0.0-482.0","null","stimuli/images_hvm10/im133.png","","","null","133","9","6"
"","html-button-response","483","430638","0.0-483.0","705.0999999940395","","","","1","","",""
"","html-keyboard-response","484","431641","0.0-484.0","null","<div style=""font-size:60px;"">+</div>","null","","","","",""
"","image-button-response","485","432145","0.0-485.0","null","stimuli/images_hvm10/im140.png","","","null","140","7","5"
"","html-button-response","486","432824","0.0-486.0","677.5","","","","0","","",""
"","html-keyboard-response","487","433825","0.0-487.0","null","<div style=""font-size:60px;"">+</div>","null","","","","",""
"","image-button-response","488","434328","0.0-488.0","null","stimuli/images_hvm10/im136.png","","","null","136","8","6"
"","html-button-response","489","435148","0.0-489.0","818.6000000089407","","","","1","","",""
"","html-keyboard-response","490","436154","0.0-490.0","null","<div style=""font-size:60px;"">+</div>","null","","","","",""
"","image-button-response","491","436657","0.0-491.0","null","stimuli/images_hvm10/im0.png","","","null","0","7","0"
"","html-button-response","492","437263","0.0-492.0","604.0999999940395","","","","1","","",""
"","html-keyboard-response","493","438266","0.0-493.0","null","<div style=""font-size:60px;"">+</div>","null","","","","",""
"","image-button-response","494","438773","0.0-494.0","null","stimuli/images_hvm10/im88.png","","","null","88","4","1"
"","html-button-response","495","439265","0.0-495.0","490.40000000596046","","","","1","","",""
"","html-keyboard-response","496","440268","0.0-496.0","null","<div style=""font-size:60px;"">+</div>","null","","","","",""
"","image-button-response","497","440772","0.0-497.0","null","stimuli/images_hvm10/im76.png","","","null","76","3","5"
"","html-button-response","498","441396","0.0-498.0","622.2999999970198","","","","0","","",""
"","html-keyboard-response","499","442398","0.0-499.0","null","<div style=""font-size:60px;"">+</div>","null","","","","",""
"","image-button-response","500","442901","0.0-500.0","null","stimuli/images_hvm10/im116.png","","","null","116","5","1"
"","html-button-response","501","443496","0.0-501.0","593.6000000089407","","","","0","","",""
"","html-keyboard-response","502","444498","0.0-502.0","null","<div style=""font-size:60px;"">+</div>","null","","","","",""
"","image-button-response","503","445000","0.0-503.0","null","stimuli/images_hvm10/im99.png","","","null","99","0","4"
"","html-button-response","504","445708","0.0-504.0","705.5999999940395","","","","1","","",""
"","html-keyboard-response","505","446712","0.0-505.0","null","<div style=""font-size:60px;"">+</div>","null","","","","",""
"","image-button-response","506","447216","0.0-506.0","null","stimuli/images_hvm10/im87.png","","","null","87","2","4"
"","html-button-response","507","447853","0.0-507.0","635","","","","1","","",""
"","html-keyboard-response","508","448855","0.0-508.0","null","<div style=""font-size:60px;"">+</div>","null","","","","",""
"","image-button-response","509","449357","0.0-509.0","null","stimuli/images_hvm10/im38.png","","","null","38","4","1"
"","html-button-response","510","450269","0.0-510.0","909.5999999940395","","","","1","","",""
"","html-keyboard-response","511","451273","0.0-511.0","null","<div style=""font-size:60px;"">+</div>","null","","","","",""
"","image-button-response","512","451775","0.0-512.0","null","stimuli/images_hvm10/im117.png","","","null","117","3","5"
"","html-button-response","513","452204","0.0-513.0","426.6000000089407","","","","1","","",""
"","html-keyboard-response","514","453207","0.0-514.0","null","<div style=""font-size:60px;"">+</div>","null","","","","",""
"","image-button-response","515","453711","0.0-515.0","null","stimuli/images_hvm10/im192.png","","","null","192","4","9"
"","html-button-response","516","454393","0.0-516.0","679.7000000029802","","","","1","","",""
"","html-keyboard-response","517","455395","0.0-517.0","null","<div style=""font-size:60px;"">+</div>","null","","","","",""
"","image-button-response","518","455902","0.0-518.0","null","stimuli/images_hvm10/im180.png","","","null","180","3","9"
"","html-button-response","519","456323","0.0-519.0","418.19999998807907","","","","1","","",""
"","html-keyboard-response","520","457325","0.0-520.0","null","<div style=""font-size:60px;"">+</div>","null","","","","",""
"","image-button-response","521","457829","0.0-521.0","null","stimuli/images_hvm10/im118.png","","","null","118","5","9"
"","html-button-response","522","458322","0.0-522.0","490.40000000596046","","","","0","","",""
"","html-keyboard-response","523","459325","0.0-523.0","null","<div style=""font-size:60px;"">+</div>","null","","","","",""
"","image-button-response","524","459827","0.0-524.0","null","stimuli/images_hvm10/im66.png","","","null","66","9","3"
"","html-button-response","525","460421","0.0-525.0","591.7999999970198","","","","1","","",""
"","html-keyboard-response","526","461422","0.0-526.0","null","<div style=""font-size:60px;"">+</div>","null","","","","",""
"","image-button-response","527","461927","0.0-527.0","null","stimuli/images_hvm10/im173.png","","","null","173","8","4"
"","html-button-response","528","462326","0.0-528.0","395.90000000596046","","","","1","","",""
"","html-keyboard-response","529","463330","0.0-529.0","null","<div style=""font-size:60px;"">+</div>","null","","","","",""
"","image-button-response","530","463832","0.0-530.0","null","stimuli/images_hvm10/im190.png","","","null","190","9","7"
"","html-button-response","531","464352","0.0-531.0","517.5","","","","0","","",""
"","html-keyboard-response","532","465355","0.0-532.0","null","<div style=""font-size:60px;"">+</div>","null","","","","",""
"","image-button-response","533","465857","0.0-533.0","null","stimuli/images_hvm10/im94.png","","","null","94","4","1"
"","html-button-response","534","466937","0.0-534.0","1078.0999999940395","","","","0","","",""
"","html-keyboard-response","535","467938","0.0-535.0","null","<div style=""font-size:60px;"">+</div>","null","","","","",""
"","image-button-response","536","468444","0.0-536.0","null","stimuli/images_hvm10/im123.png","","","null","123","6","0"
"","html-button-response","537","468992","0.0-537.0","546.2000000029802","","","","0","","",""
"","html-keyboard-response","538","469996","0.0-538.0","null","<div style=""font-size:60px;"">+</div>","null","","","","",""
"","image-button-response","539","470501","0.0-539.0","null","stimuli/images_hvm10/im160.png","","","null","160","8","1"
"","html-button-response","540","471377","0.0-540.0","873.5999999940395","","","","0","","",""
"","html-keyboard-response","541","472379","0.0-541.0","null","<div style=""font-size:60px;"">+</div>","null","","","","",""
"","image-button-response","542","472883","0.0-542.0","null","stimuli/images_hvm10/im35.png","","","null","35","1","0"
"","html-button-response","543","473698","0.0-543.0","813","","","","1","","",""
"","html-keyboard-response","544","474703","0.0-544.0","null","<div style=""font-size:60px;"">+</div>","null","","","","",""
"","image-button-response","545","475209","0.0-545.0","null","stimuli/images_hvm10/im47.png","","","null","47","0","2"
"","html-button-response","546","475815","0.0-546.0","604.0999999940395","","","","0","","",""
"","html-keyboard-response","547","476818","0.0-547.0","null","<div style=""font-size:60px;"">+</div>","null","","","","",""
"","image-button-response","548","477322","0.0-548.0","null","stimuli/images_hvm10/im64.png","","","null","64","3","0"
"","html-button-response","549","477922","0.0-549.0","597.6000000089407","","","","0","","",""
"","html-keyboard-response","550","478925","0.0-550.0","null","<div style=""font-size:60px;"">+</div>","null","","","","",""
"","image-button-response","551","479428","0.0-551.0","null","stimuli/images_hvm10/im127.png","","","null","127","6","9"
"","html-button-response","552","480013","0.0-552.0","582.2000000029802","","","","0","","",""
"","html-keyboard-response","553","481017","0.0-553.0","null","<div style=""font-size:60px;"">+</div>","null","","","","",""
"","image-button-response","554","481524","0.0-554.0","null","stimuli/images_hvm10/im71.png","","","null","71","6","3"
"","html-button-response","555","482395","0.0-555.0","868.2000000029802","","","","1","","",""
"","html-keyboard-response","556","483399","0.0-556.0","null","<div style=""font-size:60px;"">+</div>","null","","","","",""
"","image-button-response","557","483905","0.0-557.0","null","stimuli/images_hvm10/im83.png","","","null","83","4","8"
"","html-button-response","558","484491","0.0-558.0","583.6000000089407","","","","0","","",""
"","html-keyboard-response","559","485495","0.0-559.0","null","<div style=""font-size:60px;"">+</div>","null","","","","",""
"","image-button-response","560","486000","0.0-560.0","null","stimuli/images_hvm10/im19.png","","","null","19","0","7"
"","html-button-response","561","486583","0.0-561.0","580.3999999910593","","","","0","","",""
"","html-keyboard-response","562","487585","0.0-562.0","null","<div style=""font-size:60px;"">+</div>","null","","","","",""
"","image-button-response","563","488088","0.0-563.0","null","stimuli/images_hvm10/im24.png","","","null","24","1","9"
"","html-button-response","564","491941","0.0-564.0","3850.5","","","","0","","",""
"","html-keyboard-response","565","492947","0.0-565.0","null","<div style=""font-size:60px;"">+</div>","null","","","","",""
"","image-button-response","566","493452","0.0-566.0","null","stimuli/images_hvm10/im85.png","","","null","85","3","4"
"","html-button-response","567","494057","0.0-567.0","601.9000000059605","","","","0","","",""
"","html-keyboard-response","568","495061","0.0-568.0","null","<div style=""font-size:60px;"">+</div>","null","","","","",""
"","image-button-response","569","495566","0.0-569.0","null","stimuli/images_hvm10/im72.png","","","null","72","9","3"
"","html-button-response","570","496302","0.0-570.0","733.2000000029802","","","","1","","",""
"","html-keyboard-response","571","497306","0.0-571.0","null","<div style=""font-size:60px;"">+</div>","null","","","","",""
"","image-button-response","572","497814","0.0-572.0","null","stimuli/images_hvm10/im177.png","","","null","177","8","6"
"","html-button-response","573","498625","0.0-573.0","809","","","","0","","",""
"","html-keyboard-response","574","499629","0.0-574.0","null","<div style=""font-size:60px;"">+</div>","null","","","","",""
"","image-button-response","575","500135","0.0-575.0","null","stimuli/images_hvm10/im148.png","","","null","148","7","5"
"","html-button-response","576","500926","0.0-576.0","787.5","","","","0","","",""
"","html-keyboard-response","577","501931","0.0-577.0","null","<div style=""font-size:60px;"">+</div>","null","","","","",""
"","image-button-response","578","502437","0.0-578.0","null","stimuli/images_hvm10/im45.png","","","null","45","2","3"
"","html-button-response","579","503121","0.0-579.0","680.9000000059605","","","","0","","",""
"","html-keyboard-response","580","504124","0.0-580.0","null","<div style=""font-size:60px;"">+</div>","null","","","","",""
"","image-button-response","581","504627","0.0-581.0","null","stimuli/images_hvm10/im41.png","","","null","41","4","2"
"","html-button-response","582","505181","0.0-582.0","551.5999999940395","","","","1","","",""
"","html-keyboard-response","583","506186","0.0-583.0","null","<div style=""font-size:60px;"">+</div>","null","","","","",""
"","image-button-response","584","506692","0.0-584.0","null","stimuli/images_hvm10/im17.png","","","null","17","0","5"
"","html-button-response","585","507294","0.0-585.0","601","","","","0","","",""
"","html-keyboard-response","586","508298","0.0-586.0","null","<div style=""font-size:60px;"">+</div>","null","","","","",""
"","image-button-response","587","508800","0.0-587.0","null","stimuli/images_hvm10/im75.png","","","null","75","3","8"
"","html-button-response","588","509507","0.0-588.0","704.6000000089407","","","","0","","",""
"","html-keyboard-response","589","510513","0.0-589.0","null","<div style=""font-size:60px;"">+</div>","null","","","","",""
"","image-button-response","590","511016","0.0-590.0","null","stimuli/images_hvm10/im139.png","","","null","139","4","6"
"","html-button-response","591","511895","0.0-591.0","877.3999999910593","","","","1","","",""
"","html-keyboard-response","592","512897","0.0-592.0","null","<div style=""font-size:60px;"">+</div>","null","","","","",""
"","image-button-response","593","513400","0.0-593.0","null","stimuli/images_hvm10/im77.png","","","null","77","5","3"
"","html-button-response","594","513898","0.0-594.0","496.29999999701977","","","","1","","",""
"","html-keyboard-response","595","514904","0.0-595.0","null","<div style=""font-size:60px;"">+</div>","null","","","","",""
"","image-button-response","596","515409","0.0-596.0","null","stimuli/images_hvm10/im20.png","","","null","20","5","1"
"","html-button-response","597","515964","0.0-597.0","553.2000000029802","","","","1","","",""
"","html-keyboard-response","598","516966","0.0-598.0","null","<div style=""font-size:60px;"">+</div>","null","","","","",""
"","image-button-response","599","517468","0.0-599.0","null","stimuli/images_hvm10/im58.png","","","null","58","2","6"
"","html-button-response","600","517973","0.0-600.0","502.69999998807907","","","","0","","",""
