"success","trial_type","trial_index","time_elapsed","internal_node_id","rt","stimulus","key_press","responses","button_pressed","images","left_choice","right_choice"
"true","fullscreen","0","9532","0.0-0.0","","","","","","","",""
"","html-keyboard-response","1","11603","0.0-1.0","2067.5","Welcome to the experiment. Press any key to begin.","32","","","","",""
"","survey-html-form","2","100627","0.0-2.0","89021","","","{""p_id"":""7578"",""age"":""19"",""handedness"":""right"",""sex"":""female"",""other_sex"":""""}","","","",""
"","html-keyboard-response","3","160205","0.0-3.0","59575.59999999404","<p>Please fixate at the center '+' sign which will appear once you press any key. Then, <strong> an image </strong> will be shown in the center of the screen.</p><p>The image will contain an object.This will be followed by a <strong> Choice Screen </strong> containing two objects. Please choose the option <strong>[Click on the object]</strong> that you think was present in the image<p>Press any key to begin.</p>","32","","","","",""
"","html-keyboard-response","4","163213","0.0-4.0","null","<div style=""font-size:60px;"">+</div>","null","","","","",""
"","image-button-response","5","163721","0.0-5.0","null","stimuli/images_hvm10/im107.png","","","null","107","5","2"
"","html-button-response","6","167804","0.0-6.0","4078.9000000059605","","","","0","","",""
"","html-keyboard-response","7","168806","0.0-7.0","null","<div style=""font-size:60px;"">+</div>","null","","","","",""
"","image-button-response","8","169311","0.0-8.0","null","stimuli/images_hvm10/im155.png","","","null","155","7","3"
"","html-button-response","9","170988","0.0-9.0","1675.0999999940395","","","","0","","",""
"","html-keyboard-response","10","171995","0.0-10.0","null","<div style=""font-size:60px;"">+</div>","null","","","","",""
"","image-button-response","11","172502","0.0-11.0","null","stimuli/images_hvm10/im93.png","","","null","93","3","4"
"","html-button-response","12","175574","0.0-12.0","3069.5","","","","1","","",""
"","html-keyboard-response","13","176578","0.0-13.0","null","<div style=""font-size:60px;"">+</div>","null","","","","",""
"","image-button-response","14","177085","0.0-14.0","null","stimuli/images_hvm10/im66.png","","","null","66","1","3"
"","html-button-response","15","178526","0.0-15.0","1439","","","","1","","",""
"","html-keyboard-response","16","179533","0.0-16.0","null","<div style=""font-size:60px;"">+</div>","null","","","","",""
"","image-button-response","17","180036","0.0-17.0","null","stimuli/images_hvm10/im166.png","","","null","166","0","8"
"","html-button-response","18","182230","0.0-18.0","2191.7000000029802","","","","0","","",""
"","html-keyboard-response","19","183235","0.0-19.0","null","<div style=""font-size:60px;"">+</div>","null","","","","",""
"","image-button-response","20","183740","0.0-20.0","null","stimuli/images_hvm10/im186.png","","","null","186","6","9"
"","html-button-response","21","184817","0.0-21.0","1074.7000000029802","","","","1","","",""
"","html-keyboard-response","22","185819","0.0-22.0","null","<div style=""font-size:60px;"">+</div>","null","","","","",""
"","image-button-response","23","186322","0.0-23.0","null","stimuli/images_hvm10/im116.png","","","null","116","5","1"
"","html-button-response","24","187284","0.0-24.0","959.6000000089407","","","","0","","",""
"","html-keyboard-response","25","188291","0.0-25.0","null","<div style=""font-size:60px;"">+</div>","null","","","","",""
"","image-button-response","26","188798","0.0-26.0","null","stimuli/images_hvm10/im96.png","","","null","96","3","4"
"","html-button-response","27","190349","0.0-27.0","1548.7000000029802","","","","1","","",""
"","html-keyboard-response","28","191351","0.0-28.0","null","<div style=""font-size:60px;"">+</div>","null","","","","",""
"","image-button-response","29","191858","0.0-29.0","null","stimuli/images_hvm10/im120.png","","","null","120","6","8"
"","html-button-response","30","193139","0.0-30.0","1278.699999988079","","","","0","","",""
"","html-keyboard-response","31","194146","0.0-31.0","null","<div style=""font-size:60px;"">+</div>","null","","","","",""
"","image-button-response","32","194651","0.0-32.0","null","stimuli/images_hvm10/im21.png","","","null","21","3","1"
"","html-button-response","33","197352","0.0-33.0","2698.300000011921","","","","1","","",""
"","html-keyboard-response","34","198355","0.0-34.0","null","<div style=""font-size:60px;"">+</div>","null","","","","",""
"","image-button-response","35","198862","0.0-35.0","null","stimuli/images_hvm10/im135.png","","","null","135","6","5"
"","html-button-response","36","199907","0.0-36.0","1042.199999988079","","","","0","","",""
"","html-keyboard-response","37","200909","0.0-37.0","null","<div style=""font-size:60px;"">+</div>","null","","","","",""
"","image-button-response","38","201411","0.0-38.0","null","stimuli/images_hvm10/im177.png","","","null","177","6","8"
"","html-button-response","39","202591","0.0-39.0","1177.5999999940395","","","","1","","",""
"","html-keyboard-response","40","203593","0.0-40.0","null","<div style=""font-size:60px;"">+</div>","null","","","","",""
"","image-button-response","41","204097","0.0-41.0","null","stimuli/images_hvm10/im185.png","","","null","185","8","9"
"","html-button-response","42","205227","0.0-42.0","1126.9000000059605","","","","0","","",""
"","html-keyboard-response","43","206230","0.0-43.0","null","<div style=""font-size:60px;"">+</div>","null","","","","",""
"","image-button-response","44","206735","0.0-44.0","null","stimuli/images_hvm10/im197.png","","","null","197","7","9"
"","html-button-response","45","207532","0.0-45.0","794.7999999970198","","","","1","","",""
"","html-keyboard-response","46","208539","0.0-46.0","null","<div style=""font-size:60px;"">+</div>","null","","","","",""
"","image-button-response","47","209043","0.0-47.0","null","stimuli/images_hvm10/im194.png","","","null","194","6","9"
"","html-button-response","48","209901","0.0-48.0","855.1999999880791","","","","1","","",""
"","html-keyboard-response","49","210905","0.0-49.0","null","<div style=""font-size:60px;"">+</div>","null","","","","",""
"","image-button-response","50","211411","0.0-50.0","null","stimuli/images_hvm10/im149.png","","","null","149","2","7"
"","html-button-response","51","212602","0.0-51.0","1189.1000000089407","","","","1","","",""
"","html-keyboard-response","52","213604","0.0-52.0","null","<div style=""font-size:60px;"">+</div>","null","","","","",""
"","image-button-response","53","214107","0.0-53.0","null","stimuli/images_hvm10/im152.png","","","null","152","7","8"
"","html-button-response","54","215198","0.0-54.0","1088.199999988079","","","","0","","",""
"","html-keyboard-response","55","216204","0.0-55.0","null","<div style=""font-size:60px;"">+</div>","null","","","","",""
"","image-button-response","56","216711","0.0-56.0","null","stimuli/images_hvm10/im140.png","","","null","140","7","0"
"","html-button-response","57","217801","0.0-57.0","1088","","","","0","","",""
"","html-keyboard-response","58","218803","0.0-58.0","null","<div style=""font-size:60px;"">+</div>","null","","","","",""
"","image-button-response","59","219308","0.0-59.0","null","stimuli/images_hvm10/im61.png","","","null","61","3","4"
"","html-button-response","60","220204","0.0-60.0","893.2999999970198","","","","0","","",""
"","html-keyboard-response","61","221211","0.0-61.0","null","<div style=""font-size:60px;"">+</div>","null","","","","",""
"","image-button-response","62","221713","0.0-62.0","null","stimuli/images_hvm10/im146.png","","","null","146","7","9"
"","html-button-response","63","222653","0.0-63.0","937","","","","0","","",""
"","html-keyboard-response","64","223660","0.0-64.0","null","<div style=""font-size:60px;"">+</div>","null","","","","",""
"","image-button-response","65","224168","0.0-65.0","null","stimuli/images_hvm10/im76.png","","","null","76","3","7"
"","html-button-response","66","225355","0.0-66.0","1184.1000000089407","","","","0","","",""
"","html-keyboard-response","67","226361","0.0-67.0","null","<div style=""font-size:60px;"">+</div>","null","","","","",""
"","image-button-response","68","226866","0.0-68.0","null","stimuli/images_hvm10/im184.png","","","null","184","6","9"
"","html-button-response","69","227603","0.0-69.0","733.9000000059605","","","","1","","",""
"","html-keyboard-response","70","228610","0.0-70.0","null","<div style=""font-size:60px;"">+</div>","null","","","","",""
"","image-button-response","71","229115","0.0-71.0","null","stimuli/images_hvm10/im164.png","","","null","164","8","1"
"","html-button-response","72","230878","0.0-72.0","1760.5999999940395","","","","1","","",""
"","html-keyboard-response","73","231883","0.0-73.0","null","<div style=""font-size:60px;"">+</div>","null","","","","",""
"","image-button-response","74","232390","0.0-74.0","null","stimuli/images_hvm10/im30.png","","","null","30","1","8"
"","html-button-response","75","233246","0.0-75.0","853.4000000059605","","","","0","","",""
"","html-keyboard-response","76","234253","0.0-76.0","null","<div style=""font-size:60px;"">+</div>","null","","","","",""
"","image-button-response","77","234757","0.0-77.0","null","stimuli/images_hvm10/im70.png","","","null","70","0","3"
"","html-button-response","78","235989","0.0-78.0","1230.1000000089407","","","","1","","",""
"","html-keyboard-response","79","236995","0.0-79.0","null","<div style=""font-size:60px;"">+</div>","null","","","","",""
"","image-button-response","80","237502","0.0-80.0","null","stimuli/images_hvm10/im77.png","","","null","77","0","3"
"","html-button-response","81","239224","0.0-81.0","1719.2999999970198","","","","1","","",""
"","html-keyboard-response","82","240228","0.0-82.0","null","<div style=""font-size:60px;"">+</div>","null","","","","",""
"","image-button-response","83","240735","0.0-83.0","null","stimuli/images_hvm10/im104.png","","","null","104","9","5"
"","html-button-response","84","242410","0.0-84.0","1672.8999999910593","","","","1","","",""
"","html-keyboard-response","85","243416","0.0-85.0","null","<div style=""font-size:60px;"">+</div>","null","","","","",""
"","image-button-response","86","243922","0.0-86.0","null","stimuli/images_hvm10/im127.png","","","null","127","6","9"
"","html-button-response","87","245013","0.0-87.0","1090.0999999940395","","","","1","","",""
"","html-keyboard-response","88","246018","0.0-88.0","null","<div style=""font-size:60px;"">+</div>","null","","","","",""
"","image-button-response","89","246522","0.0-89.0","null","stimuli/images_hvm10/im150.png","","","null","150","2","7"
"","html-button-response","90","247868","0.0-90.0","1344.5","","","","1","","",""
"","html-keyboard-response","91","248875","0.0-91.0","null","<div style=""font-size:60px;"">+</div>","null","","","","",""
"","image-button-response","92","249382","0.0-92.0","null","stimuli/images_hvm10/im35.png","","","null","35","7","1"
"","html-button-response","93","250165","0.0-93.0","781.1999999880791","","","","1","","",""
"","html-keyboard-response","94","251171","0.0-94.0","null","<div style=""font-size:60px;"">+</div>","null","","","","",""
"","image-button-response","95","251674","0.0-95.0","null","stimuli/images_hvm10/im7.png","","","null","7","6","0"
"","html-button-response","96","252664","0.0-96.0","986.9000000059605","","","","1","","",""
"","html-keyboard-response","97","253670","0.0-97.0","null","<div style=""font-size:60px;"">+</div>","null","","","","",""
"","image-button-response","98","254173","0.0-98.0","null","stimuli/images_hvm10/im188.png","","","null","188","1","9"
"","html-button-response","99","255064","0.0-99.0","889.7000000029802","","","","1","","",""
"","html-keyboard-response","100","256071","0.0-100.0","null","<div style=""font-size:60px;"">+</div>","null","","","","",""
"","image-button-response","101","256578","0.0-101.0","null","stimuli/images_hvm10/im154.png","","","null","154","6","7"
"","html-button-response","102","257467","0.0-102.0","886.3999999910593","","","","1","","",""
"","html-keyboard-response","103","258470","0.0-103.0","null","<div style=""font-size:60px;"">+</div>","null","","","","",""
"","image-button-response","104","258977","0.0-104.0","null","stimuli/images_hvm10/im48.png","","","null","48","2","5"
"","html-button-response","105","262829","0.0-105.0","3849.3999999910593","","","","0","","",""
"","html-keyboard-response","106","263831","0.0-106.0","null","<div style=""font-size:60px;"">+</div>","null","","","","",""
"","image-button-response","107","264338","0.0-107.0","null","stimuli/images_hvm10/im69.png","","","null","69","3","6"
"","html-button-response","108","265417","0.0-108.0","1076.5","","","","0","","",""
"","html-keyboard-response","109","266418","0.0-109.0","null","<div style=""font-size:60px;"">+</div>","null","","","","",""
"","image-button-response","110","266925","0.0-110.0","null","stimuli/images_hvm10/im181.png","","","null","181","9","1"
"","html-button-response","111","267850","0.0-111.0","922.5","","","","0","","",""
"","html-keyboard-response","112","268853","0.0-112.0","null","<div style=""font-size:60px;"">+</div>","null","","","","",""
"","image-button-response","113","269360","0.0-113.0","null","stimuli/images_hvm10/im136.png","","","null","136","6","3"
"","html-button-response","114","270932","0.0-114.0","1568.9000000059605","","","","1","","",""
"","html-keyboard-response","115","271938","0.0-115.0","null","<div style=""font-size:60px;"">+</div>","null","","","","",""
"","image-button-response","116","272445","0.0-116.0","null","stimuli/images_hvm10/im23.png","","","null","23","1","6"
"","html-button-response","117","273334","0.0-117.0","886.2000000029802","","","","0","","",""
"","html-keyboard-response","118","274336","0.0-118.0","null","<div style=""font-size:60px;"">+</div>","null","","","","",""
"","image-button-response","119","274838","0.0-119.0","null","stimuli/images_hvm10/im73.png","","","null","73","3","9"
"","html-button-response","120","275855","0.0-120.0","1016.2000000029802","","","","0","","",""
"","html-keyboard-response","121","276861","0.0-121.0","null","<div style=""font-size:60px;"">+</div>","null","","","","",""
"","image-button-response","122","277366","0.0-122.0","null","stimuli/images_hvm10/im156.png","","","null","156","7","4"
"","html-button-response","123","278330","0.0-123.0","961.7999999970198","","","","0","","",""
"","html-keyboard-response","124","279337","0.0-124.0","null","<div style=""font-size:60px;"">+</div>","null","","","","",""
"","image-button-response","125","279844","0.0-125.0","null","stimuli/images_hvm10/im14.png","","","null","14","6","0"
"","html-button-response","126","280952","0.0-126.0","1105.2000000029802","","","","0","","",""
"","html-keyboard-response","127","281956","0.0-127.0","null","<div style=""font-size:60px;"">+</div>","null","","","","",""
"","image-button-response","128","282460","0.0-128.0","null","stimuli/images_hvm10/im161.png","","","null","161","4","8"
"","html-button-response","129","284090","0.0-129.0","1627.2000000029802","","","","1","","",""
"","html-keyboard-response","130","285096","0.0-130.0","null","<div style=""font-size:60px;"">+</div>","null","","","","",""
"","image-button-response","131","285604","0.0-131.0","null","stimuli/images_hvm10/im126.png","","","null","126","4","6"
"","html-button-response","132","286759","0.0-132.0","1152.2000000029802","","","","1","","",""
"","html-keyboard-response","133","287761","0.0-133.0","null","<div style=""font-size:60px;"">+</div>","null","","","","",""
"","image-button-response","134","288265","0.0-134.0","null","stimuli/images_hvm10/im131.png","","","null","131","5","6"
"","html-button-response","135","289419","0.0-135.0","1152.0999999940395","","","","1","","",""
"","html-keyboard-response","136","290422","0.0-136.0","null","<div style=""font-size:60px;"">+</div>","null","","","","",""
"","image-button-response","137","290929","0.0-137.0","null","stimuli/images_hvm10/im84.png","","","null","84","4","2"
"","html-button-response","138","292177","0.0-138.0","1245","","","","0","","",""
"","html-keyboard-response","139","293181","0.0-139.0","null","<div style=""font-size:60px;"">+</div>","null","","","","",""
"","image-button-response","140","293686","0.0-140.0","null","stimuli/images_hvm10/im169.png","","","null","169","4","8"
"","html-button-response","141","294755","0.0-141.0","1065.699999988079","","","","0","","",""
"","html-keyboard-response","142","295757","0.0-142.0","null","<div style=""font-size:60px;"">+</div>","null","","","","",""
"","image-button-response","143","296265","0.0-143.0","null","stimuli/images_hvm10/im111.png","","","null","111","5","8"
"","html-button-response","144","297077","0.0-144.0","809.7999999970198","","","","0","","",""
"","html-keyboard-response","145","298082","0.0-145.0","null","<div style=""font-size:60px;"">+</div>","null","","","","",""
"","image-button-response","146","298589","0.0-146.0","null","stimuli/images_hvm10/im26.png","","","null","26","8","1"
"","html-button-response","147","299737","0.0-147.0","1145.5999999940395","","","","0","","",""
"","html-keyboard-response","148","300740","0.0-148.0","null","<div style=""font-size:60px;"">+</div>","null","","","","",""
"","image-button-response","149","301246","0.0-149.0","null","stimuli/images_hvm10/im145.png","","","null","145","2","7"
"","html-button-response","150","302430","0.0-150.0","1181.6000000089407","","","","1","","",""
"","html-keyboard-response","151","303437","0.0-151.0","null","<div style=""font-size:60px;"">+</div>","null","","","","",""
"","image-button-response","152","303944","0.0-152.0","null","stimuli/images_hvm10/im89.png","","","null","89","2","4"
"","html-button-response","153","304889","0.0-153.0","942.7000000029802","","","","1","","",""
"","html-keyboard-response","154","305894","0.0-154.0","null","<div style=""font-size:60px;"">+</div>","null","","","","",""
"","image-button-response","155","306401","0.0-155.0","null","stimuli/images_hvm10/im62.png","","","null","62","3","6"
"","html-button-response","156","307315","0.0-156.0","912.4000000059605","","","","0","","",""
"","html-keyboard-response","157","308321","0.0-157.0","null","<div style=""font-size:60px;"">+</div>","null","","","","",""
"","image-button-response","158","308828","0.0-158.0","null","stimuli/images_hvm10/im110.png","","","null","110","7","5"
"","html-button-response","159","309603","0.0-159.0","773.2000000029802","","","","1","","",""
"","html-keyboard-response","160","310610","0.0-160.0","null","<div style=""font-size:60px;"">+</div>","null","","","","",""
"","image-button-response","161","311113","0.0-161.0","null","stimuli/images_hvm10/im38.png","","","null","38","3","1"
"","html-button-response","162","311998","0.0-162.0","882.2999999970198","","","","1","","",""
"","html-keyboard-response","163","313005","0.0-163.0","null","<div style=""font-size:60px;"">+</div>","null","","","","",""
"","image-button-response","164","313508","0.0-164.0","null","stimuli/images_hvm10/im78.png","","","null","78","6","3"
"","html-button-response","165","314480","0.0-165.0","969.4000000059605","","","","1","","",""
"","html-keyboard-response","166","315486","0.0-166.0","null","<div style=""font-size:60px;"">+</div>","null","","","","",""
"","image-button-response","167","315988","0.0-167.0","null","stimuli/images_hvm10/im123.png","","","null","123","4","6"
"","html-button-response","168","316955","0.0-168.0","965","","","","1","","",""
"","html-keyboard-response","169","317962","0.0-169.0","null","<div style=""font-size:60px;"">+</div>","null","","","","",""
"","image-button-response","170","318467","0.0-170.0","null","stimuli/images_hvm10/im142.png","","","null","142","5","7"
"","html-button-response","171","319357","0.0-171.0","887.2000000029802","","","","1","","",""
"","html-keyboard-response","172","320360","0.0-172.0","null","<div style=""font-size:60px;"">+</div>","null","","","","",""
"","image-button-response","173","320867","0.0-173.0","null","stimuli/images_hvm10/im178.png","","","null","178","8","2"
"","html-button-response","174","322025","0.0-174.0","1155.8999999910593","","","","0","","",""
"","html-keyboard-response","175","323032","0.0-175.0","null","<div style=""font-size:60px;"">+</div>","null","","","","",""
"","image-button-response","176","323539","0.0-176.0","null","stimuli/images_hvm10/im49.png","","","null","49","2","3"
"","html-button-response","177","325818","0.0-177.0","2276.5999999940395","","","","1","","",""
"","html-keyboard-response","178","326821","0.0-178.0","null","<div style=""font-size:60px;"">+</div>","null","","","","",""
"","image-button-response","179","327327","0.0-179.0","null","stimuli/images_hvm10/im25.png","","","null","25","1","9"
"","html-button-response","180","328333","0.0-180.0","1004.2000000029802","","","","0","","",""
"","html-keyboard-response","181","329340","0.0-181.0","null","<div style=""font-size:60px;"">+</div>","null","","","","",""
"","image-button-response","182","329843","0.0-182.0","null","stimuli/images_hvm10/im3.png","","","null","3","5","0"
"","html-button-response","183","330662","0.0-183.0","817","","","","1","","",""
"","html-keyboard-response","184","331665","0.0-184.0","null","<div style=""font-size:60px;"">+</div>","null","","","","",""
"","image-button-response","185","332173","0.0-185.0","null","stimuli/images_hvm10/im129.png","","","null","129","0","6"
"","html-button-response","186","333145","0.0-186.0","969.8000000119209","","","","0","","",""
"","html-keyboard-response","187","334149","0.0-187.0","null","<div style=""font-size:60px;"">+</div>","null","","","","",""
"","image-button-response","188","334656","0.0-188.0","null","stimuli/images_hvm10/im99.png","","","null","99","4","0"
"","html-button-response","189","335603","0.0-189.0","944.3999999910593","","","","0","","",""
"","html-keyboard-response","190","336609","0.0-190.0","null","<div style=""font-size:60px;"">+</div>","null","","","","",""
"","image-button-response","191","337111","0.0-191.0","null","stimuli/images_hvm10/im68.png","","","null","68","3","5"
"","html-button-response","192","337980","0.0-192.0","865.7999999970198","","","","0","","",""
"","html-keyboard-response","193","338981","0.0-193.0","null","<div style=""font-size:60px;"">+</div>","null","","","","",""
"","image-button-response","194","339486","0.0-194.0","null","stimuli/images_hvm10/im100.png","","","null","100","1","5"
"","html-button-response","195","340107","0.0-195.0","618.5999999940395","","","","1","","",""
"","html-keyboard-response","196","341110","0.0-196.0","null","<div style=""font-size:60px;"">+</div>","null","","","","",""
"","image-button-response","197","341617","0.0-197.0","null","stimuli/images_hvm10/im114.png","","","null","114","9","5"
"","html-button-response","198","342316","0.0-198.0","696","","","","1","","",""
"","html-keyboard-response","199","343318","0.0-199.0","null","<div style=""font-size:60px;"">+</div>","null","","","","",""
"","image-button-response","200","343826","0.0-200.0","null","stimuli/images_hvm10/im82.png","","","null","82","2","4"
"","html-button-response","201","345526","0.0-201.0","1697.7999999970198","","","","1","","",""
"","html-keyboard-response","202","346533","0.0-202.0","null","<div style=""font-size:60px;"">+</div>","null","","","","",""
"","image-button-response","203","347039","0.0-203.0","null","stimuli/images_hvm10/im183.png","","","null","183","9","3"
"","html-button-response","204","347791","0.0-204.0","749.6000000089407","","","","0","","",""
"","html-keyboard-response","205","348795","0.0-205.0","null","<div style=""font-size:60px;"">+</div>","null","","","","",""
"","image-button-response","206","349301","0.0-206.0","null","stimuli/images_hvm10/im20.png","","","null","20","3","1"
"","html-button-response","207","350153","0.0-207.0","848.7999999970198","","","","1","","",""
"","html-keyboard-response","208","351159","0.0-208.0","null","<div style=""font-size:60px;"">+</div>","null","","","","",""
"","image-button-response","209","351662","0.0-209.0","null","stimuli/images_hvm10/im18.png","","","null","18","2","0"
"","html-button-response","210","352788","0.0-210.0","1123.7999999970198","","","","1","","",""
"","html-keyboard-response","211","353795","0.0-211.0","null","<div style=""font-size:60px;"">+</div>","null","","","","",""
"","image-button-response","212","354300","0.0-212.0","null","stimuli/images_hvm10/im179.png","","","null","179","8","7"
"","html-button-response","213","355587","0.0-213.0","1284.9000000059605","","","","1","","",""
"","html-keyboard-response","214","356593","0.0-214.0","null","<div style=""font-size:60px;"">+</div>","null","","","","",""
"","image-button-response","215","357097","0.0-215.0","null","stimuli/images_hvm10/im9.png","","","null","9","1","0"
"","html-button-response","216","357965","0.0-216.0","865.6999999880791","","","","1","","",""
"","html-keyboard-response","217","358969","0.0-217.0","null","<div style=""font-size:60px;"">+</div>","null","","","","",""
"","image-button-response","218","359476","0.0-218.0","null","stimuli/images_hvm10/im108.png","","","null","108","8","5"
"","html-button-response","219","362356","0.0-219.0","2877.2999999970198","","","","0","","",""
"","html-keyboard-response","220","363363","0.0-220.0","null","<div style=""font-size:60px;"">+</div>","null","","","","",""
"","image-button-response","221","363868","0.0-221.0","null","stimuli/images_hvm10/im47.png","","","null","47","8","2"
"","html-button-response","222","372223","0.0-222.0","8353.20000000298","","","","0","","",""
"","html-keyboard-response","223","373230","0.0-223.0","null","<div style=""font-size:60px;"">+</div>","null","","","","",""
"","image-button-response","224","373735","0.0-224.0","null","stimuli/images_hvm10/im103.png","","","null","103","5","7"
"","html-button-response","225","374754","0.0-225.0","1016.5","","","","0","","",""
"","html-keyboard-response","226","375761","0.0-226.0","null","<div style=""font-size:60px;"">+</div>","null","","","","",""
"","image-button-response","227","376267","0.0-227.0","null","stimuli/images_hvm10/im141.png","","","null","141","7","0"
"","html-button-response","228","379588","0.0-228.0","3318.9000000059605","","","","0","","",""
"","html-keyboard-response","229","380593","0.0-229.0","null","<div style=""font-size:60px;"">+</div>","null","","","","",""
"","image-button-response","230","381097","0.0-230.0","null","stimuli/images_hvm10/im95.png","","","null","95","7","4"
"","html-button-response","231","382895","0.0-231.0","1796.7999999970198","","","","1","","",""
"","html-keyboard-response","232","383902","0.0-232.0","null","<div style=""font-size:60px;"">+</div>","null","","","","",""
"","image-button-response","233","384409","0.0-233.0","null","stimuli/images_hvm10/im187.png","","","null","187","5","9"
"","html-button-response","234","385936","0.0-234.0","1525.2000000029802","","","","1","","",""
"","html-keyboard-response","235","386942","0.0-235.0","null","<div style=""font-size:60px;"">+</div>","null","","","","",""
"","image-button-response","236","387449","0.0-236.0","null","stimuli/images_hvm10/im101.png","","","null","101","5","8"
"","html-button-response","237","389036","0.0-237.0","1584.5","","","","0","","",""
"","html-keyboard-response","238","390042","0.0-238.0","null","<div style=""font-size:60px;"">+</div>","null","","","","",""
"","image-button-response","239","390549","0.0-239.0","null","stimuli/images_hvm10/im171.png","","","null","171","8","3"
"","html-button-response","240","392000","0.0-240.0","1448.9000000059605","","","","0","","",""
"","html-keyboard-response","241","393002","0.0-241.0","null","<div style=""font-size:60px;"">+</div>","null","","","","",""
"","image-button-response","242","393504","0.0-242.0","null","stimuli/images_hvm10/im43.png","","","null","43","2","1"
"","html-button-response","243","394692","0.0-243.0","1187.6000000089407","","","","1","","",""
"","html-keyboard-response","244","395694","0.0-244.0","null","<div style=""font-size:60px;"">+</div>","null","","","","",""
"","image-button-response","245","396198","0.0-245.0","null","stimuli/images_hvm10/im158.png","","","null","158","7","5"
"","html-button-response","246","397176","0.0-246.0","975.7999999970198","","","","0","","",""
"","html-keyboard-response","247","398179","0.0-247.0","null","<div style=""font-size:60px;"">+</div>","null","","","","",""
"","image-button-response","248","398683","0.0-248.0","null","stimuli/images_hvm10/im172.png","","","null","172","8","0"
"","html-button-response","249","399708","0.0-249.0","1022.7000000029802","","","","0","","",""
"","html-keyboard-response","250","400709","0.0-250.0","null","<div style=""font-size:60px;"">+</div>","null","","","","",""
"","image-button-response","251","401217","0.0-251.0","null","stimuli/images_hvm10/im42.png","","","null","42","2","5"
"","html-button-response","252","402280","0.0-252.0","1060.9000000059605","","","","1","","",""
"","html-keyboard-response","253","403282","0.0-253.0","null","<div style=""font-size:60px;"">+</div>","null","","","","",""
"","image-button-response","254","403786","0.0-254.0","null","stimuli/images_hvm10/im33.png","","","null","33","1","6"
"","html-button-response","255","406574","0.0-255.0","2786","","","","1","","",""
"","html-keyboard-response","256","407581","0.0-256.0","null","<div style=""font-size:60px;"">+</div>","null","","","","",""
"","image-button-response","257","408083","0.0-257.0","null","stimuli/images_hvm10/im31.png","","","null","31","1","3"
"","html-button-response","258","409226","0.0-258.0","1139.5","","","","1","","",""
"","html-keyboard-response","259","410230","0.0-259.0","null","<div style=""font-size:60px;"">+</div>","null","","","","",""
"","image-button-response","260","410735","0.0-260.0","null","stimuli/images_hvm10/im190.png","","","null","190","8","9"
"","html-button-response","261","412073","0.0-261.0","1336.3999999910593","","","","1","","",""
"","html-keyboard-response","262","413080","0.0-262.0","null","<div style=""font-size:60px;"">+</div>","null","","","","",""
"","image-button-response","263","413584","0.0-263.0","null","stimuli/images_hvm10/im105.png","","","null","105","0","5"
"","html-button-response","264","414491","0.0-264.0","904.4000000059605","","","","1","","",""
"","html-keyboard-response","265","415492","0.0-265.0","null","<div style=""font-size:60px;"">+</div>","null","","","","",""
"","image-button-response","266","416000","0.0-266.0","null","stimuli/images_hvm10/im57.png","","","null","57","9","2"
"","html-button-response","267","417152","0.0-267.0","1150.0999999940395","","","","1","","",""
"","html-keyboard-response","268","418158","0.0-268.0","null","<div style=""font-size:60px;"">+</div>","null","","","","",""
"","image-button-response","269","418665","0.0-269.0","null","stimuli/images_hvm10/im109.png","","","null","109","5","0"
"","html-button-response","270","420516","0.0-270.0","1848.1000000089407","","","","1","","",""
"","html-keyboard-response","271","421519","0.0-271.0","null","<div style=""font-size:60px;"">+</div>","null","","","","",""
"","image-button-response","272","422027","0.0-272.0","null","stimuli/images_hvm10/im143.png","","","null","143","9","7"
"","html-button-response","273","423225","0.0-273.0","1195.7999999970198","","","","1","","",""
"","html-keyboard-response","274","424231","0.0-274.0","null","<div style=""font-size:60px;"">+</div>","null","","","","",""
"","image-button-response","275","424734","0.0-275.0","null","stimuli/images_hvm10/im71.png","","","null","71","5","3"
"","html-button-response","276","425885","0.0-276.0","1149","","","","1","","",""
"","html-keyboard-response","277","426887","0.0-277.0","null","<div style=""font-size:60px;"">+</div>","null","","","","",""
"","image-button-response","278","427395","0.0-278.0","null","stimuli/images_hvm10/im192.png","","","null","192","9","2"
"","html-button-response","279","443627","0.0-279.0","16228.90000000596","","","","0","","",""
"","html-keyboard-response","280","444631","0.0-280.0","null","<div style=""font-size:60px;"">+</div>","null","","","","",""
"","image-button-response","281","445139","0.0-281.0","null","stimuli/images_hvm10/im121.png","","","null","121","6","9"
"","html-button-response","282","446651","0.0-282.0","1509.8999999910593","","","","1","","",""
"","html-keyboard-response","283","447658","0.0-283.0","null","<div style=""font-size:60px;"">+</div>","null","","","","",""
"","image-button-response","284","448162","0.0-284.0","null","stimuli/images_hvm10/im6.png","","","null","6","0","2"
"","html-button-response","285","449482","0.0-285.0","1317.300000011921","","","","0","","",""
"","html-keyboard-response","286","450486","0.0-286.0","null","<div style=""font-size:60px;"">+</div>","null","","","","",""
"","image-button-response","287","450993","0.0-287.0","null","stimuli/images_hvm10/im174.png","","","null","174","0","8"
"","html-button-response","288","452094","0.0-288.0","1097.7999999970198","","","","1","","",""
"","html-keyboard-response","289","453097","0.0-289.0","null","<div style=""font-size:60px;"">+</div>","null","","","","",""
"","image-button-response","290","453604","0.0-290.0","null","stimuli/images_hvm10/im11.png","","","null","11","0","5"
"","html-button-response","291","454828","0.0-291.0","1220.300000011921","","","","0","","",""
"","html-keyboard-response","292","455835","0.0-292.0","null","<div style=""font-size:60px;"">+</div>","null","","","","",""
"","image-button-response","293","456337","0.0-293.0","null","stimuli/images_hvm10/im2.png","","","null","2","8","0"
"","html-button-response","294","459503","0.0-294.0","3162.7999999970198","","","","1","","",""
"","html-keyboard-response","295","460510","0.0-295.0","null","<div style=""font-size:60px;"">+</div>","null","","","","",""
"","image-button-response","296","461012","0.0-296.0","null","stimuli/images_hvm10/im65.png","","","null","65","9","3"
"","html-button-response","297","461646","0.0-297.0","630.6999999880791","","","","1","","",""
"","html-keyboard-response","298","462652","0.0-298.0","null","<div style=""font-size:60px;"">+</div>","null","","","","",""
"","image-button-response","299","463160","0.0-299.0","null","stimuli/images_hvm10/im94.png","","","null","94","0","4"
"","html-button-response","300","463774","0.0-300.0","611.7000000029802","","","","1","","",""
"","html-keyboard-response","301","464776","0.0-301.0","null","<div style=""font-size:60px;"">+</div>","null","","","","",""
"","image-button-response","302","465283","0.0-302.0","null","stimuli/images_hvm10/im173.png","","","null","173","8","6"
"","html-button-response","303","466483","0.0-303.0","1198.4000000059605","","","","0","","",""
"","html-keyboard-response","304","467485","0.0-304.0","null","<div style=""font-size:60px;"">+</div>","null","","","","",""
"","image-button-response","305","467992","0.0-305.0","null","stimuli/images_hvm10/im16.png","","","null","16","5","0"
"","html-button-response","306","469175","0.0-306.0","1181.2999999970198","","","","1","","",""
"","html-keyboard-response","307","470178","0.0-307.0","null","<div style=""font-size:60px;"">+</div>","null","","","","",""
"","image-button-response","308","470681","0.0-308.0","null","stimuli/images_hvm10/im64.png","","","null","64","3","5"
"","html-button-response","309","471934","0.0-309.0","1250.5","","","","0","","",""
"","html-keyboard-response","310","472940","0.0-310.0","null","<div style=""font-size:60px;"">+</div>","null","","","","",""
"","image-button-response","311","473445","0.0-311.0","null","stimuli/images_hvm10/im97.png","","","null","97","9","4"
"","html-button-response","312","475589","0.0-312.0","2141","","","","1","","",""
"","html-keyboard-response","313","476592","0.0-313.0","null","<div style=""font-size:60px;"">+</div>","null","","","","",""
"","image-button-response","314","477096","0.0-314.0","null","stimuli/images_hvm10/im138.png","","","null","138","6","3"
"","html-button-response","315","478370","0.0-315.0","1271.5","","","","0","","",""
"","html-keyboard-response","316","479372","0.0-316.0","null","<div style=""font-size:60px;"">+</div>","null","","","","",""
"","image-button-response","317","479875","0.0-317.0","null","stimuli/images_hvm10/im28.png","","","null","28","0","1"
"","html-button-response","318","480926","0.0-318.0","1049","","","","0","","",""
"","html-keyboard-response","319","481927","0.0-319.0","null","<div style=""font-size:60px;"">+</div>","null","","","","",""
"","image-button-response","320","482434","0.0-320.0","null","stimuli/images_hvm10/im117.png","","","null","117","5","3"
"","html-button-response","321","483498","0.0-321.0","1060.5999999940395","","","","0","","",""
"","html-keyboard-response","322","484504","0.0-322.0","null","<div style=""font-size:60px;"">+</div>","null","","","","",""
"","image-button-response","323","485008","0.0-323.0","null","stimuli/images_hvm10/im130.png","","","null","130","6","7"
"","html-button-response","324","487015","0.0-324.0","2005.2999999970198","","","","1","","",""
"","html-keyboard-response","325","488021","0.0-325.0","null","<div style=""font-size:60px;"">+</div>","null","","","","",""
"","image-button-response","326","488524","0.0-326.0","null","stimuli/images_hvm10/im119.png","","","null","119","3","5"
"","html-button-response","327","489571","0.0-327.0","1044.5","","","","1","","",""
"","html-keyboard-response","328","490577","0.0-328.0","null","<div style=""font-size:60px;"">+</div>","null","","","","",""
"","image-button-response","329","491083","0.0-329.0","null","stimuli/images_hvm10/im72.png","","","null","72","9","3"
"","html-button-response","330","492135","0.0-330.0","1049.1000000089407","","","","1","","",""
"","html-keyboard-response","331","493137","0.0-331.0","null","<div style=""font-size:60px;"">+</div>","null","","","","",""
"","image-button-response","332","493642","0.0-332.0","null","stimuli/images_hvm10/im41.png","","","null","41","0","2"
"","html-button-response","333","494480","0.0-333.0","834.5999999940395","","","","1","","",""
"","html-keyboard-response","334","495485","0.0-334.0","null","<div style=""font-size:60px;"">+</div>","null","","","","",""
"","image-button-response","335","495988","0.0-335.0","null","stimuli/images_hvm10/im85.png","","","null","85","4","2"
"","html-button-response","336","503673","0.0-336.0","7681.699999988079","","","","0","","",""
"","html-keyboard-response","337","504677","0.0-337.0","null","<div style=""font-size:60px;"">+</div>","null","","","","",""
"","image-button-response","338","505183","0.0-338.0","null","stimuli/images_hvm10/im13.png","","","null","13","0","2"
"","html-button-response","339","506389","0.0-339.0","1203.8999999910593","","","","0","","",""
"","html-keyboard-response","340","507394","0.0-340.0","null","<div style=""font-size:60px;"">+</div>","null","","","","",""
"","image-button-response","341","507896","0.0-341.0","null","stimuli/images_hvm10/im112.png","","","null","112","2","5"
"","html-button-response","342","508921","0.0-342.0","1021.7999999970198","","","","1","","",""
"","html-keyboard-response","343","509923","0.0-343.0","null","<div style=""font-size:60px;"">+</div>","null","","","","",""
"","image-button-response","344","510426","0.0-344.0","null","stimuli/images_hvm10/im17.png","","","null","17","2","0"
"","html-button-response","345","511468","0.0-345.0","1039.5","","","","1","","",""
"","html-keyboard-response","346","512475","0.0-346.0","null","<div style=""font-size:60px;"">+</div>","null","","","","",""
"","image-button-response","347","512981","0.0-347.0","null","stimuli/images_hvm10/im196.png","","","null","196","9","4"
"","html-button-response","348","514193","0.0-348.0","1209.699999988079","","","","0","","",""
"","html-keyboard-response","349","515199","0.0-349.0","null","<div style=""font-size:60px;"">+</div>","null","","","","",""
"","image-button-response","350","515703","0.0-350.0","null","stimuli/images_hvm10/im134.png","","","null","134","4","6"
"","html-button-response","351","516838","0.0-351.0","1132.2000000029802","","","","1","","",""
"","html-keyboard-response","352","517840","0.0-352.0","null","<div style=""font-size:60px;"">+</div>","null","","","","",""
"","image-button-response","353","518348","0.0-353.0","null","stimuli/images_hvm10/im32.png","","","null","32","1","4"
"","html-button-response","354","519426","0.0-354.0","1075.4000000059605","","","","0","","",""
"","html-keyboard-response","355","520433","0.0-355.0","null","<div style=""font-size:60px;"">+</div>","null","","","","",""
"","image-button-response","356","520937","0.0-356.0","null","stimuli/images_hvm10/im159.png","","","null","159","5","7"
"","html-button-response","357","523987","0.0-357.0","3047.7000000029802","","","","1","","",""
"","html-keyboard-response","358","524991","0.0-358.0","null","<div style=""font-size:60px;"">+</div>","null","","","","",""
"","image-button-response","359","525498","0.0-359.0","null","stimuli/images_hvm10/im24.png","","","null","24","7","1"
"","html-button-response","360","526882","0.0-360.0","1381","","","","1","","",""
"","html-keyboard-response","361","527888","0.0-361.0","null","<div style=""font-size:60px;"">+</div>","null","","","","",""
"","image-button-response","362","528392","0.0-362.0","null","stimuli/images_hvm10/im5.png","","","null","5","7","0"
"","html-button-response","363","529292","0.0-363.0","897.5","","","","1","","",""
"","html-keyboard-response","364","530299","0.0-364.0","null","<div style=""font-size:60px;"">+</div>","null","","","","",""
"","image-button-response","365","530806","0.0-365.0","null","stimuli/images_hvm10/im37.png","","","null","37","6","1"
"","html-button-response","366","532801","0.0-366.0","1992.7999999970198","","","","0","","",""
"","html-keyboard-response","367","533803","0.0-367.0","null","<div style=""font-size:60px;"">+</div>","null","","","","",""
"","image-button-response","368","534310","0.0-368.0","null","stimuli/images_hvm10/im160.png","","","null","160","8","4"
"","html-button-response","369","536844","0.0-369.0","2533.2000000029802","","","","0","","",""
"","html-keyboard-response","370","537850","0.0-370.0","null","<div style=""font-size:60px;"">+</div>","null","","","","",""
"","image-button-response","371","538357","0.0-371.0","null","stimuli/images_hvm10/im45.png","","","null","45","2","1"
"","html-button-response","372","540259","0.0-372.0","1900","","","","1","","",""
"","html-keyboard-response","373","541265","0.0-373.0","null","<div style=""font-size:60px;"">+</div>","null","","","","",""
"","image-button-response","374","541768","0.0-374.0","null","stimuli/images_hvm10/im34.png","","","null","34","1","6"
"","html-button-response","375","542830","0.0-375.0","1060.2999999970198","","","","0","","",""
"","html-keyboard-response","376","543834","0.0-376.0","null","<div style=""font-size:60px;"">+</div>","null","","","","",""
"","image-button-response","377","544339","0.0-377.0","null","stimuli/images_hvm10/im162.png","","","null","162","6","8"
"","html-button-response","378","545321","0.0-378.0","978.8000000119209","","","","1","","",""
"","html-keyboard-response","379","546325","0.0-379.0","null","<div style=""font-size:60px;"">+</div>","null","","","","",""
"","image-button-response","380","546829","0.0-380.0","null","stimuli/images_hvm10/im122.png","","","null","122","8","6"
"","html-button-response","381","548426","0.0-381.0","1594.800000011921","","","","0","","",""
"","html-keyboard-response","382","549428","0.0-382.0","null","<div style=""font-size:60px;"">+</div>","null","","","","",""
"","image-button-response","383","549930","0.0-383.0","null","stimuli/images_hvm10/im151.png","","","null","151","2","7"
"","html-button-response","384","551160","0.0-384.0","1227.2000000029802","","","","1","","",""
"","html-keyboard-response","385","552167","0.0-385.0","null","<div style=""font-size:60px;"">+</div>","null","","","","",""
"","image-button-response","386","552674","0.0-386.0","null","stimuli/images_hvm10/im15.png","","","null","15","4","0"
"","html-button-response","387","553569","0.0-387.0","893.2999999970198","","","","1","","",""
"","html-keyboard-response","388","554571","0.0-388.0","null","<div style=""font-size:60px;"">+</div>","null","","","","",""
"","image-button-response","389","555074","0.0-389.0","null","stimuli/images_hvm10/im46.png","","","null","46","9","2"
"","html-button-response","390","555883","0.0-390.0","807","","","","1","","",""
"","html-keyboard-response","391","556888","0.0-391.0","null","<div style=""font-size:60px;"">+</div>","null","","","","",""
"","image-button-response","392","557390","0.0-392.0","null","stimuli/images_hvm10/im157.png","","","null","157","0","7"
"","html-button-response","393","558422","0.0-393.0","1029.2999999970198","","","","1","","",""
"","html-keyboard-response","394","559429","0.0-394.0","null","<div style=""font-size:60px;"">+</div>","null","","","","",""
"","image-button-response","395","559932","0.0-395.0","null","stimuli/images_hvm10/im63.png","","","null","63","4","3"
"","html-button-response","396","560888","0.0-396.0","953.6000000089407","","","","1","","",""
"","html-keyboard-response","397","561892","0.0-397.0","null","<div style=""font-size:60px;"">+</div>","null","","","","",""
"","image-button-response","398","562399","0.0-398.0","null","stimuli/images_hvm10/im56.png","","","null","56","0","2"
"","html-button-response","399","563225","0.0-399.0","823.5","","","","1","","",""
"","html-keyboard-response","400","564231","0.0-400.0","null","<div style=""font-size:60px;"">+</div>","null","","","","",""
"","image-button-response","401","564734","0.0-401.0","null","stimuli/images_hvm10/im132.png","","","null","132","2","6"
"","html-button-response","402","566048","0.0-402.0","1311.0999999940395","","","","1","","",""
"","html-keyboard-response","403","567052","0.0-403.0","null","<div style=""font-size:60px;"">+</div>","null","","","","",""
"","image-button-response","404","567558","0.0-404.0","null","stimuli/images_hvm10/im90.png","","","null","90","4","9"
"","html-button-response","405","569105","0.0-405.0","1543.8999999910593","","","","0","","",""
"","html-keyboard-response","406","570107","0.0-406.0","null","<div style=""font-size:60px;"">+</div>","null","","","","",""
"","image-button-response","407","570611","0.0-407.0","null","stimuli/images_hvm10/im29.png","","","null","29","0","1"
"","html-button-response","408","573165","0.0-408.0","2550.7999999970198","","","","1","","",""
"","html-keyboard-response","409","574171","0.0-409.0","null","<div style=""font-size:60px;"">+</div>","null","","","","",""
"","image-button-response","410","574675","0.0-410.0","null","stimuli/images_hvm10/im10.png","","","null","10","0","3"
"","html-button-response","411","575696","0.0-411.0","1017.7999999970198","","","","0","","",""
"","html-keyboard-response","412","576698","0.0-412.0","null","<div style=""font-size:60px;"">+</div>","null","","","","",""
"","image-button-response","413","577205","0.0-413.0","null","stimuli/images_hvm10/im137.png","","","null","137","9","6"
"","html-button-response","414","578436","0.0-414.0","1228.0999999940395","","","","1","","",""
"","html-keyboard-response","415","579438","0.0-415.0","null","<div style=""font-size:60px;"">+</div>","null","","","","",""
"","image-button-response","416","579941","0.0-416.0","null","stimuli/images_hvm10/im118.png","","","null","118","5","3"
"","html-button-response","417","580961","0.0-417.0","1016.6999999880791","","","","0","","",""
"","html-keyboard-response","418","581968","0.0-418.0","null","<div style=""font-size:60px;"">+</div>","null","","","","",""
"","image-button-response","419","582471","0.0-419.0","null","stimuli/images_hvm10/im102.png","","","null","102","1","5"
"","html-button-response","420","583337","0.0-420.0","863.5","","","","1","","",""
"","html-keyboard-response","421","584344","0.0-421.0","null","<div style=""font-size:60px;"">+</div>","null","","","","",""
"","image-button-response","422","584848","0.0-422.0","null","stimuli/images_hvm10/im8.png","","","null","8","8","0"
"","html-button-response","423","586192","0.0-423.0","1341.4000000059605","","","","1","","",""
"","html-keyboard-response","424","587199","0.0-424.0","null","<div style=""font-size:60px;"">+</div>","null","","","","",""
"","image-button-response","425","587703","0.0-425.0","null","stimuli/images_hvm10/im79.png","","","null","79","3","0"
"","html-button-response","426","588877","0.0-426.0","1172.3999999910593","","","","0","","",""
"","html-keyboard-response","427","589883","0.0-427.0","null","<div style=""font-size:60px;"">+</div>","null","","","","",""
"","image-button-response","428","590389","0.0-428.0","null","stimuli/images_hvm10/im60.png","","","null","60","3","4"
"","html-button-response","429","591473","0.0-429.0","1082.1000000089407","","","","0","","",""
"","html-keyboard-response","430","592476","0.0-430.0","null","<div style=""font-size:60px;"">+</div>","null","","","","",""
"","image-button-response","431","592979","0.0-431.0","null","stimuli/images_hvm10/im98.png","","","null","98","5","4"
"","html-button-response","432","593939","0.0-432.0","957.9000000059605","","","","1","","",""
"","html-keyboard-response","433","594943","0.0-433.0","null","<div style=""font-size:60px;"">+</div>","null","","","","",""
"","image-button-response","434","595448","0.0-434.0","null","stimuli/images_hvm10/im176.png","","","null","176","4","8"
"","html-button-response","435","596842","0.0-435.0","1392","","","","0","","",""
"","html-keyboard-response","436","597849","0.0-436.0","null","<div style=""font-size:60px;"">+</div>","null","","","","",""
"","image-button-response","437","598353","0.0-437.0","null","stimuli/images_hvm10/im153.png","","","null","153","0","7"
"","html-button-response","438","599423","0.0-438.0","1067.699999988079","","","","1","","",""
"","html-keyboard-response","439","600430","0.0-439.0","null","<div style=""font-size:60px;"">+</div>","null","","","","",""
"","image-button-response","440","600935","0.0-440.0","null","stimuli/images_hvm10/im165.png","","","null","165","1","8"
"","html-button-response","441","603224","0.0-441.0","2285.7999999970198","","","","1","","",""
"","html-keyboard-response","442","604225","0.0-442.0","null","<div style=""font-size:60px;"">+</div>","null","","","","",""
"","image-button-response","443","604728","0.0-443.0","null","stimuli/images_hvm10/im193.png","","","null","193","9","5"
"","html-button-response","444","605723","0.0-444.0","992.5","","","","0","","",""
"","html-keyboard-response","445","606729","0.0-445.0","null","<div style=""font-size:60px;"">+</div>","null","","","","",""
"","image-button-response","446","607232","0.0-446.0","null","stimuli/images_hvm10/im51.png","","","null","51","8","2"
"","html-button-response","447","608198","0.0-447.0","963.0999999940395","","","","1","","",""
"","html-keyboard-response","448","609200","0.0-448.0","null","<div style=""font-size:60px;"">+</div>","null","","","","",""
"","image-button-response","449","609703","0.0-449.0","null","stimuli/images_hvm10/im75.png","","","null","75","3","4"
"","html-button-response","450","610811","0.0-450.0","1105.2000000029802","","","","1","","",""
"","html-keyboard-response","451","611817","0.0-451.0","null","<div style=""font-size:60px;"">+</div>","null","","","","",""
"","image-button-response","452","612320","0.0-452.0","null","stimuli/images_hvm10/im198.png","","","null","198","8","9"
"","html-button-response","453","613082","0.0-453.0","759.2999999970198","","","","1","","",""
"","html-keyboard-response","454","614086","0.0-454.0","null","<div style=""font-size:60px;"">+</div>","null","","","","",""
"","image-button-response","455","614592","0.0-455.0","null","stimuli/images_hvm10/im22.png","","","null","22","7","1"
"","html-button-response","456","615848","0.0-456.0","1253.2000000029802","","","","1","","",""
"","html-keyboard-response","457","616854","0.0-457.0","null","<div style=""font-size:60px;"">+</div>","null","","","","",""
"","image-button-response","458","617358","0.0-458.0","null","stimuli/images_hvm10/im133.png","","","null","133","6","0"
"","html-button-response","459","618314","0.0-459.0","953.4000000059605","","","","0","","",""
"","html-keyboard-response","460","619318","0.0-460.0","null","<div style=""font-size:60px;"">+</div>","null","","","","",""
"","image-button-response","461","619825","0.0-461.0","null","stimuli/images_hvm10/im50.png","","","null","50","6","2"
"","html-button-response","462","620732","0.0-462.0","904.3999999910593","","","","1","","",""
"","html-keyboard-response","463","621738","0.0-463.0","null","<div style=""font-size:60px;"">+</div>","null","","","","",""
"","image-button-response","464","622243","0.0-464.0","null","stimuli/images_hvm10/im53.png","","","null","53","8","2"
"","html-button-response","465","622925","0.0-465.0","679.1000000089407","","","","1","","",""
"","html-keyboard-response","466","623928","0.0-466.0","null","<div style=""font-size:60px;"">+</div>","null","","","","",""
"","image-button-response","467","624434","0.0-467.0","null","stimuli/images_hvm10/im67.png","","","null","67","3","1"
"","html-button-response","468","625479","0.0-468.0","1042.199999988079","","","","0","","",""
"","html-keyboard-response","469","626483","0.0-469.0","null","<div style=""font-size:60px;"">+</div>","null","","","","",""
"","image-button-response","470","626990","0.0-470.0","null","stimuli/images_hvm10/im175.png","","","null","175","8","2"
"","html-button-response","471","628229","0.0-471.0","1236.3999999910593","","","","0","","",""
"","html-keyboard-response","472","629231","0.0-472.0","null","<div style=""font-size:60px;"">+</div>","null","","","","",""
"","image-button-response","473","629734","0.0-473.0","null","stimuli/images_hvm10/im12.png","","","null","12","0","6"
"","html-button-response","474","630720","0.0-474.0","983.6000000089407","","","","0","","",""
"","html-keyboard-response","475","631726","0.0-475.0","null","<div style=""font-size:60px;"">+</div>","null","","","","",""
"","image-button-response","476","632229","0.0-476.0","null","stimuli/images_hvm10/im39.png","","","null","39","1","2"
"","html-button-response","477","633728","0.0-477.0","1495.9000000059605","","","","0","","",""
"","html-keyboard-response","478","634734","0.0-478.0","null","<div style=""font-size:60px;"">+</div>","null","","","","",""
"","image-button-response","479","635241","0.0-479.0","null","stimuli/images_hvm10/im4.png","","","null","4","0","8"
"","html-button-response","480","645929","0.0-480.0","10684.699999988079","","","","0","","",""
"","html-keyboard-response","481","646936","0.0-481.0","null","<div style=""font-size:60px;"">+</div>","null","","","","",""
"","image-button-response","482","647444","0.0-482.0","null","stimuli/images_hvm10/im54.png","","","null","54","2","7"
"","html-button-response","483","648662","0.0-483.0","1215.5","","","","0","","",""
"","html-keyboard-response","484","649668","0.0-484.0","null","<div style=""font-size:60px;"">+</div>","null","","","","",""
"","image-button-response","485","650175","0.0-485.0","null","stimuli/images_hvm10/im36.png","","","null","36","1","2"
"","html-button-response","486","653908","0.0-486.0","3729.5","","","","0","","",""
"","html-keyboard-response","487","654914","0.0-487.0","null","<div style=""font-size:60px;"">+</div>","null","","","","",""
"","image-button-response","488","655417","0.0-488.0","null","stimuli/images_hvm10/im139.png","","","null","139","6","2"
"","html-button-response","489","656975","0.0-489.0","1554.5","","","","0","","",""
"","html-keyboard-response","490","657980","0.0-490.0","null","<div style=""font-size:60px;"">+</div>","null","","","","",""
"","image-button-response","491","658485","0.0-491.0","null","stimuli/images_hvm10/im59.png","","","null","59","9","2"
"","html-button-response","492","659684","0.0-492.0","1195.7000000029802","","","","1","","",""
"","html-keyboard-response","493","660690","0.0-493.0","null","<div style=""font-size:60px;"">+</div>","null","","","","",""
"","image-button-response","494","661193","0.0-494.0","null","stimuli/images_hvm10/im144.png","","","null","144","7","3"
"","html-button-response","495","662361","0.0-495.0","1165.4000000059605","","","","0","","",""
"","html-keyboard-response","496","663363","0.0-496.0","null","<div style=""font-size:60px;"">+</div>","null","","","","",""
"","image-button-response","497","663865","0.0-497.0","null","stimuli/images_hvm10/im167.png","","","null","167","8","7"
"","html-button-response","498","664714","0.0-498.0","847.9000000059605","","","","0","","",""
"","html-keyboard-response","499","665715","0.0-499.0","null","<div style=""font-size:60px;"">+</div>","null","","","","",""
"","image-button-response","500","666217","0.0-500.0","null","stimuli/images_hvm10/im44.png","","","null","44","2","9"
"","html-button-response","501","667504","0.0-501.0","1283.9000000059605","","","","0","","",""
"","html-keyboard-response","502","668510","0.0-502.0","null","<div style=""font-size:60px;"">+</div>","null","","","","",""
"","image-button-response","503","669013","0.0-503.0","null","stimuli/images_hvm10/im168.png","","","null","168","0","8"
"","html-button-response","504","669866","0.0-504.0","850.2999999970198","","","","1","","",""
"","html-keyboard-response","505","670872","0.0-505.0","null","<div style=""font-size:60px;"">+</div>","null","","","","",""
"","image-button-response","506","671376","0.0-506.0","null","stimuli/images_hvm10/im170.png","","","null","170","8","2"
"","html-button-response","507","672405","0.0-507.0","1026.7999999970198","","","","0","","",""
"","html-keyboard-response","508","673408","0.0-508.0","null","<div style=""font-size:60px;"">+</div>","null","","","","",""
"","image-button-response","509","673911","0.0-509.0","null","stimuli/images_hvm10/im55.png","","","null","55","2","7"
"","html-button-response","510","674985","0.0-510.0","1071.5","","","","0","","",""
"","html-keyboard-response","511","675986","0.0-511.0","null","<div style=""font-size:60px;"">+</div>","null","","","","",""
"","image-button-response","512","676492","0.0-512.0","null","stimuli/images_hvm10/im88.png","","","null","88","3","4"
"","html-button-response","513","678430","0.0-513.0","1935.699999988079","","","","1","","",""
"","html-keyboard-response","514","679432","0.0-514.0","null","<div style=""font-size:60px;"">+</div>","null","","","","",""
"","image-button-response","515","679939","0.0-515.0","null","stimuli/images_hvm10/im115.png","","","null","115","9","5"
"","html-button-response","516","682466","0.0-516.0","2524.7000000029802","","","","0","","",""
"","html-keyboard-response","517","683472","0.0-517.0","null","<div style=""font-size:60px;"">+</div>","null","","","","",""
"","image-button-response","518","683979","0.0-518.0","null","stimuli/images_hvm10/im163.png","","","null","163","8","1"
"","html-button-response","519","685797","0.0-519.0","1816.2000000029802","","","","0","","",""
"","html-keyboard-response","520","686804","0.0-520.0","null","<div style=""font-size:60px;"">+</div>","null","","","","",""
"","image-button-response","521","687306","0.0-521.0","null","stimuli/images_hvm10/im52.png","","","null","52","2","9"
"","html-button-response","522","688135","0.0-522.0","826.2000000029802","","","","0","","",""
"","html-keyboard-response","523","689142","0.0-523.0","null","<div style=""font-size:60px;"">+</div>","null","","","","",""
"","image-button-response","524","689645","0.0-524.0","null","stimuli/images_hvm10/im80.png","","","null","80","7","4"
"","html-button-response","525","691694","0.0-525.0","2045.5999999940395","","","","0","","",""
"","html-keyboard-response","526","692696","0.0-526.0","null","<div style=""font-size:60px;"">+</div>","null","","","","",""
"","image-button-response","527","693204","0.0-527.0","null","stimuli/images_hvm10/im58.png","","","null","58","4","2"
"","html-button-response","528","694427","0.0-528.0","1221","","","","1","","",""
"","html-keyboard-response","529","695434","0.0-529.0","null","<div style=""font-size:60px;"">+</div>","null","","","","",""
"","image-button-response","530","695937","0.0-530.0","null","stimuli/images_hvm10/im19.png","","","null","19","0","5"
"","html-button-response","531","696983","0.0-531.0","1042.7000000029802","","","","0","","",""
"","html-keyboard-response","532","697987","0.0-532.0","null","<div style=""font-size:60px;"">+</div>","null","","","","",""
"","image-button-response","533","698494","0.0-533.0","null","stimuli/images_hvm10/im74.png","","","null","74","5","3"
"","html-button-response","534","699400","0.0-534.0","902.7000000029802","","","","1","","",""
"","html-keyboard-response","535","700402","0.0-535.0","null","<div style=""font-size:60px;"">+</div>","null","","","","",""
"","image-button-response","536","700904","0.0-536.0","null","stimuli/images_hvm10/im125.png","","","null","125","3","6"
"","html-button-response","537","702504","0.0-537.0","1597.3999999910593","","","","0","","",""
"","html-keyboard-response","538","703509","0.0-538.0","null","<div style=""font-size:60px;"">+</div>","null","","","","",""
"","image-button-response","539","704013","0.0-539.0","null","stimuli/images_hvm10/im92.png","","","null","92","4","2"
"","html-button-response","540","705054","0.0-540.0","1038.8999999910593","","","","0","","",""
"","html-keyboard-response","541","706061","0.0-541.0","null","<div style=""font-size:60px;"">+</div>","null","","","","",""
"","image-button-response","542","706563","0.0-542.0","null","stimuli/images_hvm10/im1.png","","","null","1","0","9"
"","html-button-response","543","707487","0.0-543.0","922.7999999970198","","","","0","","",""
"","html-keyboard-response","544","708489","0.0-544.0","null","<div style=""font-size:60px;"">+</div>","null","","","","",""
"","image-button-response","545","708996","0.0-545.0","null","stimuli/images_hvm10/im182.png","","","null","182","9","7"
"","html-button-response","546","716111","0.0-546.0","7112.5","","","","0","","",""
"","html-keyboard-response","547","717114","0.0-547.0","null","<div style=""font-size:60px;"">+</div>","null","","","","",""
"","image-button-response","548","717621","0.0-548.0","null","stimuli/images_hvm10/im0.png","","","null","0","0","6"
"","html-button-response","549","719701","0.0-549.0","2078.7000000029802","","","","0","","",""
"","html-keyboard-response","550","720708","0.0-550.0","null","<div style=""font-size:60px;"">+</div>","null","","","","",""
"","image-button-response","551","721210","0.0-551.0","null","stimuli/images_hvm10/im189.png","","","null","189","4","9"
"","html-button-response","552","722200","0.0-552.0","987.7999999970198","","","","1","","",""
"","html-keyboard-response","553","723207","0.0-553.0","null","<div style=""font-size:60px;"">+</div>","null","","","","",""
"","image-button-response","554","723714","0.0-554.0","null","stimuli/images_hvm10/im91.png","","","null","91","9","4"
"","html-button-response","555","726321","0.0-555.0","2605.3999999910593","","","","1","","",""
"","html-keyboard-response","556","727328","0.0-556.0","null","<div style=""font-size:60px;"">+</div>","null","","","","",""
"","image-button-response","557","727831","0.0-557.0","null","stimuli/images_hvm10/im180.png","","","null","180","9","2"
"","html-button-response","558","729055","0.0-558.0","1220.800000011921","","","","0","","",""
"","html-keyboard-response","559","730059","0.0-559.0","null","<div style=""font-size:60px;"">+</div>","null","","","","",""
"","image-button-response","560","730565","0.0-560.0","null","stimuli/images_hvm10/im27.png","","","null","27","1","5"
"","html-button-response","561","731537","0.0-561.0","969.6999999880791","","","","0","","",""
"","html-keyboard-response","562","732545","0.0-562.0","null","<div style=""font-size:60px;"">+</div>","null","","","","",""
"","image-button-response","563","733047","0.0-563.0","null","stimuli/images_hvm10/im40.png","","","null","40","2","7"
"","html-button-response","564","733901","0.0-564.0","850.3999999910593","","","","0","","",""
"","html-keyboard-response","565","734904","0.0-565.0","null","<div style=""font-size:60px;"">+</div>","null","","","","",""
"","image-button-response","566","735408","0.0-566.0","null","stimuli/images_hvm10/im83.png","","","null","83","4","3"
"","html-button-response","567","736281","0.0-567.0","870.5999999940395","","","","0","","",""
"","html-keyboard-response","568","737287","0.0-568.0","null","<div style=""font-size:60px;"">+</div>","null","","","","",""
"","image-button-response","569","737791","0.0-569.0","null","stimuli/images_hvm10/im128.png","","","null","128","6","7"
"","html-button-response","570","738807","0.0-570.0","1012.7999999970198","","","","0","","",""
"","html-keyboard-response","571","739812","0.0-571.0","null","<div style=""font-size:60px;"">+</div>","null","","","","",""
"","image-button-response","572","740315","0.0-572.0","null","stimuli/images_hvm10/im81.png","","","null","81","4","8"
"","html-button-response","573","741887","0.0-573.0","1569.5999999940395","","","","0","","",""
"","html-keyboard-response","574","742891","0.0-574.0","null","<div style=""font-size:60px;"">+</div>","null","","","","",""
"","image-button-response","575","743399","0.0-575.0","null","stimuli/images_hvm10/im191.png","","","null","191","9","1"
"","html-button-response","576","744325","0.0-576.0","923.5","","","","0","","",""
"","html-keyboard-response","577","745333","0.0-577.0","null","<div style=""font-size:60px;"">+</div>","null","","","","",""
"","image-button-response","578","745838","0.0-578.0","null","stimuli/images_hvm10/im87.png","","","null","87","4","7"
"","html-button-response","579","746825","0.0-579.0","983.6000000089407","","","","0","","",""
"","html-keyboard-response","580","747827","0.0-580.0","null","<div style=""font-size:60px;"">+</div>","null","","","","",""
"","image-button-response","581","748335","0.0-581.0","null","stimuli/images_hvm10/im113.png","","","null","113","3","5"
"","html-button-response","582","749163","0.0-582.0","825.0999999940395","","","","1","","",""
"","html-keyboard-response","583","750165","0.0-583.0","null","<div style=""font-size:60px;"">+</div>","null","","","","",""
"","image-button-response","584","750673","0.0-584.0","null","stimuli/images_hvm10/im195.png","","","null","195","8","9"
"","html-button-response","585","751485","0.0-585.0","809.6000000089407","","","","1","","",""
"","html-keyboard-response","586","752488","0.0-586.0","null","<div style=""font-size:60px;"">+</div>","null","","","","",""
"","image-button-response","587","752990","0.0-587.0","null","stimuli/images_hvm10/im148.png","","","null","148","5","7"
"","html-button-response","588","754212","0.0-588.0","1218.5","","","","1","","",""
"","html-keyboard-response","589","755214","0.0-589.0","null","<div style=""font-size:60px;"">+</div>","null","","","","",""
"","image-button-response","590","755720","0.0-590.0","null","stimuli/images_hvm10/im147.png","","","null","147","9","7"
"","html-button-response","591","756663","0.0-591.0","940.4000000059605","","","","1","","",""
"","html-keyboard-response","592","757667","0.0-592.0","null","<div style=""font-size:60px;"">+</div>","null","","","","",""
"","image-button-response","593","758170","0.0-593.0","null","stimuli/images_hvm10/im106.png","","","null","106","5","7"
"","html-button-response","594","759146","0.0-594.0","972.7999999970198","","","","0","","",""
"","html-keyboard-response","595","760149","0.0-595.0","null","<div style=""font-size:60px;"">+</div>","null","","","","",""
"","image-button-response","596","760656","0.0-596.0","null","stimuli/images_hvm10/im124.png","","","null","124","6","8"
"","html-button-response","597","761937","0.0-597.0","1277.2000000029802","","","","1","","",""
"","html-keyboard-response","598","762942","0.0-598.0","null","<div style=""font-size:60px;"">+</div>","null","","","","",""
"","image-button-response","599","763445","0.0-599.0","null","stimuli/images_hvm10/im86.png","","","null","86","7","4"
"","html-button-response","600","765350","0.0-600.0","1902.1000000089407","","","","0","","",""
