"success","trial_type","trial_index","time_elapsed","internal_node_id","rt","stimulus","key_press","responses","button_pressed","images","left_choice","right_choice"
"true","fullscreen","0","2633","0.0-0.0","","","","","","","",""
"","html-keyboard-response","1","4593","0.0-1.0","1956.0999999046326","Welcome to the experiment. Press any key to begin.","32","","","","",""
"","survey-html-form","2","9395","0.0-2.0","4798.900000095367","","","{""p_id"":""1198"",""age"":""23"",""handedness"":""right"",""sex"":""female"",""other_sex"":""""}","","","",""
"","html-keyboard-response","3","31979","0.0-3.0","22581.199999809265","<p>Please fixate at the center '+' sign which will appear once you press any key. Then, <strong> an image </strong> will be shown in the center of the screen.</p><p>The image will contain an object.This will be followed by a <strong> Choice Screen </strong> containing two objects. Please choose the option <strong>[Click on the object]</strong> that you think was present in the image<p>Press any key to begin.</p>","32","","","","",""
"","html-keyboard-response","4","34988","0.0-4.0","null","<div style=""font-size:60px;"">+</div>","null","","","","",""
"","image-button-response","5","35493","0.0-5.0","null","stimuli/images_hvm10/im17.png","","","null","17","0","6"
"","html-button-response","6","36556","0.0-6.0","1060.4000000953674","","","","0","","",""
"","html-keyboard-response","7","37558","0.0-7.0","null","<div style=""font-size:60px;"">+</div>","null","","","","",""
"","image-button-response","8","38061","0.0-8.0","null","stimuli/images_hvm10/im61.png","","","null","61","3","1"
"","html-button-response","9","39843","0.0-9.0","1780.1999998092651","","","","0","","",""
"","html-keyboard-response","10","40849","0.0-10.0","null","<div style=""font-size:60px;"">+</div>","null","","","","",""
"","image-button-response","11","41356","0.0-11.0","null","stimuli/images_hvm10/im47.png","","","null","47","5","2"
"","html-button-response","12","42163","0.0-12.0","805.4000000953674","","","","0","","",""
"","html-keyboard-response","13","43164","0.0-13.0","null","<div style=""font-size:60px;"">+</div>","null","","","","",""
"","image-button-response","14","43671","0.0-14.0","null","stimuli/images_hvm10/im115.png","","","null","115","7","5"
"","html-button-response","15","44443","0.0-15.0","769.8000001907349","","","","0","","",""
"","html-keyboard-response","16","45447","0.0-16.0","null","<div style=""font-size:60px;"">+</div>","null","","","","",""
"","image-button-response","17","45954","0.0-17.0","null","stimuli/images_hvm10/im13.png","","","null","13","8","0"
"","html-button-response","18","47201","0.0-18.0","1245.7999997138977","","","","1","","",""
"","html-keyboard-response","19","48205","0.0-19.0","null","<div style=""font-size:60px;"">+</div>","null","","","","",""
"","image-button-response","20","48708","0.0-20.0","null","stimuli/images_hvm10/im140.png","","","null","140","8","7"
"","html-button-response","21","50203","0.0-21.0","1492.5999999046326","","","","1","","",""
"","html-keyboard-response","22","51205","0.0-22.0","null","<div style=""font-size:60px;"">+</div>","null","","","","",""
"","image-button-response","23","51711","0.0-23.0","null","stimuli/images_hvm10/im35.png","","","null","35","1","2"
"","html-button-response","24","52694","0.0-24.0","981.1999998092651","","","","0","","",""
"","html-keyboard-response","25","53700","0.0-25.0","null","<div style=""font-size:60px;"">+</div>","null","","","","",""
"","image-button-response","26","54207","0.0-26.0","null","stimuli/images_hvm10/im139.png","","","null","139","6","3"
"","html-button-response","27","55492","0.0-27.0","1283.2000002861023","","","","1","","",""
"","html-keyboard-response","28","56499","0.0-28.0","null","<div style=""font-size:60px;"">+</div>","null","","","","",""
"","image-button-response","29","57006","0.0-29.0","null","stimuli/images_hvm10/im22.png","","","null","22","4","1"
"","html-button-response","30","57941","0.0-30.0","933.5999999046326","","","","1","","",""
"","html-keyboard-response","31","58946","0.0-31.0","null","<div style=""font-size:60px;"">+</div>","null","","","","",""
"","image-button-response","32","59449","0.0-32.0","null","stimuli/images_hvm10/im117.png","","","null","117","5","1"
"","html-button-response","33","60385","0.0-33.0","934.5999999046326","","","","0","","",""
"","html-keyboard-response","34","61390","0.0-34.0","null","<div style=""font-size:60px;"">+</div>","null","","","","",""
"","image-button-response","35","61895","0.0-35.0","null","stimuli/images_hvm10/im0.png","","","null","0","0","7"
"","html-button-response","36","62425","0.0-36.0","528.9000000953674","","","","0","","",""
"","html-keyboard-response","37","63431","0.0-37.0","null","<div style=""font-size:60px;"">+</div>","null","","","","",""
"","image-button-response","38","63938","0.0-38.0","null","stimuli/images_hvm10/im101.png","","","null","101","4","5"
"","html-button-response","39","65214","0.0-39.0","1273.6999998092651","","","","0","","",""
"","html-keyboard-response","40","66216","0.0-40.0","null","<div style=""font-size:60px;"">+</div>","null","","","","",""
"","image-button-response","41","66720","0.0-41.0","null","stimuli/images_hvm10/im6.png","","","null","6","0","3"
"","html-button-response","42","67343","0.0-42.0","621.0999999046326","","","","0","","",""
"","html-keyboard-response","43","68349","0.0-43.0","null","<div style=""font-size:60px;"">+</div>","null","","","","",""
"","image-button-response","44","68856","0.0-44.0","null","stimuli/images_hvm10/im10.png","","","null","10","2","0"
"","html-button-response","45","69970","0.0-45.0","1112.8000001907349","","","","1","","",""
"","html-keyboard-response","46","70976","0.0-46.0","null","<div style=""font-size:60px;"">+</div>","null","","","","",""
"","image-button-response","47","71483","0.0-47.0","null","stimuli/images_hvm10/im144.png","","","null","144","3","7"
"","html-button-response","48","72497","0.0-48.0","1011.6999998092651","","","","1","","",""
"","html-keyboard-response","49","73500","0.0-49.0","null","<div style=""font-size:60px;"">+</div>","null","","","","",""
"","image-button-response","50","74007","0.0-50.0","null","stimuli/images_hvm10/im153.png","","","null","153","2","7"
"","html-button-response","51","74659","0.0-51.0","649.9000000953674","","","","1","","",""
"","html-keyboard-response","52","75662","0.0-52.0","null","<div style=""font-size:60px;"">+</div>","null","","","","",""
"","image-button-response","53","76166","0.0-53.0","null","stimuli/images_hvm10/im25.png","","","null","25","1","9"
"","html-button-response","54","77091","0.0-54.0","922.5999999046326","","","","0","","",""
"","html-keyboard-response","55","78093","0.0-55.0","null","<div style=""font-size:60px;"">+</div>","null","","","","",""
"","image-button-response","56","78599","0.0-56.0","null","stimuli/images_hvm10/im131.png","","","null","131","6","4"
"","html-button-response","57","79435","0.0-57.0","834.2999997138977","","","","0","","",""
"","html-keyboard-response","58","80437","0.0-58.0","null","<div style=""font-size:60px;"">+</div>","null","","","","",""
"","image-button-response","59","80944","0.0-59.0","null","stimuli/images_hvm10/im7.png","","","null","7","1","0"
"","html-button-response","60","82500","0.0-60.0","1554.2000002861023","","","","1","","",""
"","html-keyboard-response","61","83504","0.0-61.0","null","<div style=""font-size:60px;"">+</div>","null","","","","",""
"","image-button-response","62","84007","0.0-62.0","null","stimuli/images_hvm10/im113.png","","","null","113","5","0"
"","html-button-response","63","84927","0.0-63.0","918.5999999046326","","","","0","","",""
"","html-keyboard-response","64","85934","0.0-64.0","null","<div style=""font-size:60px;"">+</div>","null","","","","",""
"","image-button-response","65","86438","0.0-65.0","null","stimuli/images_hvm10/im36.png","","","null","36","3","1"
"","html-button-response","66","87489","0.0-66.0","1050.1999998092651","","","","1","","",""
"","html-keyboard-response","67","88492","0.0-67.0","null","<div style=""font-size:60px;"">+</div>","null","","","","",""
"","image-button-response","68","88996","0.0-68.0","null","stimuli/images_hvm10/im146.png","","","null","146","9","7"
"","html-button-response","69","89690","0.0-69.0","692.8000001907349","","","","1","","",""
"","html-keyboard-response","70","90694","0.0-70.0","null","<div style=""font-size:60px;"">+</div>","null","","","","",""
"","image-button-response","71","91201","0.0-71.0","null","stimuli/images_hvm10/im154.png","","","null","154","9","7"
"","html-button-response","72","91752","0.0-72.0","549.4000000953674","","","","1","","",""
"","html-keyboard-response","73","92756","0.0-73.0","null","<div style=""font-size:60px;"">+</div>","null","","","","",""
"","image-button-response","74","93257","0.0-74.0","null","stimuli/images_hvm10/im145.png","","","null","145","7","5"
"","html-button-response","75","94559","0.0-75.0","1299.5999999046326","","","","0","","",""
"","html-keyboard-response","76","95562","0.0-76.0","null","<div style=""font-size:60px;"">+</div>","null","","","","",""
"","image-button-response","77","96066","0.0-77.0","null","stimuli/images_hvm10/im24.png","","","null","24","1","2"
"","html-button-response","78","96744","0.0-78.0","676.6999998092651","","","","0","","",""
"","html-keyboard-response","79","97746","0.0-79.0","null","<div style=""font-size:60px;"">+</div>","null","","","","",""
"","image-button-response","80","98250","0.0-80.0","null","stimuli/images_hvm10/im1.png","","","null","1","0","2"
"","html-button-response","81","98827","0.0-81.0","575","","","","0","","",""
"","html-keyboard-response","82","99832","0.0-82.0","null","<div style=""font-size:60px;"">+</div>","null","","","","",""
"","image-button-response","83","100335","0.0-83.0","null","stimuli/images_hvm10/im173.png","","","null","173","1","8"
"","html-button-response","84","101294","0.0-84.0","956.8999996185303","","","","1","","",""
"","html-keyboard-response","85","102296","0.0-85.0","null","<div style=""font-size:60px;"">+</div>","null","","","","",""
"","image-button-response","86","102803","0.0-86.0","null","stimuli/images_hvm10/im8.png","","","null","8","6","0"
"","html-button-response","87","103724","0.0-87.0","919.4000000953674","","","","1","","",""
"","html-keyboard-response","88","104731","0.0-88.0","null","<div style=""font-size:60px;"">+</div>","null","","","","",""
"","image-button-response","89","105238","0.0-89.0","null","stimuli/images_hvm10/im23.png","","","null","23","1","8"
"","html-button-response","90","106275","0.0-90.0","1035.5999999046326","","","","0","","",""
"","html-keyboard-response","91","107281","0.0-91.0","null","<div style=""font-size:60px;"">+</div>","null","","","","",""
"","image-button-response","92","107789","0.0-92.0","null","stimuli/images_hvm10/im120.png","","","null","120","6","4"
"","html-button-response","93","108412","0.0-93.0","621.5999999046326","","","","0","","",""
"","html-keyboard-response","94","109418","0.0-94.0","null","<div style=""font-size:60px;"">+</div>","null","","","","",""
"","image-button-response","95","109924","0.0-95.0","null","stimuli/images_hvm10/im49.png","","","null","49","4","2"
"","html-button-response","96","110820","0.0-96.0","894","","","","0","","",""
"","html-keyboard-response","97","111826","0.0-97.0","null","<div style=""font-size:60px;"">+</div>","null","","","","",""
"","image-button-response","98","112333","0.0-98.0","null","stimuli/images_hvm10/im9.png","","","null","9","5","0"
"","html-button-response","99","113429","0.0-99.0","1093.7999997138977","","","","1","","",""
"","html-keyboard-response","100","114430","0.0-100.0","null","<div style=""font-size:60px;"">+</div>","null","","","","",""
"","image-button-response","101","114934","0.0-101.0","null","stimuli/images_hvm10/im198.png","","","null","198","3","9"
"","html-button-response","102","115534","0.0-102.0","597.2999997138977","","","","1","","",""
"","html-keyboard-response","103","116540","0.0-103.0","null","<div style=""font-size:60px;"">+</div>","null","","","","",""
"","image-button-response","104","117047","0.0-104.0","null","stimuli/images_hvm10/im149.png","","","null","149","7","3"
"","html-button-response","105","118237","0.0-105.0","1188","","","","0","","",""
"","html-keyboard-response","106","119244","0.0-106.0","null","<div style=""font-size:60px;"">+</div>","null","","","","",""
"","image-button-response","107","119747","0.0-107.0","null","stimuli/images_hvm10/im58.png","","","null","58","0","2"
"","html-button-response","108","120943","0.0-108.0","1193.9000000953674","","","","1","","",""
"","html-keyboard-response","109","121950","0.0-109.0","null","<div style=""font-size:60px;"">+</div>","null","","","","",""
"","image-button-response","110","122457","0.0-110.0","null","stimuli/images_hvm10/im37.png","","","null","37","1","9"
"","html-button-response","111","123243","0.0-111.0","784.3000001907349","","","","1","","",""
"","html-keyboard-response","112","124249","0.0-112.0","null","<div style=""font-size:60px;"">+</div>","null","","","","",""
"","image-button-response","113","124756","0.0-113.0","null","stimuli/images_hvm10/im187.png","","","null","187","7","9"
"","html-button-response","114","125317","0.0-114.0","559.4000000953674","","","","1","","",""
"","html-keyboard-response","115","126323","0.0-115.0","null","<div style=""font-size:60px;"">+</div>","null","","","","",""
"","image-button-response","116","126830","0.0-116.0","null","stimuli/images_hvm10/im33.png","","","null","33","1","9"
"","html-button-response","117","127768","0.0-117.0","935.8000001907349","","","","0","","",""
"","html-keyboard-response","118","128771","0.0-118.0","null","<div style=""font-size:60px;"">+</div>","null","","","","",""
"","image-button-response","119","129279","0.0-119.0","null","stimuli/images_hvm10/im165.png","","","null","165","9","8"
"","html-button-response","120","130344","0.0-120.0","1062.7000002861023","","","","1","","",""
"","html-keyboard-response","121","131350","0.0-121.0","null","<div style=""font-size:60px;"">+</div>","null","","","","",""
"","image-button-response","122","131857","0.0-122.0","null","stimuli/images_hvm10/im16.png","","","null","16","6","0"
"","html-button-response","123","132380","0.0-123.0","521.7999997138977","","","","1","","",""
"","html-keyboard-response","124","133386","0.0-124.0","null","<div style=""font-size:60px;"">+</div>","null","","","","",""
"","image-button-response","125","133890","0.0-125.0","null","stimuli/images_hvm10/im20.png","","","null","20","9","1"
"","html-button-response","126","134485","0.0-126.0","593","","","","1","","",""
"","html-keyboard-response","127","135491","0.0-127.0","null","<div style=""font-size:60px;"">+</div>","null","","","","",""
"","image-button-response","128","135998","0.0-128.0","null","stimuli/images_hvm10/im121.png","","","null","121","7","6"
"","html-button-response","129","137111","0.0-129.0","1110.9000000953674","","","","0","","",""
"","html-keyboard-response","130","138115","0.0-130.0","null","<div style=""font-size:60px;"">+</div>","null","","","","",""
"","image-button-response","131","138617","0.0-131.0","null","stimuli/images_hvm10/im92.png","","","null","92","4","1"
"","html-button-response","132","139495","0.0-132.0","875.2999997138977","","","","1","","",""
"","html-keyboard-response","133","140500","0.0-133.0","null","<div style=""font-size:60px;"">+</div>","null","","","","",""
"","image-button-response","134","141002","0.0-134.0","null","stimuli/images_hvm10/im100.png","","","null","100","5","7"
"","html-button-response","135","141907","0.0-135.0","902.8000001907349","","","","0","","",""
"","html-keyboard-response","136","142914","0.0-136.0","null","<div style=""font-size:60px;"">+</div>","null","","","","",""
"","image-button-response","137","143421","0.0-137.0","null","stimuli/images_hvm10/im26.png","","","null","26","4","1"
"","html-button-response","138","144928","0.0-138.0","1504.5","","","","1","","",""
"","html-keyboard-response","139","145934","0.0-139.0","null","<div style=""font-size:60px;"">+</div>","null","","","","",""
"","image-button-response","140","146442","0.0-140.0","null","stimuli/images_hvm10/im31.png","","","null","31","3","1"
"","html-button-response","141","147034","0.0-141.0","589.9000000953674","","","","1","","",""
"","html-keyboard-response","142","148038","0.0-142.0","null","<div style=""font-size:60px;"">+</div>","null","","","","",""
"","image-button-response","143","148543","0.0-143.0","null","stimuli/images_hvm10/im157.png","","","null","157","3","7"
"","html-button-response","144","149178","0.0-144.0","633.6999998092651","","","","1","","",""
"","html-keyboard-response","145","150185","0.0-145.0","null","<div style=""font-size:60px;"">+</div>","null","","","","",""
"","image-button-response","146","150689","0.0-146.0","null","stimuli/images_hvm10/im143.png","","","null","143","7","1"
"","html-button-response","147","151260","0.0-147.0","568.4000000953674","","","","1","","",""
"","html-keyboard-response","148","152262","0.0-148.0","null","<div style=""font-size:60px;"">+</div>","null","","","","",""
"","image-button-response","149","152767","0.0-149.0","null","stimuli/images_hvm10/im46.png","","","null","46","2","3"
"","html-button-response","150","153632","0.0-150.0","862.5","","","","0","","",""
"","html-keyboard-response","151","154638","0.0-151.0","null","<div style=""font-size:60px;"">+</div>","null","","","","",""
"","image-button-response","152","155141","0.0-152.0","null","stimuli/images_hvm10/im110.png","","","null","110","4","5"
"","html-button-response","153","155987","0.0-153.0","844","","","","1","","",""
"","html-keyboard-response","154","156991","0.0-154.0","null","<div style=""font-size:60px;"">+</div>","null","","","","",""
"","image-button-response","155","157498","0.0-155.0","null","stimuli/images_hvm10/im171.png","","","null","171","1","8"
"","html-button-response","156","158331","0.0-156.0","830.9000000953674","","","","1","","",""
"","html-keyboard-response","157","159338","0.0-157.0","null","<div style=""font-size:60px;"">+</div>","null","","","","",""
"","image-button-response","158","159845","0.0-158.0","null","stimuli/images_hvm10/im2.png","","","null","2","0","5"
"","html-button-response","159","160973","0.0-159.0","1126.0999999046326","","","","0","","",""
"","html-keyboard-response","160","161980","0.0-160.0","null","<div style=""font-size:60px;"">+</div>","null","","","","",""
"","image-button-response","161","162484","0.0-161.0","null","stimuli/images_hvm10/im94.png","","","null","94","6","4"
"","html-button-response","162","163405","0.0-162.0","919.4000000953674","","","","1","","",""
"","html-keyboard-response","163","164408","0.0-163.0","null","<div style=""font-size:60px;"">+</div>","null","","","","",""
"","image-button-response","164","164912","0.0-164.0","null","stimuli/images_hvm10/im172.png","","","null","172","5","8"
"","html-button-response","165","165402","0.0-165.0","488.40000009536743","","","","1","","",""
"","html-keyboard-response","166","166403","0.0-166.0","null","<div style=""font-size:60px;"">+</div>","null","","","","",""
"","image-button-response","167","166908","0.0-167.0","null","stimuli/images_hvm10/im155.png","","","null","155","1","7"
"","html-button-response","168","167571","0.0-168.0","661.6000003814697","","","","1","","",""
"","html-keyboard-response","169","168577","0.0-169.0","null","<div style=""font-size:60px;"">+</div>","null","","","","",""
"","image-button-response","170","169080","0.0-170.0","null","stimuli/images_hvm10/im63.png","","","null","63","7","3"
"","html-button-response","171","170129","0.0-171.0","1047.5","","","","1","","",""
"","html-keyboard-response","172","171132","0.0-172.0","null","<div style=""font-size:60px;"">+</div>","null","","","","",""
"","image-button-response","173","171639","0.0-173.0","null","stimuli/images_hvm10/im103.png","","","null","103","0","5"
"","html-button-response","174","172150","0.0-174.0","509.8999996185303","","","","1","","",""
"","html-keyboard-response","175","173154","0.0-175.0","null","<div style=""font-size:60px;"">+</div>","null","","","","",""
"","image-button-response","176","173661","0.0-176.0","null","stimuli/images_hvm10/im164.png","","","null","164","8","4"
"","html-button-response","177","175354","0.0-177.0","1691.3000001907349","","","","0","","",""
"","html-keyboard-response","178","176359","0.0-178.0","null","<div style=""font-size:60px;"">+</div>","null","","","","",""
"","image-button-response","179","176866","0.0-179.0","null","stimuli/images_hvm10/im166.png","","","null","166","8","4"
"","html-button-response","180","177814","0.0-180.0","945.6999998092651","","","","0","","",""
"","html-keyboard-response","181","178816","0.0-181.0","null","<div style=""font-size:60px;"">+</div>","null","","","","",""
"","image-button-response","182","179323","0.0-182.0","null","stimuli/images_hvm10/im84.png","","","null","84","4","9"
"","html-button-response","183","180376","0.0-183.0","1051.6999998092651","","","","0","","",""
"","html-keyboard-response","184","181381","0.0-184.0","null","<div style=""font-size:60px;"">+</div>","null","","","","",""
"","image-button-response","185","181887","0.0-185.0","null","stimuli/images_hvm10/im196.png","","","null","196","6","9"
"","html-button-response","186","182648","0.0-186.0","759.3000001907349","","","","1","","",""
"","html-keyboard-response","187","183652","0.0-187.0","null","<div style=""font-size:60px;"">+</div>","null","","","","",""
"","image-button-response","188","184155","0.0-188.0","null","stimuli/images_hvm10/im64.png","","","null","64","6","3"
"","html-button-response","189","184721","0.0-189.0","564.5","","","","1","","",""
"","html-keyboard-response","190","185723","0.0-190.0","null","<div style=""font-size:60px;"">+</div>","null","","","","",""
"","image-button-response","191","186230","0.0-191.0","null","stimuli/images_hvm10/im132.png","","","null","132","6","8"
"","html-button-response","192","186826","0.0-192.0","594.7999997138977","","","","1","","",""
"","html-keyboard-response","193","187831","0.0-193.0","null","<div style=""font-size:60px;"">+</div>","null","","","","",""
"","image-button-response","194","188335","0.0-194.0","null","stimuli/images_hvm10/im3.png","","","null","3","0","8"
"","html-button-response","195","189505","0.0-195.0","1169.0999999046326","","","","0","","",""
"","html-keyboard-response","196","190507","0.0-196.0","null","<div style=""font-size:60px;"">+</div>","null","","","","",""
"","image-button-response","197","191010","0.0-197.0","null","stimuli/images_hvm10/im118.png","","","null","118","8","5"
"","html-button-response","198","191594","0.0-198.0","583.0999999046326","","","","0","","",""
"","html-keyboard-response","199","192598","0.0-199.0","null","<div style=""font-size:60px;"">+</div>","null","","","","",""
"","image-button-response","200","193104","0.0-200.0","null","stimuli/images_hvm10/im44.png","","","null","44","2","5"
"","html-button-response","201","193922","0.0-201.0","816.7000002861023","","","","0","","",""
"","html-keyboard-response","202","194926","0.0-202.0","null","<div style=""font-size:60px;"">+</div>","null","","","","",""
"","image-button-response","203","195433","0.0-203.0","null","stimuli/images_hvm10/im159.png","","","null","159","7","1"
"","html-button-response","204","196277","0.0-204.0","842.5999999046326","","","","0","","",""
"","html-keyboard-response","205","197284","0.0-205.0","null","<div style=""font-size:60px;"">+</div>","null","","","","",""
"","image-button-response","206","197788","0.0-206.0","null","stimuli/images_hvm10/im15.png","","","null","15","4","0"
"","html-button-response","207","198605","0.0-207.0","814.8000001907349","","","","1","","",""
"","html-keyboard-response","208","199607","0.0-208.0","null","<div style=""font-size:60px;"">+</div>","null","","","","",""
"","image-button-response","209","200110","0.0-209.0","null","stimuli/images_hvm10/im169.png","","","null","169","2","8"
"","html-button-response","210","200666","0.0-210.0","554.4000000953674","","","","1","","",""
"","html-keyboard-response","211","201670","0.0-211.0","null","<div style=""font-size:60px;"">+</div>","null","","","","",""
"","image-button-response","212","202171","0.0-212.0","null","stimuli/images_hvm10/im21.png","","","null","21","1","8"
"","html-button-response","213","202785","0.0-213.0","612.0999999046326","","","","1","","",""
"","html-keyboard-response","214","203789","0.0-214.0","null","<div style=""font-size:60px;"">+</div>","null","","","","",""
"","image-button-response","215","204296","0.0-215.0","null","stimuli/images_hvm10/im128.png","","","null","128","6","5"
"","html-button-response","216","206049","0.0-216.0","1750.6999998092651","","","","0","","",""
"","html-keyboard-response","217","207051","0.0-217.0","null","<div style=""font-size:60px;"">+</div>","null","","","","",""
"","image-button-response","218","207558","0.0-218.0","null","stimuli/images_hvm10/im68.png","","","null","68","7","3"
"","html-button-response","219","208395","0.0-219.0","835.4000000953674","","","","1","","",""
"","html-keyboard-response","220","209399","0.0-220.0","null","<div style=""font-size:60px;"">+</div>","null","","","","",""
"","image-button-response","221","209906","0.0-221.0","null","stimuli/images_hvm10/im96.png","","","null","96","4","0"
"","html-button-response","222","210469","0.0-222.0","561","","","","1","","",""
"","html-keyboard-response","223","211473","0.0-223.0","null","<div style=""font-size:60px;"">+</div>","null","","","","",""
"","image-button-response","224","211977","0.0-224.0","null","stimuli/images_hvm10/im175.png","","","null","175","9","8"
"","html-button-response","225","212677","0.0-225.0","697.6999998092651","","","","1","","",""
"","html-keyboard-response","226","213683","0.0-226.0","null","<div style=""font-size:60px;"">+</div>","null","","","","",""
"","image-button-response","227","214189","0.0-227.0","null","stimuli/images_hvm10/im95.png","","","null","95","1","4"
"","html-button-response","228","215955","0.0-228.0","1763.4000000953674","","","","1","","",""
"","html-keyboard-response","229","216959","0.0-229.0","null","<div style=""font-size:60px;"">+</div>","null","","","","",""
"","image-button-response","230","217463","0.0-230.0","null","stimuli/images_hvm10/im195.png","","","null","195","4","9"
"","html-button-response","231","217956","0.0-231.0","491","","","","1","","",""
"","html-keyboard-response","232","218962","0.0-232.0","null","<div style=""font-size:60px;"">+</div>","null","","","","",""
"","image-button-response","233","219469","0.0-233.0","null","stimuli/images_hvm10/im111.png","","","null","111","5","6"
"","html-button-response","234","220319","0.0-234.0","848.5","","","","0","","",""
"","html-keyboard-response","235","221326","0.0-235.0","null","<div style=""font-size:60px;"">+</div>","null","","","","",""
"","image-button-response","236","221833","0.0-236.0","null","stimuli/images_hvm10/im123.png","","","null","123","6","0"
"","html-button-response","237","222966","0.0-237.0","1131.0999999046326","","","","0","","",""
"","html-keyboard-response","238","223973","0.0-238.0","null","<div style=""font-size:60px;"">+</div>","null","","","","",""
"","image-button-response","239","224476","0.0-239.0","null","stimuli/images_hvm10/im71.png","","","null","71","3","8"
"","html-button-response","240","225290","0.0-240.0","812.3000001907349","","","","0","","",""
"","html-keyboard-response","241","226296","0.0-241.0","null","<div style=""font-size:60px;"">+</div>","null","","","","",""
"","image-button-response","242","226803","0.0-242.0","null","stimuli/images_hvm10/im30.png","","","null","30","9","1"
"","html-button-response","243","228116","0.0-243.0","1310.5","","","","1","","",""
"","html-keyboard-response","244","229118","0.0-244.0","null","<div style=""font-size:60px;"">+</div>","null","","","","",""
"","image-button-response","245","229623","0.0-245.0","null","stimuli/images_hvm10/im86.png","","","null","86","0","4"
"","html-button-response","246","230252","0.0-246.0","627.0999999046326","","","","1","","",""
"","html-keyboard-response","247","231258","0.0-247.0","null","<div style=""font-size:60px;"">+</div>","null","","","","",""
"","image-button-response","248","231767","0.0-248.0","null","stimuli/images_hvm10/im189.png","","","null","189","9","5"
"","html-button-response","249","232553","0.0-249.0","784.3000001907349","","","","0","","",""
"","html-keyboard-response","250","233559","0.0-250.0","null","<div style=""font-size:60px;"">+</div>","null","","","","",""
"","image-button-response","251","234066","0.0-251.0","null","stimuli/images_hvm10/im194.png","","","null","194","9","6"
"","html-button-response","252","234896","0.0-252.0","827.5","","","","0","","",""
"","html-keyboard-response","253","235898","0.0-253.0","null","<div style=""font-size:60px;"">+</div>","null","","","","",""
"","image-button-response","254","236402","0.0-254.0","null","stimuli/images_hvm10/im32.png","","","null","32","1","8"
"","html-button-response","255","237228","0.0-255.0","824.0999999046326","","","","0","","",""
"","html-keyboard-response","256","238234","0.0-256.0","null","<div style=""font-size:60px;"">+</div>","null","","","","",""
"","image-button-response","257","238741","0.0-257.0","null","stimuli/images_hvm10/im191.png","","","null","191","1","9"
"","html-button-response","258","240062","0.0-258.0","1318.3000001907349","","","","1","","",""
"","html-keyboard-response","259","241067","0.0-259.0","null","<div style=""font-size:60px;"">+</div>","null","","","","",""
"","image-button-response","260","241570","0.0-260.0","null","stimuli/images_hvm10/im127.png","","","null","127","0","6"
"","html-button-response","261","241951","0.0-261.0","379.2000002861023","","","","1","","",""
"","html-keyboard-response","262","242957","0.0-262.0","null","<div style=""font-size:60px;"">+</div>","null","","","","",""
"","image-button-response","263","243463","0.0-263.0","null","stimuli/images_hvm10/im75.png","","","null","75","0","3"
"","html-button-response","264","243988","0.0-264.0","522.2999997138977","","","","1","","",""
"","html-keyboard-response","265","244990","0.0-265.0","null","<div style=""font-size:60px;"">+</div>","null","","","","",""
"","image-button-response","266","245495","0.0-266.0","null","stimuli/images_hvm10/im192.png","","","null","192","9","1"
"","html-button-response","267","246371","0.0-267.0","874.5999999046326","","","","0","","",""
"","html-keyboard-response","268","247378","0.0-268.0","null","<div style=""font-size:60px;"">+</div>","null","","","","",""
"","image-button-response","269","247885","0.0-269.0","null","stimuli/images_hvm10/im161.png","","","null","161","8","3"
"","html-button-response","270","248555","0.0-270.0","668.5","","","","0","","",""
"","html-keyboard-response","271","249563","0.0-271.0","null","<div style=""font-size:60px;"">+</div>","null","","","","",""
"","image-button-response","272","250066","0.0-272.0","null","stimuli/images_hvm10/im51.png","","","null","51","2","5"
"","html-button-response","273","250637","0.0-273.0","569.0999999046326","","","","0","","",""
"","html-keyboard-response","274","251639","0.0-274.0","null","<div style=""font-size:60px;"">+</div>","null","","","","",""
"","image-button-response","275","252146","0.0-275.0","null","stimuli/images_hvm10/im57.png","","","null","57","2","0"
"","html-button-response","276","252718","0.0-276.0","570.3000001907349","","","","0","","",""
"","html-keyboard-response","277","253724","0.0-277.0","null","<div style=""font-size:60px;"">+</div>","null","","","","",""
"","image-button-response","278","254227","0.0-278.0","null","stimuli/images_hvm10/im97.png","","","null","97","4","6"
"","html-button-response","279","254743","0.0-279.0","513.6999998092651","","","","0","","",""
"","html-keyboard-response","280","255748","0.0-280.0","null","<div style=""font-size:60px;"">+</div>","null","","","","",""
"","image-button-response","281","256254","0.0-281.0","null","stimuli/images_hvm10/im79.png","","","null","79","3","1"
"","html-button-response","282","256777","0.0-282.0","521","","","","0","","",""
"","html-keyboard-response","283","257779","0.0-283.0","null","<div style=""font-size:60px;"">+</div>","null","","","","",""
"","image-button-response","284","258285","0.0-284.0","null","stimuli/images_hvm10/im162.png","","","null","162","2","8"
"","html-button-response","285","259451","0.0-285.0","1164.0999999046326","","","","1","","",""
"","html-keyboard-response","286","260455","0.0-286.0","null","<div style=""font-size:60px;"">+</div>","null","","","","",""
"","image-button-response","287","260957","0.0-287.0","null","stimuli/images_hvm10/im156.png","","","null","156","1","7"
"","html-button-response","288","261521","0.0-288.0","562","","","","1","","",""
"","html-keyboard-response","289","262526","0.0-289.0","null","<div style=""font-size:60px;"">+</div>","null","","","","",""
"","image-button-response","290","263029","0.0-290.0","null","stimuli/images_hvm10/im53.png","","","null","53","2","6"
"","html-button-response","291","264227","0.0-291.0","1196.9000000953674","","","","0","","",""
"","html-keyboard-response","292","265231","0.0-292.0","null","<div style=""font-size:60px;"">+</div>","null","","","","",""
"","image-button-response","293","265735","0.0-293.0","null","stimuli/images_hvm10/im59.png","","","null","59","2","8"
"","html-button-response","294","266260","0.0-294.0","523.1000003814697","","","","0","","",""
"","html-keyboard-response","295","267266","0.0-295.0","null","<div style=""font-size:60px;"">+</div>","null","","","","",""
"","image-button-response","296","267770","0.0-296.0","null","stimuli/images_hvm10/im125.png","","","null","125","6","2"
"","html-button-response","297","268340","0.0-297.0","568.1999998092651","","","","0","","",""
"","html-keyboard-response","298","269343","0.0-298.0","null","<div style=""font-size:60px;"">+</div>","null","","","","",""
"","image-button-response","299","269847","0.0-299.0","null","stimuli/images_hvm10/im197.png","","","null","197","9","4"
"","html-button-response","300","270388","0.0-300.0","538.7999997138977","","","","0","","",""
"","html-keyboard-response","301","271393","0.0-301.0","null","<div style=""font-size:60px;"">+</div>","null","","","","",""
"","image-button-response","302","271898","0.0-302.0","null","stimuli/images_hvm10/im181.png","","","null","181","9","6"
"","html-button-response","303","272392","0.0-303.0","491.40000009536743","","","","0","","",""
"","html-keyboard-response","304","273398","0.0-304.0","null","<div style=""font-size:60px;"">+</div>","null","","","","",""
"","image-button-response","305","273901","0.0-305.0","null","stimuli/images_hvm10/im137.png","","","null","137","6","0"
"","html-button-response","306","274640","0.0-306.0","736.5999999046326","","","","0","","",""
"","html-keyboard-response","307","275642","0.0-307.0","null","<div style=""font-size:60px;"">+</div>","null","","","","",""
"","image-button-response","308","276146","0.0-308.0","null","stimuli/images_hvm10/im135.png","","","null","135","7","6"
"","html-button-response","309","277279","0.0-309.0","1130.7000002861023","","","","1","","",""
"","html-keyboard-response","310","278286","0.0-310.0","null","<div style=""font-size:60px;"">+</div>","null","","","","",""
"","image-button-response","311","278793","0.0-311.0","null","stimuli/images_hvm10/im70.png","","","null","70","3","1"
"","html-button-response","312","279619","0.0-312.0","824.5999999046326","","","","0","","",""
"","html-keyboard-response","313","280626","0.0-313.0","null","<div style=""font-size:60px;"">+</div>","null","","","","",""
"","image-button-response","314","281130","0.0-314.0","null","stimuli/images_hvm10/im90.png","","","null","90","4","7"
"","html-button-response","315","281665","0.0-315.0","532.3999996185303","","","","0","","",""
"","html-keyboard-response","316","282671","0.0-316.0","null","<div style=""font-size:60px;"">+</div>","null","","","","",""
"","image-button-response","317","283178","0.0-317.0","null","stimuli/images_hvm10/im108.png","","","null","108","5","4"
"","html-button-response","318","284710","0.0-318.0","1530.3000001907349","","","","1","","",""
"","html-keyboard-response","319","285715","0.0-319.0","null","<div style=""font-size:60px;"">+</div>","null","","","","",""
"","image-button-response","320","286220","0.0-320.0","null","stimuli/images_hvm10/im34.png","","","null","34","5","1"
"","html-button-response","321","286903","0.0-321.0","680.9000000953674","","","","1","","",""
"","html-keyboard-response","322","287907","0.0-322.0","null","<div style=""font-size:60px;"">+</div>","null","","","","",""
"","image-button-response","323","288410","0.0-323.0","null","stimuli/images_hvm10/im158.png","","","null","158","7","8"
"","html-button-response","324","289441","0.0-324.0","1030","","","","0","","",""
"","html-keyboard-response","325","290447","0.0-325.0","null","<div style=""font-size:60px;"">+</div>","null","","","","",""
"","image-button-response","326","290953","0.0-326.0","null","stimuli/images_hvm10/im38.png","","","null","38","1","2"
"","html-button-response","327","291498","0.0-327.0","543.5","","","","0","","",""
"","html-keyboard-response","328","292504","0.0-328.0","null","<div style=""font-size:60px;"">+</div>","null","","","","",""
"","image-button-response","329","293008","0.0-329.0","null","stimuli/images_hvm10/im12.png","","","null","12","3","0"
"","html-button-response","330","294201","0.0-330.0","1190.1999998092651","","","","1","","",""
"","html-keyboard-response","331","295207","0.0-331.0","null","<div style=""font-size:60px;"">+</div>","null","","","","",""
"","image-button-response","332","295712","0.0-332.0","null","stimuli/images_hvm10/im28.png","","","null","28","1","6"
"","html-button-response","333","296604","0.0-333.0","890.1999998092651","","","","0","","",""
"","html-keyboard-response","334","297611","0.0-334.0","null","<div style=""font-size:60px;"">+</div>","null","","","","",""
"","image-button-response","335","298115","0.0-335.0","null","stimuli/images_hvm10/im19.png","","","null","19","0","4"
"","html-button-response","336","298612","0.0-336.0","495.69999980926514","","","","0","","",""
"","html-keyboard-response","337","299618","0.0-337.0","null","<div style=""font-size:60px;"">+</div>","null","","","","",""
"","image-button-response","338","300121","0.0-338.0","null","stimuli/images_hvm10/im126.png","","","null","126","6","2"
"","html-button-response","339","300718","0.0-339.0","595.1999998092651","","","","0","","",""
"","html-keyboard-response","340","301725","0.0-340.0","null","<div style=""font-size:60px;"">+</div>","null","","","","",""
"","image-button-response","341","302231","0.0-341.0","null","stimuli/images_hvm10/im98.png","","","null","98","1","4"
"","html-button-response","342","302711","0.0-342.0","477.30000019073486","","","","0","","",""
"","html-keyboard-response","343","303716","0.0-343.0","null","<div style=""font-size:60px;"">+</div>","null","","","","",""
"","image-button-response","344","304221","0.0-344.0","null","stimuli/images_hvm10/im109.png","","","null","109","5","1"
"","html-button-response","345","304904","0.0-345.0","680.2999997138977","","","","0","","",""
"","html-keyboard-response","346","305910","0.0-346.0","null","<div style=""font-size:60px;"">+</div>","null","","","","",""
"","image-button-response","347","306418","0.0-347.0","null","stimuli/images_hvm10/im102.png","","","null","102","5","8"
"","html-button-response","348","306936","0.0-348.0","516.4000000953674","","","","0","","",""
"","html-keyboard-response","349","307942","0.0-349.0","null","<div style=""font-size:60px;"">+</div>","null","","","","",""
"","image-button-response","350","308449","0.0-350.0","null","stimuli/images_hvm10/im66.png","","","null","66","3","8"
"","html-button-response","351","308964","0.0-351.0","512.5","","","","0","","",""
"","html-keyboard-response","352","309967","0.0-352.0","null","<div style=""font-size:60px;"">+</div>","null","","","","",""
"","image-button-response","353","310474","0.0-353.0","null","stimuli/images_hvm10/im134.png","","","null","134","6","4"
"","html-button-response","354","310957","0.0-354.0","481.09999990463257","","","","0","","",""
"","html-keyboard-response","355","311963","0.0-355.0","null","<div style=""font-size:60px;"">+</div>","null","","","","",""
"","image-button-response","356","312469","0.0-356.0","null","stimuli/images_hvm10/im72.png","","","null","72","3","1"
"","html-button-response","357","312977","0.0-357.0","506.30000019073486","","","","0","","",""
"","html-keyboard-response","358","313980","0.0-358.0","null","<div style=""font-size:60px;"">+</div>","null","","","","",""
"","image-button-response","359","314487","0.0-359.0","null","stimuli/images_hvm10/im99.png","","","null","99","7","4"
"","html-button-response","360","315701","0.0-360.0","1212.2000002861023","","","","1","","",""
"","html-keyboard-response","361","316708","0.0-361.0","null","<div style=""font-size:60px;"">+</div>","null","","","","",""
"","image-button-response","362","317215","0.0-362.0","null","stimuli/images_hvm10/im89.png","","","null","89","7","4"
"","html-button-response","363","318165","0.0-363.0","948","","","","1","","",""
"","html-keyboard-response","364","319169","0.0-364.0","null","<div style=""font-size:60px;"">+</div>","null","","","","",""
"","image-button-response","365","319677","0.0-365.0","null","stimuli/images_hvm10/im179.png","","","null","179","0","8"
"","html-button-response","366","320711","0.0-366.0","1032.9000000953674","","","","0","","",""
"","html-keyboard-response","367","321716","0.0-367.0","null","<div style=""font-size:60px;"">+</div>","null","","","","",""
"","image-button-response","368","322223","0.0-368.0","null","stimuli/images_hvm10/im152.png","","","null","152","7","1"
"","html-button-response","369","322737","0.0-369.0","511.90000009536743","","","","0","","",""
"","html-keyboard-response","370","323740","0.0-370.0","null","<div style=""font-size:60px;"">+</div>","null","","","","",""
"","image-button-response","371","324244","0.0-371.0","null","stimuli/images_hvm10/im178.png","","","null","178","6","8"
"","html-button-response","372","325399","0.0-372.0","1153.9000000953674","","","","1","","",""
"","html-keyboard-response","373","326402","0.0-373.0","null","<div style=""font-size:60px;"">+</div>","null","","","","",""
"","image-button-response","374","326905","0.0-374.0","null","stimuli/images_hvm10/im130.png","","","null","130","6","3"
"","html-button-response","375","327569","0.0-375.0","662.2999997138977","","","","1","","",""
"","html-keyboard-response","376","328572","0.0-376.0","null","<div style=""font-size:60px;"">+</div>","null","","","","",""
"","image-button-response","377","329076","0.0-377.0","null","stimuli/images_hvm10/im177.png","","","null","177","5","8"
"","html-button-response","378","329658","0.0-378.0","579.9000000953674","","","","1","","",""
"","html-keyboard-response","379","330664","0.0-379.0","null","<div style=""font-size:60px;"">+</div>","null","","","","",""
"","image-button-response","380","331171","0.0-380.0","null","stimuli/images_hvm10/im104.png","","","null","104","5","8"
"","html-button-response","381","332231","0.0-381.0","1058.1000003814697","","","","0","","",""
"","html-keyboard-response","382","333235","0.0-382.0","null","<div style=""font-size:60px;"">+</div>","null","","","","",""
"","image-button-response","383","333739","0.0-383.0","null","stimuli/images_hvm10/im136.png","","","null","136","8","6"
"","html-button-response","384","335077","0.0-384.0","1335.7999997138977","","","","1","","",""
"","html-keyboard-response","385","336080","0.0-385.0","null","<div style=""font-size:60px;"">+</div>","null","","","","",""
"","image-button-response","386","336584","0.0-386.0","null","stimuli/images_hvm10/im183.png","","","null","183","9","5"
"","html-button-response","387","337560","0.0-387.0","974.7999997138977","","","","0","","",""
"","html-keyboard-response","388","338565","0.0-388.0","null","<div style=""font-size:60px;"">+</div>","null","","","","",""
"","image-button-response","389","339072","0.0-389.0","null","stimuli/images_hvm10/im43.png","","","null","43","8","2"
"","html-button-response","390","340035","0.0-390.0","961.0999999046326","","","","0","","",""
"","html-keyboard-response","391","341037","0.0-391.0","null","<div style=""font-size:60px;"">+</div>","null","","","","",""
"","image-button-response","392","341544","0.0-392.0","null","stimuli/images_hvm10/im119.png","","","null","119","8","5"
"","html-button-response","393","342554","0.0-393.0","1008.5999999046326","","","","1","","",""
"","html-keyboard-response","394","343555","0.0-394.0","null","<div style=""font-size:60px;"">+</div>","null","","","","",""
"","image-button-response","395","344062","0.0-395.0","null","stimuli/images_hvm10/im4.png","","","null","4","0","8"
"","html-button-response","396","344830","0.0-396.0","765.9000000953674","","","","0","","",""
"","html-keyboard-response","397","345837","0.0-397.0","null","<div style=""font-size:60px;"">+</div>","null","","","","",""
"","image-button-response","398","346340","0.0-398.0","null","stimuli/images_hvm10/im167.png","","","null","167","8","0"
"","html-button-response","399","346823","0.0-399.0","481","","","","0","","",""
"","html-keyboard-response","400","347829","0.0-400.0","null","<div style=""font-size:60px;"">+</div>","null","","","","",""
"","image-button-response","401","348336","0.0-401.0","null","stimuli/images_hvm10/im56.png","","","null","56","2","3"
"","html-button-response","402","348828","0.0-402.0","489.80000019073486","","","","0","","",""
"","html-keyboard-response","403","349834","0.0-403.0","null","<div style=""font-size:60px;"">+</div>","null","","","","",""
"","image-button-response","404","350339","0.0-404.0","null","stimuli/images_hvm10/im105.png","","","null","105","7","5"
"","html-button-response","405","351342","0.0-405.0","1001.7999997138977","","","","1","","",""
"","html-keyboard-response","406","352349","0.0-406.0","null","<div style=""font-size:60px;"">+</div>","null","","","","",""
"","image-button-response","407","352856","0.0-407.0","null","stimuli/images_hvm10/im193.png","","","null","193","9","7"
"","html-button-response","408","353639","0.0-408.0","781.3999996185303","","","","0","","",""
"","html-keyboard-response","409","354645","0.0-409.0","null","<div style=""font-size:60px;"">+</div>","null","","","","",""
"","image-button-response","410","355152","0.0-410.0","null","stimuli/images_hvm10/im50.png","","","null","50","2","9"
"","html-button-response","411","355643","0.0-411.0","489.19999980926514","","","","0","","",""
"","html-keyboard-response","412","356650","0.0-412.0","null","<div style=""font-size:60px;"">+</div>","null","","","","",""
"","image-button-response","413","357155","0.0-413.0","null","stimuli/images_hvm10/im107.png","","","null","107","5","9"
"","html-button-response","414","357652","0.0-414.0","494.8999996185303","","","","0","","",""
"","html-keyboard-response","415","358657","0.0-415.0","null","<div style=""font-size:60px;"">+</div>","null","","","","",""
"","image-button-response","416","359160","0.0-416.0","null","stimuli/images_hvm10/im170.png","","","null","170","8","5"
"","html-button-response","417","359649","0.0-417.0","486.69999980926514","","","","0","","",""
"","html-keyboard-response","418","360651","0.0-418.0","null","<div style=""font-size:60px;"">+</div>","null","","","","",""
"","image-button-response","419","361156","0.0-419.0","null","stimuli/images_hvm10/im114.png","","","null","114","5","0"
"","html-button-response","420","361681","0.0-420.0","523.7000002861023","","","","0","","",""
"","html-keyboard-response","421","362687","0.0-421.0","null","<div style=""font-size:60px;"">+</div>","null","","","","",""
"","image-button-response","422","363191","0.0-422.0","null","stimuli/images_hvm10/im18.png","","","null","18","1","0"
"","html-button-response","423","363732","0.0-423.0","539.3999996185303","","","","0","","",""
"","html-keyboard-response","424","364734","0.0-424.0","null","<div style=""font-size:60px;"">+</div>","null","","","","",""
"","image-button-response","425","365241","0.0-425.0","null","stimuli/images_hvm10/im147.png","","","null","147","8","7"
"","html-button-response","426","366515","0.0-426.0","1271.5","","","","1","","",""
"","html-keyboard-response","427","367521","0.0-427.0","null","<div style=""font-size:60px;"">+</div>","null","","","","",""
"","image-button-response","428","368026","0.0-428.0","null","stimuli/images_hvm10/im62.png","","","null","62","7","3"
"","html-button-response","429","368738","0.0-429.0","710.7999997138977","","","","1","","",""
"","html-keyboard-response","430","369740","0.0-430.0","null","<div style=""font-size:60px;"">+</div>","null","","","","",""
"","image-button-response","431","370245","0.0-431.0","null","stimuli/images_hvm10/im5.png","","","null","5","0","8"
"","html-button-response","432","371130","0.0-432.0","883.9000000953674","","","","0","","",""
"","html-keyboard-response","433","372133","0.0-433.0","null","<div style=""font-size:60px;"">+</div>","null","","","","",""
"","image-button-response","434","372635","0.0-434.0","null","stimuli/images_hvm10/im168.png","","","null","168","7","8"
"","html-button-response","435","373928","0.0-435.0","1291.5999999046326","","","","1","","",""
"","html-keyboard-response","436","374932","0.0-436.0","null","<div style=""font-size:60px;"">+</div>","null","","","","",""
"","image-button-response","437","375439","0.0-437.0","null","stimuli/images_hvm10/im188.png","","","null","188","7","9"
"","html-button-response","438","376284","0.0-438.0","843.5","","","","1","","",""
"","html-keyboard-response","439","377290","0.0-439.0","null","<div style=""font-size:60px;"">+</div>","null","","","","",""
"","image-button-response","440","377797","0.0-440.0","null","stimuli/images_hvm10/im76.png","","","null","76","3","8"
"","html-button-response","441","378667","0.0-441.0","868.3000001907349","","","","0","","",""
"","html-keyboard-response","442","379673","0.0-442.0","null","<div style=""font-size:60px;"">+</div>","null","","","","",""
"","image-button-response","443","380176","0.0-443.0","null","stimuli/images_hvm10/im73.png","","","null","73","7","3"
"","html-button-response","444","381346","0.0-444.0","1168.7999997138977","","","","1","","",""
"","html-keyboard-response","445","382353","0.0-445.0","null","<div style=""font-size:60px;"">+</div>","null","","","","",""
"","image-button-response","446","382857","0.0-446.0","null","stimuli/images_hvm10/im80.png","","","null","80","4","7"
"","html-button-response","447","383733","0.0-447.0","874.4000000953674","","","","0","","",""
"","html-keyboard-response","448","384739","0.0-448.0","null","<div style=""font-size:60px;"">+</div>","null","","","","",""
"","image-button-response","449","385246","0.0-449.0","null","stimuli/images_hvm10/im41.png","","","null","41","2","8"
"","html-button-response","450","386125","0.0-450.0","877.1999998092651","","","","0","","",""
"","html-keyboard-response","451","387127","0.0-451.0","null","<div style=""font-size:60px;"">+</div>","null","","","","",""
"","image-button-response","452","387629","0.0-452.0","null","stimuli/images_hvm10/im180.png","","","null","180","9","5"
"","html-button-response","453","388162","0.0-453.0","531.0999999046326","","","","0","","",""
"","html-keyboard-response","454","389168","0.0-454.0","null","<div style=""font-size:60px;"">+</div>","null","","","","",""
"","image-button-response","455","389674","0.0-455.0","null","stimuli/images_hvm10/im106.png","","","null","106","1","5"
"","html-button-response","456","390722","0.0-456.0","1045.8000001907349","","","","1","","",""
"","html-keyboard-response","457","391726","0.0-457.0","null","<div style=""font-size:60px;"">+</div>","null","","","","",""
"","image-button-response","458","392231","0.0-458.0","null","stimuli/images_hvm10/im129.png","","","null","129","0","6"
"","html-button-response","459","393124","0.0-459.0","891.3000001907349","","","","0","","",""
"","html-keyboard-response","460","394127","0.0-460.0","null","<div style=""font-size:60px;"">+</div>","null","","","","",""
"","image-button-response","461","394634","0.0-461.0","null","stimuli/images_hvm10/im122.png","","","null","122","2","6"
"","html-button-response","462","395744","0.0-462.0","1108","","","","1","","",""
"","html-keyboard-response","463","396749","0.0-463.0","null","<div style=""font-size:60px;"">+</div>","null","","","","",""
"","image-button-response","464","397256","0.0-464.0","null","stimuli/images_hvm10/im42.png","","","null","42","4","2"
"","html-button-response","465","398133","0.0-465.0","875.5","","","","1","","",""
"","html-keyboard-response","466","399138","0.0-466.0","null","<div style=""font-size:60px;"">+</div>","null","","","","",""
"","image-button-response","467","399645","0.0-467.0","null","stimuli/images_hvm10/im141.png","","","null","141","0","7"
"","html-button-response","468","400603","0.0-468.0","955.5","","","","1","","",""
"","html-keyboard-response","469","401609","0.0-469.0","null","<div style=""font-size:60px;"">+</div>","null","","","","",""
"","image-button-response","470","402111","0.0-470.0","null","stimuli/images_hvm10/im182.png","","","null","182","9","1"
"","html-button-response","471","402931","0.0-471.0","817.2000002861023","","","","0","","",""
"","html-keyboard-response","472","403932","0.0-472.0","null","<div style=""font-size:60px;"">+</div>","null","","","","",""
"","image-button-response","473","404436","0.0-473.0","null","stimuli/images_hvm10/im112.png","","","null","112","5","4"
"","html-button-response","474","404879","0.0-474.0","441.69999980926514","","","","0","","",""
"","html-keyboard-response","475","405886","0.0-475.0","null","<div style=""font-size:60px;"">+</div>","null","","","","",""
"","image-button-response","476","406393","0.0-476.0","null","stimuli/images_hvm10/im40.png","","","null","40","6","2"
"","html-button-response","477","407387","0.0-477.0","991.4000000953674","","","","1","","",""
"","html-keyboard-response","478","408388","0.0-478.0","null","<div style=""font-size:60px;"">+</div>","null","","","","",""
"","image-button-response","479","408895","0.0-479.0","null","stimuli/images_hvm10/im160.png","","","null","160","8","5"
"","html-button-response","480","409603","0.0-480.0","705.2999997138977","","","","0","","",""
"","html-keyboard-response","481","410609","0.0-481.0","null","<div style=""font-size:60px;"">+</div>","null","","","","",""
"","image-button-response","482","411112","0.0-482.0","null","stimuli/images_hvm10/im138.png","","","null","138","0","6"
"","html-button-response","483","411918","0.0-483.0","804.5","","","","1","","",""
"","html-keyboard-response","484","412920","0.0-484.0","null","<div style=""font-size:60px;"">+</div>","null","","","","",""
"","image-button-response","485","413427","0.0-485.0","null","stimuli/images_hvm10/im69.png","","","null","69","5","3"
"","html-button-response","486","414365","0.0-486.0","935.0999999046326","","","","1","","",""
"","html-keyboard-response","487","415370","0.0-487.0","null","<div style=""font-size:60px;"">+</div>","null","","","","",""
"","image-button-response","488","415878","0.0-488.0","null","stimuli/images_hvm10/im116.png","","","null","116","6","5"
"","html-button-response","489","416322","0.0-489.0","442.09999990463257","","","","1","","",""
"","html-keyboard-response","490","417328","0.0-490.0","null","<div style=""font-size:60px;"">+</div>","null","","","","",""
"","image-button-response","491","417832","0.0-491.0","null","stimuli/images_hvm10/im163.png","","","null","163","8","6"
"","html-button-response","492","419040","0.0-492.0","1206","","","","0","","",""
"","html-keyboard-response","493","420042","0.0-493.0","null","<div style=""font-size:60px;"">+</div>","null","","","","",""
"","image-button-response","494","420549","0.0-494.0","null","stimuli/images_hvm10/im142.png","","","null","142","9","7"
"","html-button-response","495","421459","0.0-495.0","908.2999997138977","","","","1","","",""
"","html-keyboard-response","496","422463","0.0-496.0","null","<div style=""font-size:60px;"">+</div>","null","","","","",""
"","image-button-response","497","422970","0.0-497.0","null","stimuli/images_hvm10/im88.png","","","null","88","1","4"
"","html-button-response","498","423814","0.0-498.0","841.6999998092651","","","","0","","",""
"","html-keyboard-response","499","424817","0.0-499.0","null","<div style=""font-size:60px;"">+</div>","null","","","","",""
"","image-button-response","500","425324","0.0-500.0","null","stimuli/images_hvm10/im176.png","","","null","176","8","3"
"","html-button-response","501","426167","0.0-501.0","841","","","","0","","",""
"","html-keyboard-response","502","427173","0.0-502.0","null","<div style=""font-size:60px;"">+</div>","null","","","","",""
"","image-button-response","503","427680","0.0-503.0","null","stimuli/images_hvm10/im124.png","","","null","124","6","3"
"","html-button-response","504","428547","0.0-504.0","864.9000000953674","","","","0","","",""
"","html-keyboard-response","505","429553","0.0-505.0","null","<div style=""font-size:60px;"">+</div>","null","","","","",""
"","image-button-response","506","430058","0.0-506.0","null","stimuli/images_hvm10/im48.png","","","null","48","4","2"
"","html-button-response","507","430979","0.0-507.0","918.2999997138977","","","","1","","",""
"","html-keyboard-response","508","431985","0.0-508.0","null","<div style=""font-size:60px;"">+</div>","null","","","","",""
"","image-button-response","509","432489","0.0-509.0","null","stimuli/images_hvm10/im133.png","","","null","133","6","9"
"","html-button-response","510","433517","0.0-510.0","1025.9000000953674","","","","0","","",""
"","html-keyboard-response","511","434519","0.0-511.0","null","<div style=""font-size:60px;"">+</div>","null","","","","",""
"","image-button-response","512","435023","0.0-512.0","null","stimuli/images_hvm10/im60.png","","","null","60","8","3"
"","html-button-response","513","436040","0.0-513.0","1014.4000000953674","","","","1","","",""
"","html-keyboard-response","514","437045","0.0-514.0","null","<div style=""font-size:60px;"">+</div>","null","","","","",""
"","image-button-response","515","437550","0.0-515.0","null","stimuli/images_hvm10/im190.png","","","null","190","3","9"
"","html-button-response","516","438154","0.0-516.0","601","","","","1","","",""
"","html-keyboard-response","517","439158","0.0-517.0","null","<div style=""font-size:60px;"">+</div>","null","","","","",""
"","image-button-response","518","439664","0.0-518.0","null","stimuli/images_hvm10/im78.png","","","null","78","7","3"
"","html-button-response","519","440524","0.0-519.0","858.0999999046326","","","","1","","",""
"","html-keyboard-response","520","441531","0.0-520.0","null","<div style=""font-size:60px;"">+</div>","null","","","","",""
"","image-button-response","521","442038","0.0-521.0","null","stimuli/images_hvm10/im11.png","","","null","11","5","0"
"","html-button-response","522","442653","0.0-522.0","612.7000002861023","","","","1","","",""
"","html-keyboard-response","523","443659","0.0-523.0","null","<div style=""font-size:60px;"">+</div>","null","","","","",""
"","image-button-response","524","444165","0.0-524.0","null","stimuli/images_hvm10/im39.png","","","null","39","1","4"
"","html-button-response","525","445161","0.0-525.0","993.9000000953674","","","","0","","",""
"","html-keyboard-response","526","446165","0.0-526.0","null","<div style=""font-size:60px;"">+</div>","null","","","","",""
"","image-button-response","527","446672","0.0-527.0","null","stimuli/images_hvm10/im185.png","","","null","185","8","9"
"","html-button-response","528","447573","0.0-528.0","899.4000000953674","","","","1","","",""
"","html-keyboard-response","529","448577","0.0-529.0","null","<div style=""font-size:60px;"">+</div>","null","","","","",""
"","image-button-response","530","449080","0.0-530.0","null","stimuli/images_hvm10/im83.png","","","null","83","4","1"
"","html-button-response","531","450091","0.0-531.0","1008.8000001907349","","","","0","","",""
"","html-keyboard-response","532","451095","0.0-532.0","null","<div style=""font-size:60px;"">+</div>","null","","","","",""
"","image-button-response","533","451602","0.0-533.0","null","stimuli/images_hvm10/im174.png","","","null","174","2","8"
"","html-button-response","534","452503","0.0-534.0","899.1000003814697","","","","1","","",""
"","html-keyboard-response","535","453509","0.0-535.0","null","<div style=""font-size:60px;"">+</div>","null","","","","",""
"","image-button-response","536","454016","0.0-536.0","null","stimuli/images_hvm10/im45.png","","","null","45","4","2"
"","html-button-response","537","454711","0.0-537.0","692.9000000953674","","","","1","","",""
"","html-keyboard-response","538","455717","0.0-538.0","null","<div style=""font-size:60px;"">+</div>","null","","","","",""
"","image-button-response","539","456223","0.0-539.0","null","stimuli/images_hvm10/im91.png","","","null","91","6","4"
"","html-button-response","540","456778","0.0-540.0","552.7000002861023","","","","1","","",""
"","html-keyboard-response","541","457784","0.0-541.0","null","<div style=""font-size:60px;"">+</div>","null","","","","",""
"","image-button-response","542","458288","0.0-542.0","null","stimuli/images_hvm10/im82.png","","","null","82","7","4"
"","html-button-response","543","458819","0.0-543.0","529.1000003814697","","","","1","","",""
"","html-keyboard-response","544","459823","0.0-544.0","null","<div style=""font-size:60px;"">+</div>","null","","","","",""
"","image-button-response","545","460330","0.0-545.0","null","stimuli/images_hvm10/im184.png","","","null","184","9","8"
"","html-button-response","546","461732","0.0-546.0","1400.5","","","","0","","",""
"","html-keyboard-response","547","462738","0.0-547.0","null","<div style=""font-size:60px;"">+</div>","null","","","","",""
"","image-button-response","548","463240","0.0-548.0","null","stimuli/images_hvm10/im14.png","","","null","14","9","0"
"","html-button-response","549","464208","0.0-549.0","965.5999999046326","","","","1","","",""
"","html-keyboard-response","550","465210","0.0-550.0","null","<div style=""font-size:60px;"">+</div>","null","","","","",""
"","image-button-response","551","465713","0.0-551.0","null","stimuli/images_hvm10/im148.png","","","null","148","7","0"
"","html-button-response","552","466503","0.0-552.0","787.8000001907349","","","","1","","",""
"","html-keyboard-response","553","467507","0.0-553.0","null","<div style=""font-size:60px;"">+</div>","null","","","","",""
"","image-button-response","554","468011","0.0-554.0","null","stimuli/images_hvm10/im27.png","","","null","27","6","1"
"","html-button-response","555","468555","0.0-555.0","542.3000001907349","","","","1","","",""
"","html-keyboard-response","556","469560","0.0-556.0","null","<div style=""font-size:60px;"">+</div>","null","","","","",""
"","image-button-response","557","470067","0.0-557.0","null","stimuli/images_hvm10/im151.png","","","null","151","5","7"
"","html-button-response","558","470676","0.0-558.0","608","","","","1","","",""
"","html-keyboard-response","559","471681","0.0-559.0","null","<div style=""font-size:60px;"">+</div>","null","","","","",""
"","image-button-response","560","472185","0.0-560.0","null","stimuli/images_hvm10/im65.png","","","null","65","9","3"
"","html-button-response","561","472721","0.0-561.0","534.8000001907349","","","","1","","",""
"","html-keyboard-response","562","473726","0.0-562.0","null","<div style=""font-size:60px;"">+</div>","null","","","","",""
"","image-button-response","563","474233","0.0-563.0","null","stimuli/images_hvm10/im29.png","","","null","29","6","1"
"","html-button-response","564","474762","0.0-564.0","527.2999997138977","","","","1","","",""
"","html-keyboard-response","565","475765","0.0-565.0","null","<div style=""font-size:60px;"">+</div>","null","","","","",""
"","image-button-response","566","476272","0.0-566.0","null","stimuli/images_hvm10/im186.png","","","null","186","5","9"
"","html-button-response","567","476858","0.0-567.0","584.6000003814697","","","","1","","",""
"","html-keyboard-response","568","477860","0.0-568.0","null","<div style=""font-size:60px;"">+</div>","null","","","","",""
"","image-button-response","569","478365","0.0-569.0","null","stimuli/images_hvm10/im54.png","","","null","54","2","1"
"","html-button-response","570","479558","0.0-570.0","1191.7000002861023","","","","0","","",""
"","html-keyboard-response","571","480565","0.0-571.0","null","<div style=""font-size:60px;"">+</div>","null","","","","",""
"","image-button-response","572","481072","0.0-572.0","null","stimuli/images_hvm10/im81.png","","","null","81","4","2"
"","html-button-response","573","481886","0.0-573.0","812.9000000953674","","","","0","","",""
"","html-keyboard-response","574","482892","0.0-574.0","null","<div style=""font-size:60px;"">+</div>","null","","","","",""
"","image-button-response","575","483396","0.0-575.0","null","stimuli/images_hvm10/im93.png","","","null","93","6","4"
"","html-button-response","576","484513","0.0-576.0","1115.0999999046326","","","","1","","",""
"","html-keyboard-response","577","485520","0.0-577.0","null","<div style=""font-size:60px;"">+</div>","null","","","","",""
"","image-button-response","578","486027","0.0-578.0","null","stimuli/images_hvm10/im85.png","","","null","85","4","5"
"","html-button-response","579","487084","0.0-579.0","1055.5999999046326","","","","0","","",""
"","html-keyboard-response","580","488087","0.0-580.0","null","<div style=""font-size:60px;"">+</div>","null","","","","",""
"","image-button-response","581","488591","0.0-581.0","null","stimuli/images_hvm10/im52.png","","","null","52","2","4"
"","html-button-response","582","489348","0.0-582.0","754.6999998092651","","","","0","","",""
"","html-keyboard-response","583","490354","0.0-583.0","null","<div style=""font-size:60px;"">+</div>","null","","","","",""
"","image-button-response","584","490861","0.0-584.0","null","stimuli/images_hvm10/im77.png","","","null","77","2","3"
"","html-button-response","585","491775","0.0-585.0","911.7999997138977","","","","1","","",""
"","html-keyboard-response","586","492781","0.0-586.0","null","<div style=""font-size:60px;"">+</div>","null","","","","",""
"","image-button-response","587","493286","0.0-587.0","null","stimuli/images_hvm10/im55.png","","","null","55","2","4"
"","html-button-response","588","494374","0.0-588.0","1086.9000000953674","","","","0","","",""
"","html-keyboard-response","589","495378","0.0-589.0","null","<div style=""font-size:60px;"">+</div>","null","","","","",""
"","image-button-response","590","495879","0.0-590.0","null","stimuli/images_hvm10/im87.png","","","null","87","4","2"
"","html-button-response","591","496433","0.0-591.0","553.0999999046326","","","","0","","",""
"","html-keyboard-response","592","497437","0.0-592.0","null","<div style=""font-size:60px;"">+</div>","null","","","","",""
"","image-button-response","593","497944","0.0-593.0","null","stimuli/images_hvm10/im74.png","","","null","74","8","3"
"","html-button-response","594","498823","0.0-594.0","876.8000001907349","","","","1","","",""
"","html-keyboard-response","595","499827","0.0-595.0","null","<div style=""font-size:60px;"">+</div>","null","","","","",""
"","image-button-response","596","500330","0.0-596.0","null","stimuli/images_hvm10/im67.png","","","null","67","5","3"
"","html-button-response","597","500901","0.0-597.0","568.6999998092651","","","","1","","",""
"","html-keyboard-response","598","501906","0.0-598.0","null","<div style=""font-size:60px;"">+</div>","null","","","","",""
"","image-button-response","599","502411","0.0-599.0","null","stimuli/images_hvm10/im150.png","","","null","150","2","7"
"","html-button-response","600","502937","0.0-600.0","524.3000001907349","","","","1","","",""
