"success","trial_type","trial_index","time_elapsed","internal_node_id","rt","stimulus","key_press","responses","button_pressed","images","left_choice","right_choice"
"true","fullscreen","0","26336","0.0-0.0","","","","","","","",""
"","html-keyboard-response","1","28513","0.0-1.0","2172.3000000715256","Welcome to the experiment. Press any key to begin.","13","","","","",""
"","survey-html-form","2","50179","0.0-2.0","21662.599999904633","","","{""p_id"":""9275"",""age"":""19"",""handedness"":""right"",""sex"":""female"",""other_sex"":""""}","","","",""
"","html-keyboard-response","3","75161","0.0-3.0","24979.599999904633","<p>Please fixate at the center '+' sign which will appear once you press any key. Then, <strong> an image </strong> will be shown in the center of the screen.</p><p>The image will contain an object.This will be followed by a <strong> Choice Screen </strong> containing two objects. Please choose the option <strong>[Click on the object]</strong> that you think was present in the image<p>Press any key to begin.</p>","13","","","","",""
"","html-keyboard-response","4","78178","0.0-4.0","null","<div style=""font-size:60px;"">+</div>","null","","","","",""
"","image-button-response","5","78684","0.0-5.0","null","stimuli/images_hvm10/im2.png","","","null","2","6","0"
"","html-button-response","6","100170","0.0-6.0","21481.799999952316","","","","1","","",""
"","html-keyboard-response","7","101177","0.0-7.0","null","<div style=""font-size:60px;"">+</div>","null","","","","",""
"","image-button-response","8","101698","0.0-8.0","null","stimuli/images_hvm10/im131.png","","","null","131","6","8"
"","html-button-response","9","111474","0.0-9.0","9772.199999928474","","","","1","","",""
"","html-keyboard-response","10","112477","0.0-10.0","null","<div style=""font-size:60px;"">+</div>","null","","","","",""
"","image-button-response","11","112998","0.0-11.0","null","stimuli/images_hvm10/im100.png","","","null","100","0","5"
"","html-button-response","12","115005","0.0-12.0","2004","","","","1","","",""
"","html-keyboard-response","13","116029","0.0-13.0","null","<div style=""font-size:60px;"">+</div>","null","","","","",""
"","image-button-response","14","116538","0.0-14.0","null","stimuli/images_hvm10/im157.png","","","null","157","1","7"
"","html-button-response","15","118438","0.0-15.0","1897.3999999761581","","","","1","","",""
"","html-keyboard-response","16","119458","0.0-16.0","null","<div style=""font-size:60px;"">+</div>","null","","","","",""
"","image-button-response","17","119961","0.0-17.0","null","stimuli/images_hvm10/im115.png","","","null","115","2","5"
"","html-button-response","18","125493","0.0-18.0","5530.399999976158","","","","1","","",""
"","html-keyboard-response","19","126502","0.0-19.0","null","<div style=""font-size:60px;"">+</div>","null","","","","",""
"","image-button-response","20","127013","0.0-20.0","null","stimuli/images_hvm10/im142.png","","","null","142","8","7"
"","html-button-response","21","128629","0.0-21.0","1612.8999999761581","","","","0","","",""
"","html-keyboard-response","22","129633","0.0-22.0","null","<div style=""font-size:60px;"">+</div>","null","","","","",""
"","image-button-response","23","130148","0.0-23.0","null","stimuli/images_hvm10/im163.png","","","null","163","8","2"
"","html-button-response","24","131160","0.0-24.0","1009.0999999046326","","","","0","","",""
"","html-keyboard-response","25","132178","0.0-25.0","null","<div style=""font-size:60px;"">+</div>","null","","","","",""
"","image-button-response","26","132687","0.0-26.0","null","stimuli/images_hvm10/im187.png","","","null","187","9","0"
"","html-button-response","27","133765","0.0-27.0","1075.9000000953674","","","","1","","",""
"","html-keyboard-response","28","134787","0.0-28.0","null","<div style=""font-size:60px;"">+</div>","null","","","","",""
"","image-button-response","29","135293","0.0-29.0","null","stimuli/images_hvm10/im42.png","","","null","42","0","2"
"","html-button-response","30","137086","0.0-30.0","1790.7999999523163","","","","0","","",""
"","html-keyboard-response","31","138098","0.0-31.0","null","<div style=""font-size:60px;"">+</div>","null","","","","",""
"","image-button-response","32","138609","0.0-32.0","null","stimuli/images_hvm10/im103.png","","","null","103","4","5"
"","html-button-response","33","139373","0.0-33.0","761.6000000238419","","","","1","","",""
"","html-keyboard-response","34","140389","0.0-34.0","null","<div style=""font-size:60px;"">+</div>","null","","","","",""
"","image-button-response","35","140897","0.0-35.0","null","stimuli/images_hvm10/im165.png","","","null","165","5","8"
"","html-button-response","36","143283","0.0-36.0","2382.5","","","","1","","",""
"","html-keyboard-response","37","144289","0.0-37.0","null","<div style=""font-size:60px;"">+</div>","null","","","","",""
"","image-button-response","38","144802","0.0-38.0","null","stimuli/images_hvm10/im184.png","","","null","184","4","9"
"","html-button-response","39","145655","0.0-39.0","849.3999999761581","","","","1","","",""
"","html-keyboard-response","40","146669","0.0-40.0","null","<div style=""font-size:60px;"">+</div>","null","","","","",""
"","image-button-response","41","147178","0.0-41.0","null","stimuli/images_hvm10/im74.png","","","null","74","3","2"
"","html-button-response","42","148038","0.0-42.0","857.8999999761581","","","","0","","",""
"","html-keyboard-response","43","149049","0.0-43.0","null","<div style=""font-size:60px;"">+</div>","null","","","","",""
"","image-button-response","44","149557","0.0-44.0","null","stimuli/images_hvm10/im28.png","","","null","28","4","1"
"","html-button-response","45","150396","0.0-45.0","835.8000000715256","","","","1","","",""
"","html-keyboard-response","46","151413","0.0-46.0","null","<div style=""font-size:60px;"">+</div>","null","","","","",""
"","image-button-response","47","151932","0.0-47.0","null","stimuli/images_hvm10/im140.png","","","null","140","7","4"
"","html-button-response","48","152751","0.0-48.0","816.4000000953674","","","","0","","",""
"","html-keyboard-response","49","153757","0.0-49.0","null","<div style=""font-size:60px;"">+</div>","null","","","","",""
"","image-button-response","50","154269","0.0-50.0","null","stimuli/images_hvm10/im147.png","","","null","147","7","8"
"","html-button-response","51","155160","0.0-51.0","888.5","","","","0","","",""
"","html-keyboard-response","52","156179","0.0-52.0","null","<div style=""font-size:60px;"">+</div>","null","","","","",""
"","image-button-response","53","156683","0.0-53.0","null","stimuli/images_hvm10/im6.png","","","null","6","0","3"
"","html-button-response","54","157628","0.0-54.0","943.2000000476837","","","","0","","",""
"","html-keyboard-response","55","158639","0.0-55.0","null","<div style=""font-size:60px;"">+</div>","null","","","","",""
"","image-button-response","56","159142","0.0-56.0","null","stimuli/images_hvm10/im144.png","","","null","144","1","7"
"","html-button-response","57","159834","0.0-57.0","689.3000000715256","","","","1","","",""
"","html-keyboard-response","58","160836","0.0-58.0","null","<div style=""font-size:60px;"">+</div>","null","","","","",""
"","image-button-response","59","161346","0.0-59.0","null","stimuli/images_hvm10/im26.png","","","null","26","7","1"
"","html-button-response","60","163166","0.0-60.0","1817.2999999523163","","","","1","","",""
"","html-keyboard-response","61","164178","0.0-61.0","null","<div style=""font-size:60px;"">+</div>","null","","","","",""
"","image-button-response","62","164687","0.0-62.0","null","stimuli/images_hvm10/im196.png","","","null","196","3","9"
"","html-button-response","63","165326","0.0-63.0","635.1000000238419","","","","1","","",""
"","html-keyboard-response","64","166339","0.0-64.0","null","<div style=""font-size:60px;"">+</div>","null","","","","",""
"","image-button-response","65","166848","0.0-65.0","null","stimuli/images_hvm10/im53.png","","","null","53","2","6"
"","html-button-response","66","167621","0.0-66.0","770.1999999284744","","","","0","","",""
"","html-keyboard-response","67","168629","0.0-67.0","null","<div style=""font-size:60px;"">+</div>","null","","","","",""
"","image-button-response","68","169137","0.0-68.0","null","stimuli/images_hvm10/im11.png","","","null","11","2","0"
"","html-button-response","69","169950","0.0-69.0","809.1999999284744","","","","1","","",""
"","html-keyboard-response","70","170969","0.0-70.0","null","<div style=""font-size:60px;"">+</div>","null","","","","",""
"","image-button-response","71","171482","0.0-71.0","null","stimuli/images_hvm10/im64.png","","","null","64","3","9"
"","html-button-response","72","172330","0.0-72.0","845","","","","0","","",""
"","html-keyboard-response","73","173347","0.0-73.0","null","<div style=""font-size:60px;"">+</div>","null","","","","",""
"","image-button-response","74","173859","0.0-74.0","null","stimuli/images_hvm10/im132.png","","","null","132","3","6"
"","html-button-response","75","174863","0.0-75.0","1001.5","","","","0","","",""
"","html-keyboard-response","76","175868","0.0-76.0","null","<div style=""font-size:60px;"">+</div>","null","","","","",""
"","image-button-response","77","176377","0.0-77.0","null","stimuli/images_hvm10/im153.png","","","null","153","6","7"
"","html-button-response","78","177202","0.0-78.0","821.7000000476837","","","","1","","",""
"","html-keyboard-response","79","178218","0.0-79.0","null","<div style=""font-size:60px;"">+</div>","null","","","","",""
"","image-button-response","80","178733","0.0-80.0","null","stimuli/images_hvm10/im50.png","","","null","50","3","2"
"","html-button-response","81","179461","0.0-81.0","726.1999999284744","","","","1","","",""
"","html-keyboard-response","82","180479","0.0-82.0","null","<div style=""font-size:60px;"">+</div>","null","","","","",""
"","image-button-response","83","180983","0.0-83.0","null","stimuli/images_hvm10/im60.png","","","null","60","7","3"
"","html-button-response","84","181855","0.0-84.0","865.1999999284744","","","","1","","",""
"","html-keyboard-response","85","182866","0.0-85.0","null","<div style=""font-size:60px;"">+</div>","null","","","","",""
"","image-button-response","86","183378","0.0-86.0","null","stimuli/images_hvm10/im92.png","","","null","92","7","4"
"","html-button-response","87","184799","0.0-87.0","1418.5","","","","1","","",""
"","html-keyboard-response","88","185810","0.0-88.0","null","<div style=""font-size:60px;"">+</div>","null","","","","",""
"","image-button-response","89","186328","0.0-89.0","null","stimuli/images_hvm10/im62.png","","","null","62","5","3"
"","html-button-response","90","187050","0.0-90.0","718.6000000238419","","","","1","","",""
"","html-keyboard-response","91","188058","0.0-91.0","null","<div style=""font-size:60px;"">+</div>","null","","","","",""
"","image-button-response","92","188567","0.0-92.0","null","stimuli/images_hvm10/im79.png","","","null","79","9","3"
"","html-button-response","93","189182","0.0-93.0","612.2999999523163","","","","1","","",""
"","html-keyboard-response","94","190189","0.0-94.0","null","<div style=""font-size:60px;"">+</div>","null","","","","",""
"","image-button-response","95","190698","0.0-95.0","null","stimuli/images_hvm10/im66.png","","","null","66","3","5"
"","html-button-response","96","191381","0.0-96.0","679.2000000476837","","","","0","","",""
"","html-keyboard-response","97","192387","0.0-97.0","null","<div style=""font-size:60px;"">+</div>","null","","","","",""
"","image-button-response","98","192907","0.0-98.0","null","stimuli/images_hvm10/im145.png","","","null","145","7","1"
"","html-button-response","99","193628","0.0-99.0","717","","","","0","","",""
"","html-keyboard-response","100","194637","0.0-100.0","null","<div style=""font-size:60px;"">+</div>","null","","","","",""
"","image-button-response","101","195148","0.0-101.0","null","stimuli/images_hvm10/im34.png","","","null","34","1","4"
"","html-button-response","102","195918","0.0-102.0","768.3999999761581","","","","0","","",""
"","html-keyboard-response","103","196922","0.0-103.0","null","<div style=""font-size:60px;"">+</div>","null","","","","",""
"","image-button-response","104","197438","0.0-104.0","null","stimuli/images_hvm10/im45.png","","","null","45","5","2"
"","html-button-response","105","198898","0.0-105.0","1457.3999999761581","","","","1","","",""
"","html-keyboard-response","106","199901","0.0-106.0","null","<div style=""font-size:60px;"">+</div>","null","","","","",""
"","image-button-response","107","200407","0.0-107.0","null","stimuli/images_hvm10/im33.png","","","null","33","1","8"
"","html-button-response","108","201362","0.0-108.0","951.3000000715256","","","","0","","",""
"","html-keyboard-response","109","202364","0.0-109.0","null","<div style=""font-size:60px;"">+</div>","null","","","","",""
"","image-button-response","110","202869","0.0-110.0","null","stimuli/images_hvm10/im68.png","","","null","68","9","3"
"","html-button-response","111","203588","0.0-111.0","715","","","","1","","",""
"","html-keyboard-response","112","204596","0.0-112.0","null","<div style=""font-size:60px;"">+</div>","null","","","","",""
"","image-button-response","113","205117","0.0-113.0","null","stimuli/images_hvm10/im19.png","","","null","19","0","6"
"","html-button-response","114","205869","0.0-114.0","749.1000000238419","","","","0","","",""
"","html-keyboard-response","115","206887","0.0-115.0","null","<div style=""font-size:60px;"">+</div>","null","","","","",""
"","image-button-response","116","207406","0.0-116.0","null","stimuli/images_hvm10/im129.png","","","null","129","8","6"
"","html-button-response","117","208567","0.0-117.0","1157.6000000238419","","","","0","","",""
"","html-keyboard-response","118","209568","0.0-118.0","null","<div style=""font-size:60px;"">+</div>","null","","","","",""
"","image-button-response","119","210078","0.0-119.0","null","stimuli/images_hvm10/im1.png","","","null","1","0","2"
"","html-button-response","120","210712","0.0-120.0","631.8999999761581","","","","0","","",""
"","html-keyboard-response","121","211728","0.0-121.0","null","<div style=""font-size:60px;"">+</div>","null","","","","",""
"","image-button-response","122","212243","0.0-122.0","null","stimuli/images_hvm10/im109.png","","","null","109","7","5"
"","html-button-response","123","216530","0.0-123.0","4284","","","","0","","",""
"","html-keyboard-response","124","217536","0.0-124.0","null","<div style=""font-size:60px;"">+</div>","null","","","","",""
"","image-button-response","125","218039","0.0-125.0","null","stimuli/images_hvm10/im141.png","","","null","141","0","7"
"","html-button-response","126","218589","0.0-126.0","548.5","","","","1","","",""
"","html-keyboard-response","127","219608","0.0-127.0","null","<div style=""font-size:60px;"">+</div>","null","","","","",""
"","image-button-response","128","220117","0.0-128.0","null","stimuli/images_hvm10/im195.png","","","null","195","3","9"
"","html-button-response","129","220706","0.0-129.0","587","","","","1","","",""
"","html-keyboard-response","130","221717","0.0-130.0","null","<div style=""font-size:60px;"">+</div>","null","","","","",""
"","image-button-response","131","222220","0.0-131.0","null","stimuli/images_hvm10/im167.png","","","null","167","1","8"
"","html-button-response","132","222961","0.0-132.0","739.6000000238419","","","","1","","",""
"","html-keyboard-response","133","223978","0.0-133.0","null","<div style=""font-size:60px;"">+</div>","null","","","","",""
"","image-button-response","134","224486","0.0-134.0","null","stimuli/images_hvm10/im58.png","","","null","58","8","2"
"","html-button-response","135","225050","0.0-135.0","561.7999999523163","","","","1","","",""
"","html-keyboard-response","136","226068","0.0-136.0","null","<div style=""font-size:60px;"">+</div>","null","","","","",""
"","image-button-response","137","226588","0.0-137.0","null","stimuli/images_hvm10/im108.png","","","null","108","0","5"
"","html-button-response","138","227507","0.0-138.0","916.1999999284744","","","","1","","",""
"","html-keyboard-response","139","228511","0.0-139.0","null","<div style=""font-size:60px;"">+</div>","null","","","","",""
"","image-button-response","140","229015","0.0-140.0","null","stimuli/images_hvm10/im81.png","","","null","81","4","8"
"","html-button-response","141","229994","0.0-141.0","975.6999999284744","","","","0","","",""
"","html-keyboard-response","142","231007","0.0-142.0","null","<div style=""font-size:60px;"">+</div>","null","","","","",""
"","image-button-response","143","231510","0.0-143.0","null","stimuli/images_hvm10/im5.png","","","null","5","0","4"
"","html-button-response","144","232171","0.0-144.0","659.0999999046326","","","","0","","",""
"","html-keyboard-response","145","233177","0.0-145.0","null","<div style=""font-size:60px;"">+</div>","null","","","","",""
"","image-button-response","146","233687","0.0-146.0","null","stimuli/images_hvm10/im29.png","","","null","29","1","9"
"","html-button-response","147","234317","0.0-147.0","626.6000000238419","","","","0","","",""
"","html-keyboard-response","148","235338","0.0-148.0","null","<div style=""font-size:60px;"">+</div>","null","","","","",""
"","image-button-response","149","235842","0.0-149.0","null","stimuli/images_hvm10/im116.png","","","null","116","5","2"
"","html-button-response","150","236431","0.0-150.0","586.6000000238419","","","","0","","",""
"","html-keyboard-response","151","237451","0.0-151.0","null","<div style=""font-size:60px;"">+</div>","null","","","","",""
"","image-button-response","152","237957","0.0-152.0","null","stimuli/images_hvm10/im0.png","","","null","0","4","0"
"","html-button-response","153","238536","0.0-153.0","577.5","","","","1","","",""
"","html-keyboard-response","154","239558","0.0-154.0","null","<div style=""font-size:60px;"">+</div>","null","","","","",""
"","image-button-response","155","240067","0.0-155.0","null","stimuli/images_hvm10/im17.png","","","null","17","4","0"
"","html-button-response","156","240524","0.0-156.0","453.89999997615814","","","","1","","",""
"","html-keyboard-response","157","241527","0.0-157.0","null","<div style=""font-size:60px;"">+</div>","null","","","","",""
"","image-button-response","158","242038","0.0-158.0","null","stimuli/images_hvm10/im97.png","","","null","97","4","8"
"","html-button-response","159","244116","0.0-159.0","2075","","","","0","","",""
"","html-keyboard-response","160","245127","0.0-160.0","null","<div style=""font-size:60px;"">+</div>","null","","","","",""
"","image-button-response","161","245638","0.0-161.0","null","stimuli/images_hvm10/im27.png","","","null","27","6","1"
"","html-button-response","162","246219","0.0-162.0","578.4000000953674","","","","1","","",""
"","html-keyboard-response","163","247238","0.0-163.0","null","<div style=""font-size:60px;"">+</div>","null","","","","",""
"","image-button-response","164","247757","0.0-164.0","null","stimuli/images_hvm10/im77.png","","","null","77","4","3"
"","html-button-response","165","248525","0.0-165.0","766","","","","1","","",""
"","html-keyboard-response","166","249538","0.0-166.0","null","<div style=""font-size:60px;"">+</div>","null","","","","",""
"","image-button-response","167","250047","0.0-167.0","null","stimuli/images_hvm10/im175.png","","","null","175","8","2"
"","html-button-response","168","250735","0.0-168.0","684.8999999761581","","","","0","","",""
"","html-keyboard-response","169","251747","0.0-169.0","null","<div style=""font-size:60px;"">+</div>","null","","","","",""
"","image-button-response","170","252256","0.0-170.0","null","stimuli/images_hvm10/im91.png","","","null","91","4","9"
"","html-button-response","171","253790","0.0-171.0","1530.2000000476837","","","","1","","",""
"","html-keyboard-response","172","254798","0.0-172.0","null","<div style=""font-size:60px;"">+</div>","null","","","","",""
"","image-button-response","173","255307","0.0-173.0","null","stimuli/images_hvm10/im84.png","","","null","84","4","3"
"","html-button-response","174","256125","0.0-174.0","815","","","","0","","",""
"","html-keyboard-response","175","257142","0.0-175.0","null","<div style=""font-size:60px;"">+</div>","null","","","","",""
"","image-button-response","176","257645","0.0-176.0","null","stimuli/images_hvm10/im107.png","","","null","107","5","7"
"","html-button-response","177","258202","0.0-177.0","554.6999999284744","","","","0","","",""
"","html-keyboard-response","178","259208","0.0-178.0","null","<div style=""font-size:60px;"">+</div>","null","","","","",""
"","image-button-response","179","259718","0.0-179.0","null","stimuli/images_hvm10/im154.png","","","null","154","7","5"
"","html-button-response","180","260864","0.0-180.0","1142.2000000476837","","","","0","","",""
"","html-keyboard-response","181","261867","0.0-181.0","null","<div style=""font-size:60px;"">+</div>","null","","","","",""
"","image-button-response","182","262379","0.0-182.0","null","stimuli/images_hvm10/im156.png","","","null","156","4","7"
"","html-button-response","183","263011","0.0-183.0","629.5","","","","1","","",""
"","html-keyboard-response","184","264018","0.0-184.0","null","<div style=""font-size:60px;"">+</div>","null","","","","",""
"","image-button-response","185","264529","0.0-185.0","null","stimuli/images_hvm10/im15.png","","","null","15","0","6"
"","html-button-response","186","265246","0.0-186.0","714.9000000953674","","","","0","","",""
"","html-keyboard-response","187","266248","0.0-187.0","null","<div style=""font-size:60px;"">+</div>","null","","","","",""
"","image-button-response","188","266767","0.0-188.0","null","stimuli/images_hvm10/im67.png","","","null","67","2","3"
"","html-button-response","189","268455","0.0-189.0","1685.2000000476837","","","","1","","",""
"","html-keyboard-response","190","269468","0.0-190.0","null","<div style=""font-size:60px;"">+</div>","null","","","","",""
"","image-button-response","191","269977","0.0-191.0","null","stimuli/images_hvm10/im90.png","","","null","90","0","4"
"","html-button-response","192","272520","0.0-192.0","2540.5999999046326","","","","0","","",""
"","html-keyboard-response","193","273529","0.0-193.0","null","<div style=""font-size:60px;"">+</div>","null","","","","",""
"","image-button-response","194","274039","0.0-194.0","null","stimuli/images_hvm10/im18.png","","","null","18","0","8"
"","html-button-response","195","274607","0.0-195.0","565.5","","","","0","","",""
"","html-keyboard-response","196","275627","0.0-196.0","null","<div style=""font-size:60px;"">+</div>","null","","","","",""
"","image-button-response","197","276147","0.0-197.0","null","stimuli/images_hvm10/im128.png","","","null","128","4","6"
"","html-button-response","198","278617","0.0-198.0","2467.2000000476837","","","","0","","",""
"","html-keyboard-response","199","279628","0.0-199.0","null","<div style=""font-size:60px;"">+</div>","null","","","","",""
"","image-button-response","200","280131","0.0-200.0","null","stimuli/images_hvm10/im190.png","","","null","190","9","6"
"","html-button-response","201","280736","0.0-201.0","602.2999999523163","","","","0","","",""
"","html-keyboard-response","202","281738","0.0-202.0","null","<div style=""font-size:60px;"">+</div>","null","","","","",""
"","image-button-response","203","282252","0.0-203.0","null","stimuli/images_hvm10/im118.png","","","null","118","5","2"
"","html-button-response","204","284245","0.0-204.0","1990.1000000238419","","","","0","","",""
"","html-keyboard-response","205","285258","0.0-205.0","null","<div style=""font-size:60px;"">+</div>","null","","","","",""
"","image-button-response","206","285778","0.0-206.0","null","stimuli/images_hvm10/im37.png","","","null","37","6","1"
"","html-button-response","207","287148","0.0-207.0","1366.3000000715256","","","","1","","",""
"","html-keyboard-response","208","288159","0.0-208.0","null","<div style=""font-size:60px;"">+</div>","null","","","","",""
"","image-button-response","209","288670","0.0-209.0","null","stimuli/images_hvm10/im176.png","","","null","176","8","9"
"","html-button-response","210","289313","0.0-210.0","638.1999999284744","","","","0","","",""
"","html-keyboard-response","211","290315","0.0-211.0","null","<div style=""font-size:60px;"">+</div>","null","","","","",""
"","image-button-response","212","290837","0.0-212.0","null","stimuli/images_hvm10/im134.png","","","null","134","6","1"
"","html-button-response","213","291530","0.0-213.0","690.1000000238419","","","","0","","",""
"","html-keyboard-response","214","292539","0.0-214.0","null","<div style=""font-size:60px;"">+</div>","null","","","","",""
"","image-button-response","215","293043","0.0-215.0","null","stimuli/images_hvm10/im173.png","","","null","173","8","4"
"","html-button-response","216","293633","0.0-216.0","585.6000000238419","","","","0","","",""
"","html-keyboard-response","217","294637","0.0-217.0","null","<div style=""font-size:60px;"">+</div>","null","","","","",""
"","image-button-response","218","295149","0.0-218.0","null","stimuli/images_hvm10/im164.png","","","null","164","2","8"
"","html-button-response","219","298025","0.0-219.0","2873.3000000715256","","","","1","","",""
"","html-keyboard-response","220","299034","0.0-220.0","null","<div style=""font-size:60px;"">+</div>","null","","","","",""
"","image-button-response","221","299538","0.0-221.0","null","stimuli/images_hvm10/im189.png","","","null","189","7","9"
"","html-button-response","222","299985","0.0-222.0","444.6999999284744","","","","1","","",""
"","html-keyboard-response","223","300997","0.0-223.0","null","<div style=""font-size:60px;"">+</div>","null","","","","",""
"","image-button-response","224","301508","0.0-224.0","null","stimuli/images_hvm10/im82.png","","","null","82","7","4"
"","html-button-response","225","303591","0.0-225.0","2079.9000000953674","","","","1","","",""
"","html-keyboard-response","226","304599","0.0-226.0","null","<div style=""font-size:60px;"">+</div>","null","","","","",""
"","image-button-response","227","305108","0.0-227.0","null","stimuli/images_hvm10/im31.png","","","null","31","5","1"
"","html-button-response","228","306003","0.0-228.0","890.8000000715256","","","","1","","",""
"","html-keyboard-response","229","307018","0.0-229.0","null","<div style=""font-size:60px;"">+</div>","null","","","","",""
"","image-button-response","230","307522","0.0-230.0","null","stimuli/images_hvm10/im172.png","","","null","172","8","5"
"","html-button-response","231","308121","0.0-231.0","595.2999999523163","","","","0","","",""
"","html-keyboard-response","232","309127","0.0-232.0","null","<div style=""font-size:60px;"">+</div>","null","","","","",""
"","image-button-response","233","309636","0.0-233.0","null","stimuli/images_hvm10/im93.png","","","null","93","9","4"
"","html-button-response","234","315189","0.0-234.0","5549.900000095367","","","","1","","",""
"","html-keyboard-response","235","316197","0.0-235.0","null","<div style=""font-size:60px;"">+</div>","null","","","","",""
"","image-button-response","236","316701","0.0-236.0","null","stimuli/images_hvm10/im192.png","","","null","192","4","9"
"","html-button-response","237","317258","0.0-237.0","555.3000000715256","","","","1","","",""
"","html-keyboard-response","238","318267","0.0-238.0","null","<div style=""font-size:60px;"">+</div>","null","","","","",""
"","image-button-response","239","318771","0.0-239.0","null","stimuli/images_hvm10/im197.png","","","null","197","9","7"
"","html-button-response","240","319303","0.0-240.0","529.6000000238419","","","","0","","",""
"","html-keyboard-response","241","320317","0.0-241.0","null","<div style=""font-size:60px;"">+</div>","null","","","","",""
"","image-button-response","242","320829","0.0-242.0","null","stimuli/images_hvm10/im122.png","","","null","122","6","3"
"","html-button-response","243","322946","0.0-243.0","2114.0999999046326","","","","1","","",""
"","html-keyboard-response","244","323958","0.0-244.0","null","<div style=""font-size:60px;"">+</div>","null","","","","",""
"","image-button-response","245","324469","0.0-245.0","null","stimuli/images_hvm10/im160.png","","","null","160","8","6"
"","html-button-response","246","325020","0.0-246.0","547.7999999523163","","","","0","","",""
"","html-keyboard-response","247","326027","0.0-247.0","null","<div style=""font-size:60px;"">+</div>","null","","","","",""
"","image-button-response","248","326538","0.0-248.0","null","stimuli/images_hvm10/im4.png","","","null","4","9","0"
"","html-button-response","249","327067","0.0-249.0","526.3999999761581","","","","1","","",""
"","html-keyboard-response","250","328087","0.0-250.0","null","<div style=""font-size:60px;"">+</div>","null","","","","",""
"","image-button-response","251","328609","0.0-251.0","null","stimuli/images_hvm10/im80.png","","","null","80","3","4"
"","html-button-response","252","329328","0.0-252.0","716.2000000476837","","","","1","","",""
"","html-keyboard-response","253","330337","0.0-253.0","null","<div style=""font-size:60px;"">+</div>","null","","","","",""
"","image-button-response","254","330847","0.0-254.0","null","stimuli/images_hvm10/im51.png","","","null","51","3","2"
"","html-button-response","255","331414","0.0-255.0","563.2999999523163","","","","1","","",""
"","html-keyboard-response","256","332428","0.0-256.0","null","<div style=""font-size:60px;"">+</div>","null","","","","",""
"","image-button-response","257","332948","0.0-257.0","null","stimuli/images_hvm10/im148.png","","","null","148","7","1"
"","html-button-response","258","333706","0.0-258.0","755.3000000715256","","","","0","","",""
"","html-keyboard-response","259","334729","0.0-259.0","null","<div style=""font-size:60px;"">+</div>","null","","","","",""
"","image-button-response","260","335269","0.0-260.0","null","stimuli/images_hvm10/im23.png","","","null","23","4","1"
"","html-button-response","261","335732","0.0-261.0","451.60000002384186","","","","1","","",""
"","html-keyboard-response","262","336738","0.0-262.0","null","<div style=""font-size:60px;"">+</div>","null","","","","",""
"","image-button-response","263","337241","0.0-263.0","null","stimuli/images_hvm10/im170.png","","","null","170","1","8"
"","html-button-response","264","337856","0.0-264.0","610.8999999761581","","","","1","","",""
"","html-keyboard-response","265","338867","0.0-265.0","null","<div style=""font-size:60px;"">+</div>","null","","","","",""
"","image-button-response","266","339378","0.0-266.0","null","stimuli/images_hvm10/im178.png","","","null","178","2","8"
"","html-button-response","267","339910","0.0-267.0","528.7999999523163","","","","1","","",""
"","html-keyboard-response","268","340927","0.0-268.0","null","<div style=""font-size:60px;"">+</div>","null","","","","",""
"","image-button-response","269","341438","0.0-269.0","null","stimuli/images_hvm10/im166.png","","","null","166","8","2"
"","html-button-response","270","342124","0.0-270.0","682.4000000953674","","","","0","","",""
"","html-keyboard-response","271","343138","0.0-271.0","null","<div style=""font-size:60px;"">+</div>","null","","","","",""
"","image-button-response","272","343650","0.0-272.0","null","stimuli/images_hvm10/im70.png","","","null","70","3","7"
"","html-button-response","273","346131","0.0-273.0","2478.1999999284744","","","","0","","",""
"","html-keyboard-response","274","347139","0.0-274.0","null","<div style=""font-size:60px;"">+</div>","null","","","","",""
"","image-button-response","275","347649","0.0-275.0","null","stimuli/images_hvm10/im10.png","","","null","10","0","8"
"","html-button-response","276","350265","0.0-276.0","2612.9000000953674","","","","1","","",""
"","html-keyboard-response","277","351289","0.0-277.0","null","<div style=""font-size:60px;"">+</div>","null","","","","",""
"","image-button-response","278","351802","0.0-278.0","null","stimuli/images_hvm10/im183.png","","","null","183","5","9"
"","html-button-response","279","352272","0.0-279.0","467.90000009536743","","","","1","","",""
"","html-keyboard-response","280","353279","0.0-280.0","null","<div style=""font-size:60px;"">+</div>","null","","","","",""
"","image-button-response","281","353788","0.0-281.0","null","stimuli/images_hvm10/im188.png","","","null","188","2","9"
"","html-button-response","282","354280","0.0-282.0","489","","","","1","","",""
"","html-keyboard-response","283","355288","0.0-283.0","null","<div style=""font-size:60px;"">+</div>","null","","","","",""
"","image-button-response","284","355799","0.0-284.0","null","stimuli/images_hvm10/im85.png","","","null","85","4","8"
"","html-button-response","285","357281","0.0-285.0","1478.9000000953674","","","","0","","",""
"","html-keyboard-response","286","358297","0.0-286.0","null","<div style=""font-size:60px;"">+</div>","null","","","","",""
"","image-button-response","287","358819","0.0-287.0","null","stimuli/images_hvm10/im125.png","","","null","125","9","6"
"","html-button-response","288","359513","0.0-288.0","691.2000000476837","","","","1","","",""
"","html-keyboard-response","289","360529","0.0-289.0","null","<div style=""font-size:60px;"">+</div>","null","","","","",""
"","image-button-response","290","361039","0.0-290.0","null","stimuli/images_hvm10/im146.png","","","null","146","7","9"
"","html-button-response","291","361791","0.0-291.0","748.7999999523163","","","","0","","",""
"","html-keyboard-response","292","362809","0.0-292.0","null","<div style=""font-size:60px;"">+</div>","null","","","","",""
"","image-button-response","293","363329","0.0-293.0","null","stimuli/images_hvm10/im46.png","","","null","46","2","7"
"","html-button-response","294","363991","0.0-294.0","658.2999999523163","","","","0","","",""
"","html-keyboard-response","295","365007","0.0-295.0","null","<div style=""font-size:60px;"">+</div>","null","","","","",""
"","image-button-response","296","365529","0.0-296.0","null","stimuli/images_hvm10/im16.png","","","null","16","9","0"
"","html-button-response","297","366083","0.0-297.0","551","","","","1","","",""
"","html-keyboard-response","298","367103","0.0-298.0","null","<div style=""font-size:60px;"">+</div>","null","","","","",""
"","image-button-response","299","367618","0.0-299.0","null","stimuli/images_hvm10/im14.png","","","null","14","0","6"
"","html-button-response","300","368411","0.0-300.0","789.3000000715256","","","","0","","",""
"","html-keyboard-response","301","369429","0.0-301.0","null","<div style=""font-size:60px;"">+</div>","null","","","","",""
"","image-button-response","302","369932","0.0-302.0","null","stimuli/images_hvm10/im186.png","","","null","186","9","2"
"","html-button-response","303","370568","0.0-303.0","633.5","","","","0","","",""
"","html-keyboard-response","304","371572","0.0-304.0","null","<div style=""font-size:60px;"">+</div>","null","","","","",""
"","image-button-response","305","372077","0.0-305.0","null","stimuli/images_hvm10/im75.png","","","null","75","0","3"
"","html-button-response","306","372535","0.0-306.0","455.2000000476837","","","","1","","",""
"","html-keyboard-response","307","373559","0.0-307.0","null","<div style=""font-size:60px;"">+</div>","null","","","","",""
"","image-button-response","308","374078","0.0-308.0","null","stimuli/images_hvm10/im135.png","","","null","135","6","8"
"","html-button-response","309","375145","0.0-309.0","1064.1999999284744","","","","0","","",""
"","html-keyboard-response","310","376157","0.0-310.0","null","<div style=""font-size:60px;"">+</div>","null","","","","",""
"","image-button-response","311","376677","0.0-311.0","null","stimuli/images_hvm10/im127.png","","","null","127","6","7"
"","html-button-response","312","377355","0.0-312.0","675.2999999523163","","","","0","","",""
"","html-keyboard-response","313","378368","0.0-313.0","null","<div style=""font-size:60px;"">+</div>","null","","","","",""
"","image-button-response","314","378877","0.0-314.0","null","stimuli/images_hvm10/im106.png","","","null","106","3","5"
"","html-button-response","315","379450","0.0-315.0","570.3999999761581","","","","1","","",""
"","html-keyboard-response","316","380458","0.0-316.0","null","<div style=""font-size:60px;"">+</div>","null","","","","",""
"","image-button-response","317","380967","0.0-317.0","null","stimuli/images_hvm10/im98.png","","","null","98","6","4"
"","html-button-response","318","381629","0.0-318.0","659.2999999523163","","","","1","","",""
"","html-keyboard-response","319","382648","0.0-319.0","null","<div style=""font-size:60px;"">+</div>","null","","","","",""
"","image-button-response","320","383151","0.0-320.0","null","stimuli/images_hvm10/im72.png","","","null","72","3","7"
"","html-button-response","321","383765","0.0-321.0","611.5","","","","0","","",""
"","html-keyboard-response","322","384767","0.0-322.0","null","<div style=""font-size:60px;"">+</div>","null","","","","",""
"","image-button-response","323","385277","0.0-323.0","null","stimuli/images_hvm10/im101.png","","","null","101","5","8"
"","html-button-response","324","386002","0.0-324.0","722.0999999046326","","","","0","","",""
"","html-keyboard-response","325","387013","0.0-325.0","null","<div style=""font-size:60px;"">+</div>","null","","","","",""
"","image-button-response","326","387528","0.0-326.0","null","stimuli/images_hvm10/im86.png","","","null","86","6","4"
"","html-button-response","327","389404","0.0-327.0","1872.3000000715256","","","","0","","",""
"","html-keyboard-response","328","390418","0.0-328.0","null","<div style=""font-size:60px;"">+</div>","null","","","","",""
"","image-button-response","329","390932","0.0-329.0","null","stimuli/images_hvm10/im139.png","","","null","139","6","2"
"","html-button-response","330","391619","0.0-330.0","684.1999999284744","","","","0","","",""
"","html-keyboard-response","331","392624","0.0-331.0","null","<div style=""font-size:60px;"">+</div>","null","","","","",""
"","image-button-response","332","393128","0.0-332.0","null","stimuli/images_hvm10/im99.png","","","null","99","3","4"
"","html-button-response","333","393616","0.0-333.0","484.5","","","","1","","",""
"","html-keyboard-response","334","394637","0.0-334.0","null","<div style=""font-size:60px;"">+</div>","null","","","","",""
"","image-button-response","335","395147","0.0-335.0","null","stimuli/images_hvm10/im191.png","","","null","191","7","9"
"","html-button-response","336","395679","0.0-336.0","528","","","","1","","",""
"","html-keyboard-response","337","396697","0.0-337.0","null","<div style=""font-size:60px;"">+</div>","null","","","","",""
"","image-button-response","338","397216","0.0-338.0","null","stimuli/images_hvm10/im54.png","","","null","54","9","2"
"","html-button-response","339","398097","0.0-339.0","877.6000000238419","","","","1","","",""
"","html-keyboard-response","340","399102","0.0-340.0","null","<div style=""font-size:60px;"">+</div>","null","","","","",""
"","image-button-response","341","399618","0.0-341.0","null","stimuli/images_hvm10/im71.png","","","null","71","9","3"
"","html-button-response","342","400146","0.0-342.0","525.3999999761581","","","","1","","",""
"","html-keyboard-response","343","401171","0.0-343.0","null","<div style=""font-size:60px;"">+</div>","null","","","","",""
"","image-button-response","344","401682","0.0-344.0","null","stimuli/images_hvm10/im133.png","","","null","133","1","6"
"","html-button-response","345","402436","0.0-345.0","750.8999999761581","","","","1","","",""
"","html-keyboard-response","346","403458","0.0-346.0","null","<div style=""font-size:60px;"">+</div>","null","","","","",""
"","image-button-response","347","403967","0.0-347.0","null","stimuli/images_hvm10/im151.png","","","null","151","7","2"
"","html-button-response","348","404765","0.0-348.0","795.1999999284744","","","","0","","",""
"","html-keyboard-response","349","405778","0.0-349.0","null","<div style=""font-size:60px;"">+</div>","null","","","","",""
"","image-button-response","350","406287","0.0-350.0","null","stimuli/images_hvm10/im150.png","","","null","150","8","7"
"","html-button-response","351","406878","0.0-351.0","588.8999999761581","","","","1","","",""
"","html-keyboard-response","352","407896","0.0-352.0","null","<div style=""font-size:60px;"">+</div>","null","","","","",""
"","image-button-response","353","408418","0.0-353.0","null","stimuli/images_hvm10/im185.png","","","null","185","0","9"
"","html-button-response","354","408996","0.0-354.0","575.5","","","","1","","",""
"","html-keyboard-response","355","410007","0.0-355.0","null","<div style=""font-size:60px;"">+</div>","null","","","","",""
"","image-button-response","356","410529","0.0-356.0","null","stimuli/images_hvm10/im171.png","","","null","171","8","3"
"","html-button-response","357","411222","0.0-357.0","689.6000000238419","","","","0","","",""
"","html-keyboard-response","358","412242","0.0-358.0","null","<div style=""font-size:60px;"">+</div>","null","","","","",""
"","image-button-response","359","412758","0.0-359.0","null","stimuli/images_hvm10/im136.png","","","null","136","0","6"
"","html-button-response","360","413542","0.0-360.0","781","","","","1","","",""
"","html-keyboard-response","361","414559","0.0-361.0","null","<div style=""font-size:60px;"">+</div>","null","","","","",""
"","image-button-response","362","415079","0.0-362.0","null","stimuli/images_hvm10/im41.png","","","null","41","0","2"
"","html-button-response","363","415656","0.0-363.0","573.5","","","","1","","",""
"","html-keyboard-response","364","416669","0.0-364.0","null","<div style=""font-size:60px;"">+</div>","null","","","","",""
"","image-button-response","365","417179","0.0-365.0","null","stimuli/images_hvm10/im124.png","","","null","124","6","0"
"","html-button-response","366","417892","0.0-366.0","710.1000000238419","","","","0","","",""
"","html-keyboard-response","367","418898","0.0-367.0","null","<div style=""font-size:60px;"">+</div>","null","","","","",""
"","image-button-response","368","419408","0.0-368.0","null","stimuli/images_hvm10/im169.png","","","null","169","8","1"
"","html-button-response","369","420010","0.0-369.0","600.1999999284744","","","","0","","",""
"","html-keyboard-response","370","421026","0.0-370.0","null","<div style=""font-size:60px;"">+</div>","null","","","","",""
"","image-button-response","371","421532","0.0-371.0","null","stimuli/images_hvm10/im56.png","","","null","56","2","1"
"","html-button-response","372","422200","0.0-372.0","664.5","","","","0","","",""
"","html-keyboard-response","373","423207","0.0-373.0","null","<div style=""font-size:60px;"">+</div>","null","","","","",""
"","image-button-response","374","423716","0.0-374.0","null","stimuli/images_hvm10/im102.png","","","null","102","1","5"
"","html-button-response","375","424284","0.0-375.0","566.1999999284744","","","","1","","",""
"","html-keyboard-response","376","425287","0.0-376.0","null","<div style=""font-size:60px;"">+</div>","null","","","","",""
"","image-button-response","377","425791","0.0-377.0","null","stimuli/images_hvm10/im104.png","","","null","104","8","5"
"","html-button-response","378","428618","0.0-378.0","2824","","","","0","","",""
"","html-keyboard-response","379","429627","0.0-379.0","null","<div style=""font-size:60px;"">+</div>","null","","","","",""
"","image-button-response","380","430142","0.0-380.0","null","stimuli/images_hvm10/im152.png","","","null","152","6","7"
"","html-button-response","381","430995","0.0-381.0","851","","","","1","","",""
"","html-keyboard-response","382","432009","0.0-382.0","null","<div style=""font-size:60px;"">+</div>","null","","","","",""
"","image-button-response","383","432527","0.0-383.0","null","stimuli/images_hvm10/im123.png","","","null","123","6","4"
"","html-button-response","384","433286","0.0-384.0","756","","","","0","","",""
"","html-keyboard-response","385","434291","0.0-385.0","null","<div style=""font-size:60px;"">+</div>","null","","","","",""
"","image-button-response","386","434807","0.0-386.0","null","stimuli/images_hvm10/im158.png","","","null","158","9","7"
"","html-button-response","387","435639","0.0-387.0","828.6999999284744","","","","1","","",""
"","html-keyboard-response","388","436657","0.0-388.0","null","<div style=""font-size:60px;"">+</div>","null","","","","",""
"","image-button-response","389","437162","0.0-389.0","null","stimuli/images_hvm10/im193.png","","","null","193","5","9"
"","html-button-response","390","437638","0.0-390.0","473.89999997615814","","","","1","","",""
"","html-keyboard-response","391","438640","0.0-391.0","null","<div style=""font-size:60px;"">+</div>","null","","","","",""
"","image-button-response","392","439159","0.0-392.0","null","stimuli/images_hvm10/im162.png","","","null","162","8","0"
"","html-button-response","393","439797","0.0-393.0","635.8999999761581","","","","0","","",""
"","html-keyboard-response","394","440807","0.0-394.0","null","<div style=""font-size:60px;"">+</div>","null","","","","",""
"","image-button-response","395","441310","0.0-395.0","null","stimuli/images_hvm10/im119.png","","","null","119","9","5"
"","html-button-response","396","441904","0.0-396.0","591.2000000476837","","","","1","","",""
"","html-keyboard-response","397","442919","0.0-397.0","null","<div style=""font-size:60px;"">+</div>","null","","","","",""
"","image-button-response","398","443429","0.0-398.0","null","stimuli/images_hvm10/im105.png","","","null","105","2","5"
"","html-button-response","399","444110","0.0-399.0","678.5999999046326","","","","1","","",""
"","html-keyboard-response","400","445129","0.0-400.0","null","<div style=""font-size:60px;"">+</div>","null","","","","",""
"","image-button-response","401","445634","0.0-401.0","null","stimuli/images_hvm10/im180.png","","","null","180","9","8"
"","html-button-response","402","446339","0.0-402.0","701.3999999761581","","","","0","","",""
"","html-keyboard-response","403","447341","0.0-403.0","null","<div style=""font-size:60px;"">+</div>","null","","","","",""
"","image-button-response","404","447862","0.0-404.0","null","stimuli/images_hvm10/im39.png","","","null","39","9","1"
"","html-button-response","405","448545","0.0-405.0","680.6000000238419","","","","1","","",""
"","html-keyboard-response","406","449548","0.0-406.0","null","<div style=""font-size:60px;"">+</div>","null","","","","",""
"","image-button-response","407","450052","0.0-407.0","null","stimuli/images_hvm10/im88.png","","","null","88","4","6"
"","html-button-response","408","454560","0.0-408.0","4506.5","","","","1","","",""
"","html-keyboard-response","409","455578","0.0-409.0","null","<div style=""font-size:60px;"">+</div>","null","","","","",""
"","image-button-response","410","456089","0.0-410.0","null","stimuli/images_hvm10/im21.png","","","null","21","4","1"
"","html-button-response","411","456636","0.0-411.0","544.8999999761581","","","","1","","",""
"","html-keyboard-response","412","457652","0.0-412.0","null","<div style=""font-size:60px;"">+</div>","null","","","","",""
"","image-button-response","413","458158","0.0-413.0","null","stimuli/images_hvm10/im73.png","","","null","73","8","3"
"","html-button-response","414","458698","0.0-414.0","536.7000000476837","","","","1","","",""
"","html-keyboard-response","415","459718","0.0-415.0","null","<div style=""font-size:60px;"">+</div>","null","","","","",""
"","image-button-response","416","460227","0.0-416.0","null","stimuli/images_hvm10/im83.png","","","null","83","4","5"
"","html-button-response","417","460955","0.0-417.0","725.6000000238419","","","","0","","",""
"","html-keyboard-response","418","461977","0.0-418.0","null","<div style=""font-size:60px;"">+</div>","null","","","","",""
"","image-button-response","419","462488","0.0-419.0","null","stimuli/images_hvm10/im47.png","","","null","47","5","2"
"","html-button-response","420","463523","0.0-420.0","1032.5","","","","0","","",""
"","html-keyboard-response","421","464529","0.0-421.0","null","<div style=""font-size:60px;"">+</div>","null","","","","",""
"","image-button-response","422","465047","0.0-422.0","null","stimuli/images_hvm10/im25.png","","","null","25","1","3"
"","html-button-response","423","466062","0.0-423.0","1011.7999999523163","","","","0","","",""
"","html-keyboard-response","424","467065","0.0-424.0","null","<div style=""font-size:60px;"">+</div>","null","","","","",""
"","image-button-response","425","467587","0.0-425.0","null","stimuli/images_hvm10/im59.png","","","null","59","8","2"
"","html-button-response","426","468107","0.0-426.0","515.6000000238419","","","","1","","",""
"","html-keyboard-response","427","469128","0.0-427.0","null","<div style=""font-size:60px;"">+</div>","null","","","","",""
"","image-button-response","428","469637","0.0-428.0","null","stimuli/images_hvm10/im63.png","","","null","63","1","3"
"","html-button-response","429","470913","0.0-429.0","1273","","","","0","","",""
"","html-keyboard-response","430","471924","0.0-430.0","null","<div style=""font-size:60px;"">+</div>","null","","","","",""
"","image-button-response","431","472438","0.0-431.0","null","stimuli/images_hvm10/im48.png","","","null","48","1","2"
"","html-button-response","432","474590","0.0-432.0","2148.899999976158","","","","0","","",""
"","html-keyboard-response","433","475607","0.0-433.0","null","<div style=""font-size:60px;"">+</div>","null","","","","",""
"","image-button-response","434","476120","0.0-434.0","null","stimuli/images_hvm10/im22.png","","","null","22","3","1"
"","html-button-response","435","476645","0.0-435.0","494.7999999523163","","","","1","","",""
"","html-keyboard-response","436","477658","0.0-436.0","null","<div style=""font-size:60px;"">+</div>","null","","","","",""
"","image-button-response","437","478161","0.0-437.0","null","stimuli/images_hvm10/im57.png","","","null","57","3","2"
"","html-button-response","438","478678","0.0-438.0","512.6999999284744","","","","1","","",""
"","html-keyboard-response","439","479687","0.0-439.0","null","<div style=""font-size:60px;"">+</div>","null","","","","",""
"","image-button-response","440","480197","0.0-440.0","null","stimuli/images_hvm10/im52.png","","","null","52","2","9"
"","html-button-response","441","480940","0.0-441.0","740.5","","","","0","","",""
"","html-keyboard-response","442","481948","0.0-442.0","null","<div style=""font-size:60px;"">+</div>","null","","","","",""
"","image-button-response","443","482458","0.0-443.0","null","stimuli/images_hvm10/im111.png","","","null","111","5","6"
"","html-button-response","444","483023","0.0-444.0","562.6999999284744","","","","0","","",""
"","html-keyboard-response","445","484037","0.0-445.0","null","<div style=""font-size:60px;"">+</div>","null","","","","",""
"","image-button-response","446","484547","0.0-446.0","null","stimuli/images_hvm10/im44.png","","","null","44","7","2"
"","html-button-response","447","485148","0.0-447.0","599.0999999046326","","","","1","","",""
"","html-keyboard-response","448","486151","0.0-448.0","null","<div style=""font-size:60px;"">+</div>","null","","","","",""
"","image-button-response","449","486664","0.0-449.0","null","stimuli/images_hvm10/im55.png","","","null","55","9","2"
"","html-button-response","450","487460","0.0-450.0","794.2000000476837","","","","1","","",""
"","html-keyboard-response","451","488468","0.0-451.0","null","<div style=""font-size:60px;"">+</div>","null","","","","",""
"","image-button-response","452","488971","0.0-452.0","null","stimuli/images_hvm10/im9.png","","","null","9","1","0"
"","html-button-response","453","490183","0.0-453.0","1208.1999999284744","","","","1","","",""
"","html-keyboard-response","454","491187","0.0-454.0","null","<div style=""font-size:60px;"">+</div>","null","","","","",""
"","image-button-response","455","491692","0.0-455.0","null","stimuli/images_hvm10/im13.png","","","null","13","4","0"
"","html-button-response","456","492191","0.0-456.0","496.60000002384186","","","","1","","",""
"","html-keyboard-response","457","493209","0.0-457.0","null","<div style=""font-size:60px;"">+</div>","null","","","","",""
"","image-button-response","458","493712","0.0-458.0","null","stimuli/images_hvm10/im43.png","","","null","43","2","0"
"","html-button-response","459","494320","0.0-459.0","603.8999999761581","","","","0","","",""
"","html-keyboard-response","460","495339","0.0-460.0","null","<div style=""font-size:60px;"">+</div>","null","","","","",""
"","image-button-response","461","495843","0.0-461.0","null","stimuli/images_hvm10/im182.png","","","null","182","4","9"
"","html-button-response","462","496326","0.0-462.0","481","","","","1","","",""
"","html-keyboard-response","463","497346","0.0-463.0","null","<div style=""font-size:60px;"">+</div>","null","","","","",""
"","image-button-response","464","497854","0.0-464.0","null","stimuli/images_hvm10/im110.png","","","null","110","5","0"
"","html-button-response","465","498504","0.0-465.0","645.8999999761581","","","","0","","",""
"","html-keyboard-response","466","499517","0.0-466.0","null","<div style=""font-size:60px;"">+</div>","null","","","","",""
"","image-button-response","467","500028","0.0-467.0","null","stimuli/images_hvm10/im89.png","","","null","89","6","4"
"","html-button-response","468","500708","0.0-468.0","676.8999999761581","","","","1","","",""
"","html-keyboard-response","469","501717","0.0-469.0","null","<div style=""font-size:60px;"">+</div>","null","","","","",""
"","image-button-response","470","502221","0.0-470.0","null","stimuli/images_hvm10/im117.png","","","null","117","6","5"
"","html-button-response","471","502964","0.0-471.0","741","","","","1","","",""
"","html-keyboard-response","472","503976","0.0-472.0","null","<div style=""font-size:60px;"">+</div>","null","","","","",""
"","image-button-response","473","504498","0.0-473.0","null","stimuli/images_hvm10/im32.png","","","null","32","1","5"
"","html-button-response","474","505105","0.0-474.0","604","","","","0","","",""
"","html-keyboard-response","475","506108","0.0-475.0","null","<div style=""font-size:60px;"">+</div>","null","","","","",""
"","image-button-response","476","506627","0.0-476.0","null","stimuli/images_hvm10/im95.png","","","null","95","4","1"
"","html-button-response","477","507284","0.0-477.0","654.1999999284744","","","","0","","",""
"","html-keyboard-response","478","508298","0.0-478.0","null","<div style=""font-size:60px;"">+</div>","null","","","","",""
"","image-button-response","479","508807","0.0-479.0","null","stimuli/images_hvm10/im76.png","","","null","76","2","3"
"","html-button-response","480","510013","0.0-480.0","1203.4000000953674","","","","1","","",""
"","html-keyboard-response","481","511017","0.0-481.0","null","<div style=""font-size:60px;"">+</div>","null","","","","",""
"","image-button-response","482","511520","0.0-482.0","null","stimuli/images_hvm10/im112.png","","","null","112","5","6"
"","html-button-response","483","512059","0.0-483.0","536.7999999523163","","","","0","","",""
"","html-keyboard-response","484","513061","0.0-484.0","null","<div style=""font-size:60px;"">+</div>","null","","","","",""
"","image-button-response","485","513574","0.0-485.0","null","stimuli/images_hvm10/im179.png","","","null","179","8","9"
"","html-button-response","486","515015","0.0-486.0","1437","","","","0","","",""
"","html-keyboard-response","487","516037","0.0-487.0","null","<div style=""font-size:60px;"">+</div>","null","","","","",""
"","image-button-response","488","516540","0.0-488.0","null","stimuli/images_hvm10/im65.png","","","null","65","7","3"
"","html-button-response","489","517181","0.0-489.0","638.7000000476837","","","","1","","",""
"","html-keyboard-response","490","518187","0.0-490.0","null","<div style=""font-size:60px;"">+</div>","null","","","","",""
"","image-button-response","491","518700","0.0-491.0","null","stimuli/images_hvm10/im20.png","","","null","20","1","3"
"","html-button-response","492","519351","0.0-492.0","648.1000000238419","","","","0","","",""
"","html-keyboard-response","493","520367","0.0-493.0","null","<div style=""font-size:60px;"">+</div>","null","","","","",""
"","image-button-response","494","520877","0.0-494.0","null","stimuli/images_hvm10/im149.png","","","null","149","9","7"
"","html-button-response","495","521374","0.0-495.0","494.09999990463257","","","","1","","",""
"","html-keyboard-response","496","522378","0.0-496.0","null","<div style=""font-size:60px;"">+</div>","null","","","","",""
"","image-button-response","497","522885","0.0-497.0","null","stimuli/images_hvm10/im181.png","","","null","181","3","9"
"","html-button-response","498","523418","0.0-498.0","529","","","","1","","",""
"","html-keyboard-response","499","524420","0.0-499.0","null","<div style=""font-size:60px;"">+</div>","null","","","","",""
"","image-button-response","500","524923","0.0-500.0","null","stimuli/images_hvm10/im120.png","","","null","120","6","3"
"","html-button-response","501","526402","0.0-501.0","1477.4000000953674","","","","1","","",""
"","html-keyboard-response","502","527404","0.0-502.0","null","<div style=""font-size:60px;"">+</div>","null","","","","",""
"","image-button-response","503","527928","0.0-503.0","null","stimuli/images_hvm10/im96.png","","","null","96","2","4"
"","html-button-response","504","528969","0.0-504.0","1038.2000000476837","","","","1","","",""
"","html-keyboard-response","505","529977","0.0-505.0","null","<div style=""font-size:60px;"">+</div>","null","","","","",""
"","image-button-response","506","530483","0.0-506.0","null","stimuli/images_hvm10/im78.png","","","null","78","3","0"
"","html-button-response","507","531130","0.0-507.0","644.6000000238419","","","","0","","",""
"","html-keyboard-response","508","532136","0.0-508.0","null","<div style=""font-size:60px;"">+</div>","null","","","","",""
"","image-button-response","509","532652","0.0-509.0","null","stimuli/images_hvm10/im38.png","","","null","38","1","3"
"","html-button-response","510","533240","0.0-510.0","585.5","","","","0","","",""
"","html-keyboard-response","511","534247","0.0-511.0","null","<div style=""font-size:60px;"">+</div>","null","","","","",""
"","image-button-response","512","534768","0.0-512.0","null","stimuli/images_hvm10/im194.png","","","null","194","6","9"
"","html-button-response","513","535269","0.0-513.0","498.7000000476837","","","","1","","",""
"","html-keyboard-response","514","536277","0.0-514.0","null","<div style=""font-size:60px;"">+</div>","null","","","","",""
"","image-button-response","515","536782","0.0-515.0","null","stimuli/images_hvm10/im114.png","","","null","114","5","1"
"","html-button-response","516","537377","0.0-516.0","593.6000000238419","","","","0","","",""
"","html-keyboard-response","517","538380","0.0-517.0","null","<div style=""font-size:60px;"">+</div>","null","","","","",""
"","image-button-response","518","538898","0.0-518.0","null","stimuli/images_hvm10/im12.png","","","null","12","0","1"
"","html-button-response","519","539859","0.0-519.0","957.9000000953674","","","","0","","",""
"","html-keyboard-response","520","540860","0.0-520.0","null","<div style=""font-size:60px;"">+</div>","null","","","","",""
"","image-button-response","521","541368","0.0-521.0","null","stimuli/images_hvm10/im61.png","","","null","61","3","4"
"","html-button-response","522","542152","0.0-522.0","777.6999999284744","","","","0","","",""
"","html-keyboard-response","523","543168","0.0-523.0","null","<div style=""font-size:60px;"">+</div>","null","","","","",""
"","image-button-response","524","543672","0.0-524.0","null","stimuli/images_hvm10/im113.png","","","null","113","5","1"
"","html-button-response","525","544254","0.0-525.0","578.1999999284744","","","","0","","",""
"","html-keyboard-response","526","545257","0.0-526.0","null","<div style=""font-size:60px;"">+</div>","null","","","","",""
"","image-button-response","527","545768","0.0-527.0","null","stimuli/images_hvm10/im69.png","","","null","69","3","9"
"","html-button-response","528","546398","0.0-528.0","625.7999999523163","","","","0","","",""
"","html-keyboard-response","529","547405","0.0-529.0","null","<div style=""font-size:60px;"">+</div>","null","","","","",""
"","image-button-response","530","547918","0.0-530.0","null","stimuli/images_hvm10/im121.png","","","null","121","3","6"
"","html-button-response","531","549086","0.0-531.0","1164.6999999284744","","","","1","","",""
"","html-keyboard-response","532","550097","0.0-532.0","null","<div style=""font-size:60px;"">+</div>","null","","","","",""
"","image-button-response","533","550618","0.0-533.0","null","stimuli/images_hvm10/im159.png","","","null","159","5","7"
"","html-button-response","534","551277","0.0-534.0","655.6999999284744","","","","1","","",""
"","html-keyboard-response","535","552287","0.0-535.0","null","<div style=""font-size:60px;"">+</div>","null","","","","",""
"","image-button-response","536","552791","0.0-536.0","null","stimuli/images_hvm10/im155.png","","","null","155","9","7"
"","html-button-response","537","553329","0.0-537.0","536.1000000238419","","","","1","","",""
"","html-keyboard-response","538","554338","0.0-538.0","null","<div style=""font-size:60px;"">+</div>","null","","","","",""
"","image-button-response","539","554842","0.0-539.0","null","stimuli/images_hvm10/im126.png","","","null","126","6","2"
"","html-button-response","540","555431","0.0-540.0","586.7999999523163","","","","0","","",""
"","html-keyboard-response","541","556434","0.0-541.0","null","<div style=""font-size:60px;"">+</div>","null","","","","",""
"","image-button-response","542","556942","0.0-542.0","null","stimuli/images_hvm10/im130.png","","","null","130","2","6"
"","html-button-response","543","558645","0.0-543.0","1700.2000000476837","","","","1","","",""
"","html-keyboard-response","544","559668","0.0-544.0","null","<div style=""font-size:60px;"">+</div>","null","","","","",""
"","image-button-response","545","560188","0.0-545.0","null","stimuli/images_hvm10/im161.png","","","null","161","8","0"
"","html-button-response","546","561433","0.0-546.0","1242.7000000476837","","","","0","","",""
"","html-keyboard-response","547","562435","0.0-547.0","null","<div style=""font-size:60px;"">+</div>","null","","","","",""
"","image-button-response","548","562966","0.0-548.0","null","stimuli/images_hvm10/im40.png","","","null","40","4","2"
"","html-button-response","549","563474","0.0-549.0","504.10000002384186","","","","1","","",""
"","html-keyboard-response","550","564476","0.0-550.0","null","<div style=""font-size:60px;"">+</div>","null","","","","",""
"","image-button-response","551","564988","0.0-551.0","null","stimuli/images_hvm10/im36.png","","","null","36","9","1"
"","html-button-response","552","566738","0.0-552.0","1747.1999999284744","","","","1","","",""
"","html-keyboard-response","553","567751","0.0-553.0","null","<div style=""font-size:60px;"">+</div>","null","","","","",""
"","image-button-response","554","568257","0.0-554.0","null","stimuli/images_hvm10/im143.png","","","null","143","7","2"
"","html-button-response","555","571174","0.0-555.0","2913.1999999284744","","","","1","","",""
"","html-keyboard-response","556","572182","0.0-556.0","null","<div style=""font-size:60px;"">+</div>","null","","","","",""
"","image-button-response","557","572688","0.0-557.0","null","stimuli/images_hvm10/im35.png","","","null","35","0","1"
"","html-button-response","558","573358","0.0-558.0","667.1000000238419","","","","1","","",""
"","html-keyboard-response","559","574368","0.0-559.0","null","<div style=""font-size:60px;"">+</div>","null","","","","",""
"","image-button-response","560","574877","0.0-560.0","null","stimuli/images_hvm10/im3.png","","","null","3","1","0"
"","html-button-response","561","575915","0.0-561.0","1034.3999999761581","","","","1","","",""
"","html-keyboard-response","562","576919","0.0-562.0","null","<div style=""font-size:60px;"">+</div>","null","","","","",""
"","image-button-response","563","577437","0.0-563.0","null","stimuli/images_hvm10/im168.png","","","null","168","8","0"
"","html-button-response","564","578196","0.0-564.0","756","","","","0","","",""
"","html-keyboard-response","565","579207","0.0-565.0","null","<div style=""font-size:60px;"">+</div>","null","","","","",""
"","image-button-response","566","579727","0.0-566.0","null","stimuli/images_hvm10/im7.png","","","null","7","3","0"
"","html-button-response","567","580365","0.0-567.0","635","","","","1","","",""
"","html-keyboard-response","568","581378","0.0-568.0","null","<div style=""font-size:60px;"">+</div>","null","","","","",""
"","image-button-response","569","581887","0.0-569.0","null","stimuli/images_hvm10/im138.png","","","null","138","8","6"
"","html-button-response","570","582800","0.0-570.0","910.2000000476837","","","","0","","",""
"","html-keyboard-response","571","583812","0.0-571.0","null","<div style=""font-size:60px;"">+</div>","null","","","","",""
"","image-button-response","572","584329","0.0-572.0","null","stimuli/images_hvm10/im8.png","","","null","8","0","5"
"","html-button-response","573","585017","0.0-573.0","685.7999999523163","","","","0","","",""
"","html-keyboard-response","574","586022","0.0-574.0","null","<div style=""font-size:60px;"">+</div>","null","","","","",""
"","image-button-response","575","586537","0.0-575.0","null","stimuli/images_hvm10/im49.png","","","null","49","0","2"
"","html-button-response","576","587232","0.0-576.0","692.2000000476837","","","","0","","",""
"","html-keyboard-response","577","588248","0.0-577.0","null","<div style=""font-size:60px;"">+</div>","null","","","","",""
"","image-button-response","578","588758","0.0-578.0","null","stimuli/images_hvm10/im24.png","","","null","24","4","1"
"","html-button-response","579","589340","0.0-579.0","578.5","","","","1","","",""
"","html-keyboard-response","580","590347","0.0-580.0","null","<div style=""font-size:60px;"">+</div>","null","","","","",""
"","image-button-response","581","590867","0.0-581.0","null","stimuli/images_hvm10/im30.png","","","null","30","7","1"
"","html-button-response","582","594957","0.0-582.0","4087.1999999284744","","","","1","","",""
"","html-keyboard-response","583","595960","0.0-583.0","null","<div style=""font-size:60px;"">+</div>","null","","","","",""
"","image-button-response","584","596466","0.0-584.0","null","stimuli/images_hvm10/im174.png","","","null","174","2","8"
"","html-button-response","585","597223","0.0-585.0","753","","","","1","","",""
"","html-keyboard-response","586","598229","0.0-586.0","null","<div style=""font-size:60px;"">+</div>","null","","","","",""
"","image-button-response","587","598733","0.0-587.0","null","stimuli/images_hvm10/im198.png","","","null","198","5","9"
"","html-button-response","588","599276","0.0-588.0","539.6999999284744","","","","1","","",""
"","html-keyboard-response","589","600297","0.0-589.0","null","<div style=""font-size:60px;"">+</div>","null","","","","",""
"","image-button-response","590","600807","0.0-590.0","null","stimuli/images_hvm10/im94.png","","","null","94","4","3"
"","html-button-response","591","601498","0.0-591.0","687.2000000476837","","","","0","","",""
"","html-keyboard-response","592","602501","0.0-592.0","null","<div style=""font-size:60px;"">+</div>","null","","","","",""
"","image-button-response","593","603019","0.0-593.0","null","stimuli/images_hvm10/im177.png","","","null","177","1","8"
"","html-button-response","594","603609","0.0-594.0","587.1000000238419","","","","1","","",""
"","html-keyboard-response","595","604612","0.0-595.0","null","<div style=""font-size:60px;"">+</div>","null","","","","",""
"","image-button-response","596","605129","0.0-596.0","null","stimuli/images_hvm10/im87.png","","","null","87","2","4"
"","html-button-response","597","605902","0.0-597.0","770.5","","","","1","","",""
"","html-keyboard-response","598","606920","0.0-598.0","null","<div style=""font-size:60px;"">+</div>","null","","","","",""
"","image-button-response","599","607435","0.0-599.0","null","stimuli/images_hvm10/im137.png","","","null","137","6","2"
"","html-button-response","600","609606","0.0-600.0","2149.9000000953674","","","","0","","",""
