success,trial_type,trial_index,time_elapsed,internal_node_id,rt,stimulus,key_press,responses,button_pressed,images,left_choice,right_choice
TRUE,fullscreen,0,3650,0.0-0.0,,,,,,,,
,html-keyboard-response,1,5029,0.0-1.0,1376.7999999523200,Welcome to the experiment. Press any key to begin.,32,,,,,
,survey-html-form,2,12138,0.0-2.0,7104.799999952320,,,"{""p_id"":""9908"",""age"":""19"",""handedness"":""right"",""sex"":""female"",""other_sex"":""""}",,,,
,html-keyboard-response,3,24684,0.0-3.0,12544.5,"<p>Please fixate at the center '+' sign which will appear once you press any key. Then, <strong> an image </strong> will be shown in the center of the screen.</p><p>The image will contain an object.This will be followed by a <strong> Choice Screen </strong> containing two objects. Please choose the option <strong>[Click on the object]</strong> that you think was present in the image<p>Press any key to begin.</p>",32,,,,,
,html-keyboard-response,4,27696,0.0-4.0,null,"<div style=""font-size:60px;"">+</div>",null,,,,,
,image-button-response,5,28207,0.0-5.0,null,stimuli/images_hvm10/im158.png,,,null,158,9,7
,html-button-response,6,29218,0.0-6.0,1006,,,,1,,,
,html-keyboard-response,7,30226,0.0-7.0,null,"<div style=""font-size:60px;"">+</div>",null,,,,,
,image-button-response,8,30734,0.0-8.0,null,stimuli/images_hvm10/im128.png,,,null,128,6,7
,html-button-response,9,33031,0.0-9.0,2294.300000190740,,,,1,,,
,html-keyboard-response,10,34038,0.0-10.0,null,"<div style=""font-size:60px;"">+</div>",null,,,,,
,image-button-response,11,34546,0.0-11.0,null,stimuli/images_hvm10/im130.png,,,null,130,0,6
,html-button-response,12,35919,0.0-12.0,1369.6999998092700,,,,0,,,
,html-keyboard-response,13,36925,0.0-13.0,null,"<div style=""font-size:60px;"">+</div>",null,,,,,
,image-button-response,14,37432,0.0-14.0,null,stimuli/images_hvm10/im156.png,,,null,156,1,7
,html-button-response,15,38862,0.0-15.0,1426.5,,,,0,,,
,html-keyboard-response,16,39869,0.0-16.0,null,"<div style=""font-size:60px;"">+</div>",null,,,,,
,image-button-response,17,40377,0.0-17.0,null,stimuli/images_hvm10/im173.png,,,null,173,8,3
,html-button-response,18,41180,0.0-18.0,799.5999999046330,,,,0,,,
,html-keyboard-response,19,42183,0.0-19.0,null,"<div style=""font-size:60px;"">+</div>",null,,,,,
,image-button-response,20,42688,0.0-20.0,null,stimuli/images_hvm10/im69.png,,,null,69,3,9
,html-button-response,21,43417,0.0-21.0,725.8999998569490,,,,0,,,
,html-keyboard-response,22,44422,0.0-22.0,null,"<div style=""font-size:60px;"">+</div>",null,,,,,
,image-button-response,23,44926,0.0-23.0,null,stimuli/images_hvm10/im155.png,,,null,155,7,4
,html-button-response,24,48379,0.0-24.0,3450.600000143050,,,,1,,,
,html-keyboard-response,25,49384,0.0-25.0,null,"<div style=""font-size:60px;"">+</div>",null,,,,,
,image-button-response,26,49888,0.0-26.0,null,stimuli/images_hvm10/im175.png,,,null,175,0,8
,html-button-response,27,51037,0.0-27.0,1145.8999998569500,,,,0,,,
,html-keyboard-response,28,52042,0.0-28.0,null,"<div style=""font-size:60px;"">+</div>",null,,,,,
,image-button-response,29,52550,0.0-29.0,null,stimuli/images_hvm10/im146.png,,,null,146,7,6
,html-button-response,30,53266,0.0-30.0,712.7000000476840,,,,0,,,
,html-keyboard-response,31,54274,0.0-31.0,null,"<div style=""font-size:60px;"">+</div>",null,,,,,
,image-button-response,32,54781,0.0-32.0,null,stimuli/images_hvm10/im53.png,,,null,53,8,2
,html-button-response,33,55625,0.0-33.0,840.2000000476840,,,,1,,,
,html-keyboard-response,34,56632,0.0-34.0,null,"<div style=""font-size:60px;"">+</div>",null,,,,,
,image-button-response,35,57137,0.0-35.0,null,stimuli/images_hvm10/im98.png,,,null,98,4,0
,html-button-response,36,57950,0.0-36.0,808.7000000476840,,,,0,,,
,html-keyboard-response,37,58954,0.0-37.0,null,"<div style=""font-size:60px;"">+</div>",null,,,,,
,image-button-response,38,59458,0.0-38.0,null,stimuli/images_hvm10/im87.png,,,null,87,2,4
,html-button-response,39,60291,0.0-39.0,829.6000001430510,,,,1,,,
,html-keyboard-response,40,61298,0.0-40.0,null,"<div style=""font-size:60px;"">+</div>",null,,,,,
,image-button-response,41,61807,0.0-41.0,null,stimuli/images_hvm10/im77.png,,,null,77,6,3
,html-button-response,42,62553,0.0-42.0,742.8999998569490,,,,1,,,
,html-keyboard-response,43,63558,0.0-43.0,null,"<div style=""font-size:60px;"">+</div>",null,,,,,
,image-button-response,44,64065,0.0-44.0,null,stimuli/images_hvm10/im170.png,,,null,170,4,8
,html-button-response,45,64752,0.0-45.0,683.5,,,,1,,,
,html-keyboard-response,46,65760,0.0-46.0,null,"<div style=""font-size:60px;"">+</div>",null,,,,,
,image-button-response,47,66265,0.0-47.0,null,stimuli/images_hvm10/im70.png,,,null,70,6,3
,html-button-response,48,66943,0.0-48.0,674,,,,1,,,
,html-keyboard-response,49,67950,0.0-49.0,null,"<div style=""font-size:60px;"">+</div>",null,,,,,
,image-button-response,50,68458,0.0-50.0,null,stimuli/images_hvm10/im107.png,,,null,107,9,5
,html-button-response,51,69093,0.0-51.0,631.7999999523160,,,,1,,,
,html-keyboard-response,52,70099,0.0-52.0,null,"<div style=""font-size:60px;"">+</div>",null,,,,,
,image-button-response,53,70607,0.0-53.0,null,stimuli/images_hvm10/im84.png,,,null,84,4,9
,html-button-response,54,71324,0.0-54.0,713.2999999523160,,,,1,,,
,html-keyboard-response,55,72331,0.0-55.0,null,"<div style=""font-size:60px;"">+</div>",null,,,,,
,image-button-response,56,72837,0.0-56.0,null,stimuli/images_hvm10/im52.png,,,null,52,7,2
,html-button-response,57,74283,0.0-57.0,1442.5,,,,0,,,
,html-keyboard-response,58,75287,0.0-58.0,null,"<div style=""font-size:60px;"">+</div>",null,,,,,
,image-button-response,59,75792,0.0-59.0,null,stimuli/images_hvm10/im112.png,,,null,112,5,2
,html-button-response,60,76450,0.0-60.0,653.7999999523160,,,,0,,,
,html-keyboard-response,61,77454,0.0-61.0,null,"<div style=""font-size:60px;"">+</div>",null,,,,,
,image-button-response,62,77963,0.0-62.0,null,stimuli/images_hvm10/im66.png,,,null,66,9,3
,html-button-response,63,78560,0.0-63.0,593.9000000953670,,,,1,,,
,html-keyboard-response,64,79565,0.0-64.0,null,"<div style=""font-size:60px;"">+</div>",null,,,,,
,image-button-response,65,80070,0.0-65.0,null,stimuli/images_hvm10/im119.png,,,null,119,1,5
,html-button-response,66,80617,0.0-66.0,542.8999998569490,,,,1,,,
,html-keyboard-response,67,81621,0.0-67.0,null,"<div style=""font-size:60px;"">+</div>",null,,,,,
,image-button-response,68,82130,0.0-68.0,null,stimuli/images_hvm10/im72.png,,,null,72,3,2
,html-button-response,69,82847,0.0-69.0,712.7999999523160,,,,0,,,
,html-keyboard-response,70,83851,0.0-70.0,null,"<div style=""font-size:60px;"">+</div>",null,,,,,
,image-button-response,71,84360,0.0-71.0,null,stimuli/images_hvm10/im80.png,,,null,80,7,4
,html-button-response,72,85221,0.0-72.0,857.3999998569490,,,,1,,,
,html-keyboard-response,73,86228,0.0-73.0,null,"<div style=""font-size:60px;"">+</div>",null,,,,,
,image-button-response,74,86737,0.0-74.0,null,stimuli/images_hvm10/im179.png,,,null,179,8,6
,html-button-response,75,87879,0.0-75.0,1139,,,,0,,,
,html-keyboard-response,76,88887,0.0-76.0,null,"<div style=""font-size:60px;"">+</div>",null,,,,,
,image-button-response,77,89392,0.0-77.0,null,stimuli/images_hvm10/im100.png,,,null,100,7,5
,html-button-response,78,89895,0.0-78.0,498.2000000476840,,,,1,,,
,html-keyboard-response,79,90900,0.0-79.0,null,"<div style=""font-size:60px;"">+</div>",null,,,,,
,image-button-response,80,91403,0.0-80.0,null,stimuli/images_hvm10/im174.png,,,null,174,8,6
,html-button-response,81,92069,0.0-81.0,663.7999999523160,,,,0,,,
,html-keyboard-response,82,93077,0.0-82.0,null,"<div style=""font-size:60px;"">+</div>",null,,,,,
,image-button-response,83,93583,0.0-83.0,null,stimuli/images_hvm10/im141.png,,,null,141,7,2
,html-button-response,84,94205,0.0-84.0,618.5,,,,0,,,
,html-keyboard-response,85,95212,0.0-85.0,null,"<div style=""font-size:60px;"">+</div>",null,,,,,
,image-button-response,86,95720,0.0-86.0,null,stimuli/images_hvm10/im30.png,,,null,30,1,4
,html-button-response,87,96339,0.0-87.0,616.8999998569490,,,,0,,,
,html-keyboard-response,88,97342,0.0-88.0,null,"<div style=""font-size:60px;"">+</div>",null,,,,,
,image-button-response,89,97849,0.0-89.0,null,stimuli/images_hvm10/im138.png,,,null,138,6,7
,html-button-response,90,99035,0.0-90.0,1183.2000000476800,,,,0,,,
,html-keyboard-response,91,100036,0.0-91.0,null,"<div style=""font-size:60px;"">+</div>",null,,,,,
,image-button-response,92,100544,0.0-92.0,null,stimuli/images_hvm10/im64.png,,,null,64,6,3
,html-button-response,93,101354,0.0-93.0,807.9000000953670,,,,1,,,
,html-keyboard-response,94,102358,0.0-94.0,null,"<div style=""font-size:60px;"">+</div>",null,,,,,
,image-button-response,95,102865,0.0-95.0,null,stimuli/images_hvm10/im31.png,,,null,31,1,8
,html-button-response,96,103562,0.0-96.0,694.3000001907350,,,,0,,,
,html-keyboard-response,97,104567,0.0-97.0,null,"<div style=""font-size:60px;"">+</div>",null,,,,,
,image-button-response,98,105075,0.0-98.0,null,stimuli/images_hvm10/im144.png,,,null,144,7,3
,html-button-response,99,105665,0.0-99.0,586.8999998569490,,,,0,,,
,html-keyboard-response,100,106672,0.0-100.0,null,"<div style=""font-size:60px;"">+</div>",null,,,,,
,image-button-response,101,107180,0.0-101.0,null,stimuli/images_hvm10/im104.png,,,null,104,4,5
,html-button-response,102,108308,0.0-102.0,1124.5,,,,1,,,
,html-keyboard-response,103,109314,0.0-103.0,null,"<div style=""font-size:60px;"">+</div>",null,,,,,
,image-button-response,104,109821,0.0-104.0,null,stimuli/images_hvm10/im63.png,,,null,63,5,3
,html-button-response,105,110538,0.0-105.0,714.5,,,,1,,,
,html-keyboard-response,106,111542,0.0-106.0,null,"<div style=""font-size:60px;"">+</div>",null,,,,,
,image-button-response,107,112048,0.0-107.0,null,stimuli/images_hvm10/im47.png,,,null,47,4,2
,html-button-response,108,112968,0.0-108.0,917,,,,0,,,
,html-keyboard-response,109,113975,0.0-109.0,null,"<div style=""font-size:60px;"">+</div>",null,,,,,
,image-button-response,110,114484,0.0-110.0,null,stimuli/images_hvm10/im14.png,,,null,14,8,0
,html-button-response,111,115182,0.0-111.0,694.9000000953670,,,,1,,,
,html-keyboard-response,112,116185,0.0-112.0,null,"<div style=""font-size:60px;"">+</div>",null,,,,,
,image-button-response,113,116692,0.0-113.0,null,stimuli/images_hvm10/im95.png,,,null,95,1,4
,html-button-response,114,117515,0.0-114.0,819.8999998569490,,,,0,,,
,html-keyboard-response,115,118520,0.0-115.0,null,"<div style=""font-size:60px;"">+</div>",null,,,,,
,image-button-response,116,119028,0.0-116.0,null,stimuli/images_hvm10/im33.png,,,null,33,1,3
,html-button-response,117,119794,0.0-117.0,764.0999999046330,,,,0,,,
,html-keyboard-response,118,120798,0.0-118.0,null,"<div style=""font-size:60px;"">+</div>",null,,,,,
,image-button-response,119,121302,0.0-119.0,null,stimuli/images_hvm10/im86.png,,,null,86,4,1
,html-button-response,120,122048,0.0-120.0,741.9000000953670,,,,1,,,
,html-keyboard-response,121,123052,0.0-121.0,null,"<div style=""font-size:60px;"">+</div>",null,,,,,
,image-button-response,122,123557,0.0-122.0,null,stimuli/images_hvm10/im38.png,,,null,38,1,7
,html-button-response,123,124175,0.0-123.0,614,,,,0,,,
,html-keyboard-response,124,125182,0.0-124.0,null,"<div style=""font-size:60px;"">+</div>",null,,,,,
,image-button-response,125,125686,0.0-125.0,null,stimuli/images_hvm10/im62.png,,,null,62,3,4
,html-button-response,126,126325,0.0-126.0,635.7999999523160,,,,1,,,
,html-keyboard-response,127,127330,0.0-127.0,null,"<div style=""font-size:60px;"">+</div>",null,,,,,
,image-button-response,128,127836,0.0-128.0,null,stimuli/images_hvm10/im108.png,,,null,108,5,9
,html-button-response,129,128492,0.0-129.0,653.4000000953670,,,,0,,,
,html-keyboard-response,130,129497,0.0-130.0,null,"<div style=""font-size:60px;"">+</div>",null,,,,,
,image-button-response,131,130004,0.0-131.0,null,stimuli/images_hvm10/im51.png,,,null,51,2,5
,html-button-response,132,130651,0.0-132.0,645.8000001907350,,,,0,,,
,html-keyboard-response,133,131658,0.0-133.0,null,"<div style=""font-size:60px;"">+</div>",null,,,,,
,image-button-response,134,132163,0.0-134.0,null,stimuli/images_hvm10/im36.png,,,null,36,1,8
,html-button-response,135,132803,0.0-135.0,636.7000000476840,,,,0,,,
,html-keyboard-response,136,133809,0.0-136.0,null,"<div style=""font-size:60px;"">+</div>",null,,,,,
,image-button-response,137,134314,0.0-137.0,null,stimuli/images_hvm10/im139.png,,,null,139,4,6
,html-button-response,138,134952,0.0-138.0,634.2000000476840,,,,1,,,
,html-keyboard-response,139,135959,0.0-139.0,null,"<div style=""font-size:60px;"">+</div>",null,,,,,
,image-button-response,140,136464,0.0-140.0,null,stimuli/images_hvm10/im111.png,,,null,111,9,5
,html-button-response,141,137120,0.0-141.0,652.2000000476840,,,,1,,,
,html-keyboard-response,142,138125,0.0-142.0,null,"<div style=""font-size:60px;"">+</div>",null,,,,,
,image-button-response,143,138633,0.0-143.0,null,stimuli/images_hvm10/im161.png,,,null,161,2,8
,html-button-response,144,139294,0.0-144.0,657.7999999523160,,,,1,,,
,html-keyboard-response,145,140300,0.0-145.0,null,"<div style=""font-size:60px;"">+</div>",null,,,,,
,image-button-response,146,140809,0.0-146.0,null,stimuli/images_hvm10/im2.png,,,null,2,7,0
,html-button-response,147,141477,0.0-147.0,664.2999999523160,,,,1,,,
,html-keyboard-response,148,142483,0.0-148.0,null,"<div style=""font-size:60px;"">+</div>",null,,,,,
,image-button-response,149,142991,0.0-149.0,null,stimuli/images_hvm10/im1.png,,,null,1,0,7
,html-button-response,150,143581,0.0-150.0,586.2000000476840,,,,0,,,
,html-keyboard-response,151,144585,0.0-151.0,null,"<div style=""font-size:60px;"">+</div>",null,,,,,
,image-button-response,152,145094,0.0-152.0,null,stimuli/images_hvm10/im44.png,,,null,44,2,0
,html-button-response,153,145691,0.0-153.0,594.0999999046330,,,,0,,,
,html-keyboard-response,154,146694,0.0-154.0,null,"<div style=""font-size:60px;"">+</div>",null,,,,,
,image-button-response,155,147203,0.0-155.0,null,stimuli/images_hvm10/im186.png,,,null,186,6,9
,html-button-response,156,148168,0.0-156.0,961.2000000476840,,,,0,,,
,html-keyboard-response,157,149175,0.0-157.0,null,"<div style=""font-size:60px;"">+</div>",null,,,,,
,image-button-response,158,149683,0.0-158.0,null,stimuli/images_hvm10/im168.png,,,null,168,8,9
,html-button-response,159,150461,0.0-159.0,774.4000000953670,,,,0,,,
,html-keyboard-response,160,151469,0.0-160.0,null,"<div style=""font-size:60px;"">+</div>",null,,,,,
,image-button-response,161,151974,0.0-161.0,null,stimuli/images_hvm10/im54.png,,,null,54,2,9
,html-button-response,162,152652,0.0-162.0,673.8999998569490,,,,0,,,
,html-keyboard-response,163,153656,0.0-163.0,null,"<div style=""font-size:60px;"">+</div>",null,,,,,
,image-button-response,164,154163,0.0-164.0,null,stimuli/images_hvm10/im21.png,,,null,21,0,1
,html-button-response,165,154921,0.0-165.0,754,,,,1,,,
,html-keyboard-response,166,155926,0.0-166.0,null,"<div style=""font-size:60px;"">+</div>",null,,,,,
,image-button-response,167,156434,0.0-167.0,null,stimuli/images_hvm10/im0.png,,,null,0,0,6
,html-button-response,168,157001,0.0-168.0,563.9000000953670,,,,0,,,
,html-keyboard-response,169,158003,0.0-169.0,null,"<div style=""font-size:60px;"">+</div>",null,,,,,
,image-button-response,170,158511,0.0-170.0,null,stimuli/images_hvm10/im184.png,,,null,184,9,3
,html-button-response,171,159087,0.0-171.0,573.7000000476840,,,,0,,,
,html-keyboard-response,172,160092,0.0-172.0,null,"<div style=""font-size:60px;"">+</div>",null,,,,,
,image-button-response,173,160599,0.0-173.0,null,stimuli/images_hvm10/im65.png,,,null,65,5,3
,html-button-response,174,161310,0.0-174.0,707.7999999523160,,,,1,,,
,html-keyboard-response,175,162317,0.0-175.0,null,"<div style=""font-size:60px;"">+</div>",null,,,,,
,image-button-response,176,162825,0.0-176.0,null,stimuli/images_hvm10/im26.png,,,null,26,5,1
,html-button-response,177,163674,0.0-177.0,846.4000000953670,,,,1,,,
,html-keyboard-response,178,164681,0.0-178.0,null,"<div style=""font-size:60px;"">+</div>",null,,,,,
,image-button-response,179,165185,0.0-179.0,null,stimuli/images_hvm10/im23.png,,,null,23,5,1
,html-button-response,180,165715,0.0-180.0,526.7000000476840,,,,1,,,
,html-keyboard-response,181,166719,0.0-181.0,null,"<div style=""font-size:60px;"">+</div>",null,,,,,
,image-button-response,182,167227,0.0-182.0,null,stimuli/images_hvm10/im113.png,,,null,113,5,2
,html-button-response,183,167786,0.0-183.0,556.2000000476840,,,,0,,,
,html-keyboard-response,184,168792,0.0-184.0,null,"<div style=""font-size:60px;"">+</div>",null,,,,,
,image-button-response,185,169299,0.0-185.0,null,stimuli/images_hvm10/im118.png,,,null,118,9,5
,html-button-response,186,169872,0.0-186.0,570.6000001430510,,,,0,,,
,html-keyboard-response,187,170875,0.0-187.0,null,"<div style=""font-size:60px;"">+</div>",null,,,,,
,image-button-response,188,171384,0.0-188.0,null,stimuli/images_hvm10/im99.png,,,null,99,4,1
,html-button-response,189,171984,0.0-189.0,597.5999999046330,,,,0,,,
,html-keyboard-response,190,172992,0.0-190.0,null,"<div style=""font-size:60px;"">+</div>",null,,,,,
,image-button-response,191,173500,0.0-191.0,null,stimuli/images_hvm10/im96.png,,,null,96,8,4
,html-button-response,192,174080,0.0-192.0,577,,,,1,,,
,html-keyboard-response,193,175084,0.0-193.0,null,"<div style=""font-size:60px;"">+</div>",null,,,,,
,image-button-response,194,175592,0.0-194.0,null,stimuli/images_hvm10/im197.png,,,null,197,7,9
,html-button-response,195,176167,0.0-195.0,572.2000000476840,,,,1,,,
,html-keyboard-response,196,177173,0.0-196.0,null,"<div style=""font-size:60px;"">+</div>",null,,,,,
,image-button-response,197,177681,0.0-197.0,null,stimuli/images_hvm10/im123.png,,,null,123,6,7
,html-button-response,198,178269,0.0-198.0,585.4000000953670,,,,0,,,
,html-keyboard-response,199,179275,0.0-199.0,null,"<div style=""font-size:60px;"">+</div>",null,,,,,
,image-button-response,200,179779,0.0-200.0,null,stimuli/images_hvm10/im50.png,,,null,50,2,8
,html-button-response,201,180395,0.0-201.0,613.3999998569490,,,,0,,,
,html-keyboard-response,202,181400,0.0-202.0,null,"<div style=""font-size:60px;"">+</div>",null,,,,,
,image-button-response,203,181907,0.0-203.0,null,stimuli/images_hvm10/im5.png,,,null,5,2,0
,html-button-response,204,182516,0.0-204.0,605.5999999046330,,,,1,,,
,html-keyboard-response,205,183520,0.0-205.0,null,"<div style=""font-size:60px;"">+</div>",null,,,,,
,image-button-response,206,184026,0.0-206.0,null,stimuli/images_hvm10/im159.png,,,null,159,7,4
,html-button-response,207,184556,0.0-207.0,527.1000001430510,,,,0,,,
,html-keyboard-response,208,185562,0.0-208.0,null,"<div style=""font-size:60px;"">+</div>",null,,,,,
,image-button-response,209,186071,0.0-209.0,null,stimuli/images_hvm10/im163.png,,,null,163,8,4
,html-button-response,210,186635,0.0-210.0,560.7999999523160,,,,0,,,
,html-keyboard-response,211,187642,0.0-211.0,null,"<div style=""font-size:60px;"">+</div>",null,,,,,
,image-button-response,212,188149,0.0-212.0,null,stimuli/images_hvm10/im29.png,,,null,29,3,1
,html-button-response,213,188683,0.0-213.0,531.0999999046330,,,,1,,,
,html-keyboard-response,214,189690,0.0-214.0,null,"<div style=""font-size:60px;"">+</div>",null,,,,,
,image-button-response,215,190195,0.0-215.0,null,stimuli/images_hvm10/im127.png,,,null,127,8,6
,html-button-response,216,190888,0.0-216.0,690,,,,1,,,
,html-keyboard-response,217,191891,0.0-217.0,null,"<div style=""font-size:60px;"">+</div>",null,,,,,
,image-button-response,218,192396,0.0-218.0,null,stimuli/images_hvm10/im9.png,,,null,9,0,2
,html-button-response,219,192991,0.0-219.0,591.8999998569490,,,,0,,,
,html-keyboard-response,220,193996,0.0-220.0,null,"<div style=""font-size:60px;"">+</div>",null,,,,,
,image-button-response,221,194502,0.0-221.0,null,stimuli/images_hvm10/im60.png,,,null,60,8,3
,html-button-response,222,195215,0.0-222.0,709.3999998569490,,,,1,,,
,html-keyboard-response,223,196221,0.0-223.0,null,"<div style=""font-size:60px;"">+</div>",null,,,,,
,image-button-response,224,196726,0.0-224.0,null,stimuli/images_hvm10/im55.png,,,null,55,2,1
,html-button-response,225,197588,0.0-225.0,858.5,,,,0,,,
,html-keyboard-response,226,198592,0.0-226.0,null,"<div style=""font-size:60px;"">+</div>",null,,,,,
,image-button-response,227,199098,0.0-227.0,null,stimuli/images_hvm10/im149.png,,,null,149,5,7
,html-button-response,228,199723,0.0-228.0,621.3000001907350,,,,1,,,
,html-keyboard-response,229,200731,0.0-229.0,null,"<div style=""font-size:60px;"">+</div>",null,,,,,
,image-button-response,230,201240,0.0-230.0,null,stimuli/images_hvm10/im143.png,,,null,143,5,7
,html-button-response,231,201850,0.0-231.0,607.0999999046330,,,,0,,,
,html-keyboard-response,232,202858,0.0-232.0,null,"<div style=""font-size:60px;"">+</div>",null,,,,,
,image-button-response,233,203362,0.0-233.0,null,stimuli/images_hvm10/im172.png,,,null,172,4,8
,html-button-response,234,203864,0.0-234.0,498.19999980926500,,,,1,,,
,html-keyboard-response,235,204867,0.0-235.0,null,"<div style=""font-size:60px;"">+</div>",null,,,,,
,image-button-response,236,205373,0.0-236.0,null,stimuli/images_hvm10/im48.png,,,null,48,7,2
,html-button-response,237,206302,0.0-237.0,926.2000000476840,,,,1,,,
,html-keyboard-response,238,207309,0.0-238.0,null,"<div style=""font-size:60px;"">+</div>",null,,,,,
,image-button-response,239,207816,0.0-239.0,null,stimuli/images_hvm10/im49.png,,,null,49,0,2
,html-button-response,240,208531,0.0-240.0,712,,,,0,,,
,html-keyboard-response,241,209539,0.0-241.0,null,"<div style=""font-size:60px;"">+</div>",null,,,,,
,image-button-response,242,210044,0.0-242.0,null,stimuli/images_hvm10/im129.png,,,null,129,6,3
,html-button-response,243,211309,0.0-243.0,1262.2000000476800,,,,0,,,
,html-keyboard-response,244,212313,0.0-244.0,null,"<div style=""font-size:60px;"">+</div>",null,,,,,
,image-button-response,245,212817,0.0-245.0,null,stimuli/images_hvm10/im137.png,,,null,137,6,8
,html-button-response,246,213525,0.0-246.0,703.1000001430510,,,,1,,,
,html-keyboard-response,247,214531,0.0-247.0,null,"<div style=""font-size:60px;"">+</div>",null,,,,,
,image-button-response,248,215036,0.0-248.0,null,stimuli/images_hvm10/im169.png,,,null,169,8,5
,html-button-response,249,215589,0.0-249.0,548.2000000476840,,,,0,,,
,html-keyboard-response,250,216596,0.0-250.0,null,"<div style=""font-size:60px;"">+</div>",null,,,,,
,image-button-response,251,217103,0.0-251.0,null,stimuli/images_hvm10/im32.png,,,null,32,1,8
,html-button-response,252,217676,0.0-252.0,569.2000000476840,,,,0,,,
,html-keyboard-response,253,218684,0.0-253.0,null,"<div style=""font-size:60px;"">+</div>",null,,,,,
,image-button-response,254,219188,0.0-254.0,null,stimuli/images_hvm10/im41.png,,,null,41,2,8
,html-button-response,255,219748,0.0-255.0,557.0999999046330,,,,0,,,
,html-keyboard-response,256,220751,0.0-256.0,null,"<div style=""font-size:60px;"">+</div>",null,,,,,
,image-button-response,257,221254,0.0-257.0,null,stimuli/images_hvm10/im24.png,,,null,24,4,1
,html-button-response,258,221969,0.0-258.0,712.5999999046330,,,,1,,,
,html-keyboard-response,259,222975,0.0-259.0,null,"<div style=""font-size:60px;"">+</div>",null,,,,,
,image-button-response,260,223483,0.0-260.0,null,stimuli/images_hvm10/im133.png,,,null,133,6,0
,html-button-response,261,223984,0.0-261.0,498.7000000476840,,,,0,,,
,html-keyboard-response,262,224987,0.0-262.0,null,"<div style=""font-size:60px;"">+</div>",null,,,,,
,image-button-response,263,225496,0.0-263.0,null,stimuli/images_hvm10/im188.png,,,null,188,3,9
,html-button-response,264,226135,0.0-264.0,636.7999999523160,,,,1,,,
,html-keyboard-response,265,227142,0.0-265.0,null,"<div style=""font-size:60px;"">+</div>",null,,,,,
,image-button-response,266,227647,0.0-266.0,null,stimuli/images_hvm10/im140.png,,,null,140,7,8
,html-button-response,267,228175,0.0-267.0,524.6000001430510,,,,0,,,
,html-keyboard-response,268,229179,0.0-268.0,null,"<div style=""font-size:60px;"">+</div>",null,,,,,
,image-button-response,269,229683,0.0-269.0,null,stimuli/images_hvm10/im42.png,,,null,42,2,8
,html-button-response,270,230295,0.0-270.0,608.7999999523160,,,,0,,,
,html-keyboard-response,271,231300,0.0-271.0,null,"<div style=""font-size:60px;"">+</div>",null,,,,,
,image-button-response,272,231808,0.0-272.0,null,stimuli/images_hvm10/im11.png,,,null,11,0,9
,html-button-response,273,232485,0.0-273.0,673.7999999523160,,,,0,,,
,html-keyboard-response,274,233492,0.0-274.0,null,"<div style=""font-size:60px;"">+</div>",null,,,,,
,image-button-response,275,233999,0.0-275.0,null,stimuli/images_hvm10/im34.png,,,null,34,1,9
,html-button-response,276,234683,0.0-276.0,680.7999999523160,,,,0,,,
,html-keyboard-response,277,235690,0.0-277.0,null,"<div style=""font-size:60px;"">+</div>",null,,,,,
,image-button-response,278,236199,0.0-278.0,null,stimuli/images_hvm10/im116.png,,,null,116,5,9
,html-button-response,279,236659,0.0-279.0,457.5,,,,0,,,
,html-keyboard-response,280,237662,0.0-280.0,null,"<div style=""font-size:60px;"">+</div>",null,,,,,
,image-button-response,281,238168,0.0-281.0,null,stimuli/images_hvm10/im94.png,,,null,94,9,4
,html-button-response,282,238842,0.0-282.0,670.7000000476840,,,,1,,,
,html-keyboard-response,283,239850,0.0-283.0,null,"<div style=""font-size:60px;"">+</div>",null,,,,,
,image-button-response,284,240357,0.0-284.0,null,stimuli/images_hvm10/im97.png,,,null,97,7,4
,html-button-response,285,241055,0.0-285.0,694.7000000476840,,,,1,,,
,html-keyboard-response,286,242061,0.0-286.0,null,"<div style=""font-size:60px;"">+</div>",null,,,,,
,image-button-response,287,242569,0.0-287.0,null,stimuli/images_hvm10/im46.png,,,null,46,1,2
,html-button-response,288,243191,0.0-288.0,618,,,,1,,,
,html-keyboard-response,289,244198,0.0-289.0,null,"<div style=""font-size:60px;"">+</div>",null,,,,,
,image-button-response,290,244706,0.0-290.0,null,stimuli/images_hvm10/im37.png,,,null,37,1,7
,html-button-response,291,245397,0.0-291.0,687.5,,,,0,,,
,html-keyboard-response,292,246400,0.0-292.0,null,"<div style=""font-size:60px;"">+</div>",null,,,,,
,image-button-response,293,246909,0.0-293.0,null,stimuli/images_hvm10/im45.png,,,null,45,7,2
,html-button-response,294,247532,0.0-294.0,620.2999999523160,,,,1,,,
,html-keyboard-response,295,248540,0.0-295.0,null,"<div style=""font-size:60px;"">+</div>",null,,,,,
,image-button-response,296,249046,0.0-296.0,null,stimuli/images_hvm10/im177.png,,,null,177,1,8
,html-button-response,297,249905,0.0-297.0,855.7000000476840,,,,1,,,
,html-keyboard-response,298,250911,0.0-298.0,null,"<div style=""font-size:60px;"">+</div>",null,,,,,
,image-button-response,299,251417,0.0-299.0,null,stimuli/images_hvm10/im3.png,,,null,3,0,4
,html-button-response,300,251913,0.0-300.0,492.7000000476840,,,,0,,,
,html-keyboard-response,301,252917,0.0-301.0,null,"<div style=""font-size:60px;"">+</div>",null,,,,,
,image-button-response,302,253426,0.0-302.0,null,stimuli/images_hvm10/im81.png,,,null,81,0,4
,html-button-response,303,254064,0.0-303.0,635.1999998092650,,,,1,,,
,html-keyboard-response,304,255067,0.0-304.0,null,"<div style=""font-size:60px;"">+</div>",null,,,,,
,image-button-response,305,255575,0.0-305.0,null,stimuli/images_hvm10/im105.png,,,null,105,5,1
,html-button-response,306,256055,0.0-306.0,477.90000009536700,,,,0,,,
,html-keyboard-response,307,257060,0.0-307.0,null,"<div style=""font-size:60px;"">+</div>",null,,,,,
,image-button-response,308,257568,0.0-308.0,null,stimuli/images_hvm10/im115.png,,,null,115,5,2
,html-button-response,309,258200,0.0-309.0,628.2000000476840,,,,1,,,
,html-keyboard-response,310,259202,0.0-310.0,null,"<div style=""font-size:60px;"">+</div>",null,,,,,
,image-button-response,311,259708,0.0-311.0,null,stimuli/images_hvm10/im167.png,,,null,167,8,7
,html-button-response,312,260263,0.0-312.0,551.5999999046330,,,,0,,,
,html-keyboard-response,313,261267,0.0-313.0,null,"<div style=""font-size:60px;"">+</div>",null,,,,,
,image-button-response,314,261775,0.0-314.0,null,stimuli/images_hvm10/im58.png,,,null,58,8,2
,html-button-response,315,262349,0.0-315.0,571.0999999046330,,,,1,,,
,html-keyboard-response,316,263357,0.0-316.0,null,"<div style=""font-size:60px;"">+</div>",null,,,,,
,image-button-response,317,263861,0.0-317.0,null,stimuli/images_hvm10/im145.png,,,null,145,8,7
,html-button-response,318,264565,0.0-318.0,700.1000001430510,,,,1,,,
,html-keyboard-response,319,265567,0.0-319.0,null,"<div style=""font-size:60px;"">+</div>",null,,,,,
,image-button-response,320,266076,0.0-320.0,null,stimuli/images_hvm10/im78.png,,,null,78,5,3
,html-button-response,321,266746,0.0-321.0,666.9000000953670,,,,1,,,
,html-keyboard-response,322,267751,0.0-322.0,null,"<div style=""font-size:60px;"">+</div>",null,,,,,
,image-button-response,323,268258,0.0-323.0,null,stimuli/images_hvm10/im192.png,,,null,192,1,9
,html-button-response,324,268763,0.0-324.0,501.60000014305100,,,,1,,,
,html-keyboard-response,325,269767,0.0-325.0,null,"<div style=""font-size:60px;"">+</div>",null,,,,,
,image-button-response,326,270276,0.0-326.0,null,stimuli/images_hvm10/im59.png,,,null,59,2,6
,html-button-response,327,270897,0.0-327.0,617.7999999523160,,,,0,,,
,html-keyboard-response,328,271901,0.0-328.0,null,"<div style=""font-size:60px;"">+</div>",null,,,,,
,image-button-response,329,272409,0.0-329.0,null,stimuli/images_hvm10/im110.png,,,null,110,5,8
,html-button-response,330,272857,0.0-330.0,443.30000019073500,,,,0,,,
,html-keyboard-response,331,273861,0.0-331.0,null,"<div style=""font-size:60px;"">+</div>",null,,,,,
,image-button-response,332,274370,0.0-332.0,null,stimuli/images_hvm10/im148.png,,,null,148,7,2
,html-button-response,333,274913,0.0-333.0,539.9000000953670,,,,0,,,
,html-keyboard-response,334,275917,0.0-334.0,null,"<div style=""font-size:60px;"">+</div>",null,,,,,
,image-button-response,335,276426,0.0-335.0,null,stimuli/images_hvm10/im79.png,,,null,79,3,5
,html-button-response,336,276952,0.0-336.0,522.2000000476840,,,,0,,,
,html-keyboard-response,337,277959,0.0-337.0,null,"<div style=""font-size:60px;"">+</div>",null,,,,,
,image-button-response,338,278468,0.0-338.0,null,stimuli/images_hvm10/im189.png,,,null,189,9,6
,html-button-response,339,279039,0.0-339.0,568,,,,0,,,
,html-keyboard-response,340,280042,0.0-340.0,null,"<div style=""font-size:60px;"">+</div>",null,,,,,
,image-button-response,341,280550,0.0-341.0,null,stimuli/images_hvm10/im154.png,,,null,154,1,7
,html-button-response,342,281096,0.0-342.0,541.5,,,,1,,,
,html-keyboard-response,343,282101,0.0-343.0,null,"<div style=""font-size:60px;"">+</div>",null,,,,,
,image-button-response,344,282607,0.0-344.0,null,stimuli/images_hvm10/im39.png,,,null,39,1,3
,html-button-response,345,283093,0.0-345.0,482.80000019073500,,,,0,,,
,html-keyboard-response,346,284100,0.0-346.0,null,"<div style=""font-size:60px;"">+</div>",null,,,,,
,image-button-response,347,284608,0.0-347.0,null,stimuli/images_hvm10/im120.png,,,null,120,6,1
,html-button-response,348,285167,0.0-348.0,554.7999999523160,,,,0,,,
,html-keyboard-response,349,286175,0.0-349.0,null,"<div style=""font-size:60px;"">+</div>",null,,,,,
,image-button-response,350,286682,0.0-350.0,null,stimuli/images_hvm10/im153.png,,,null,153,7,6
,html-button-response,351,287302,0.0-351.0,615.7000000476840,,,,0,,,
,html-keyboard-response,352,288309,0.0-352.0,null,"<div style=""font-size:60px;"">+</div>",null,,,,,
,image-button-response,353,288817,0.0-353.0,null,stimuli/images_hvm10/im73.png,,,null,73,3,0
,html-button-response,354,289531,0.0-354.0,712,,,,0,,,
,html-keyboard-response,355,290539,0.0-355.0,null,"<div style=""font-size:60px;"">+</div>",null,,,,,
,image-button-response,356,291045,0.0-356.0,null,stimuli/images_hvm10/im117.png,,,null,117,4,5
,html-button-response,357,291602,0.0-357.0,554.7000000476840,,,,1,,,
,html-keyboard-response,358,292609,0.0-358.0,null,"<div style=""font-size:60px;"">+</div>",null,,,,,
,image-button-response,359,293116,0.0-359.0,null,stimuli/images_hvm10/im162.png,,,null,162,8,9
,html-button-response,360,293833,0.0-360.0,714.7000000476840,,,,0,,,
,html-keyboard-response,361,294841,0.0-361.0,null,"<div style=""font-size:60px;"">+</div>",null,,,,,
,image-button-response,362,295349,0.0-362.0,null,stimuli/images_hvm10/im61.png,,,null,61,3,5
,html-button-response,363,295865,0.0-363.0,513.2000000476840,,,,0,,,
,html-keyboard-response,364,296872,0.0-364.0,null,"<div style=""font-size:60px;"">+</div>",null,,,,,
,image-button-response,365,297378,0.0-365.0,null,stimuli/images_hvm10/im165.png,,,null,165,5,8
,html-button-response,366,298143,0.0-366.0,761.7999999523160,,,,0,,,
,html-keyboard-response,367,299150,0.0-367.0,null,"<div style=""font-size:60px;"">+</div>",null,,,,,
,image-button-response,368,299656,0.0-368.0,null,stimuli/images_hvm10/im85.png,,,null,85,7,4
,html-button-response,369,300339,0.0-369.0,681,,,,1,,,
,html-keyboard-response,370,301342,0.0-370.0,null,"<div style=""font-size:60px;"">+</div>",null,,,,,
,image-button-response,371,301846,0.0-371.0,null,stimuli/images_hvm10/im125.png,,,null,125,6,2
,html-button-response,372,302405,0.0-372.0,555.8000001907350,,,,0,,,
,html-keyboard-response,373,303410,0.0-373.0,null,"<div style=""font-size:60px;"">+</div>",null,,,,,
,image-button-response,374,303916,0.0-374.0,null,stimuli/images_hvm10/im82.png,,,null,82,4,2
,html-button-response,375,304516,0.0-375.0,596.1999998092650,,,,0,,,
,html-keyboard-response,376,305518,0.0-376.0,null,"<div style=""font-size:60px;"">+</div>",null,,,,,
,image-button-response,377,306027,0.0-377.0,null,stimuli/images_hvm10/im102.png,,,null,102,2,5
,html-button-response,378,306515,0.0-378.0,485,,,,1,,,
,html-keyboard-response,379,307517,0.0-379.0,null,"<div style=""font-size:60px;"">+</div>",null,,,,,
,image-button-response,380,308025,0.0-380.0,null,stimuli/images_hvm10/im27.png,,,null,27,7,1
,html-button-response,381,308658,0.0-381.0,630,,,,1,,,
,html-keyboard-response,382,309665,0.0-382.0,null,"<div style=""font-size:60px;"">+</div>",null,,,,,
,image-button-response,383,310174,0.0-383.0,null,stimuli/images_hvm10/im16.png,,,null,16,0,6
,html-button-response,384,310683,0.0-384.0,505.60000014305100,,,,0,,,
,html-keyboard-response,385,311690,0.0-385.0,null,"<div style=""font-size:60px;"">+</div>",null,,,,,
,image-button-response,386,312197,0.0-386.0,null,stimuli/images_hvm10/im8.png,,,null,8,9,0
,html-button-response,387,312786,0.0-387.0,585.2999999523160,,,,1,,,
,html-keyboard-response,388,313792,0.0-388.0,null,"<div style=""font-size:60px;"">+</div>",null,,,,,
,image-button-response,389,314296,0.0-389.0,null,stimuli/images_hvm10/im89.png,,,null,89,0,4
,html-button-response,390,314809,0.0-390.0,508.7999999523160,,,,0,,,
,html-keyboard-response,391,315815,0.0-391.0,null,"<div style=""font-size:60px;"">+</div>",null,,,,,
,image-button-response,392,316323,0.0-392.0,null,stimuli/images_hvm10/im191.png,,,null,191,5,9
,html-button-response,393,316873,0.0-393.0,546.0999999046330,,,,1,,,
,html-keyboard-response,394,317875,0.0-394.0,null,"<div style=""font-size:60px;"">+</div>",null,,,,,
,image-button-response,395,318381,0.0-395.0,null,stimuli/images_hvm10/im88.png,,,null,88,4,6
,html-button-response,396,318881,0.0-396.0,496.5,,,,0,,,
,html-keyboard-response,397,319884,0.0-397.0,null,"<div style=""font-size:60px;"">+</div>",null,,,,,
,image-button-response,398,320392,0.0-398.0,null,stimuli/images_hvm10/im114.png,,,null,114,6,5
,html-button-response,399,320881,0.0-399.0,485.19999980926500,,,,1,,,
,html-keyboard-response,400,321884,0.0-400.0,null,"<div style=""font-size:60px;"">+</div>",null,,,,,
,image-button-response,401,322392,0.0-401.0,null,stimuli/images_hvm10/im25.png,,,null,25,1,6
,html-button-response,402,322816,0.0-402.0,420.7999999523160,,,,0,,,
,html-keyboard-response,403,323824,0.0-403.0,null,"<div style=""font-size:60px;"">+</div>",null,,,,,
,image-button-response,404,324332,0.0-404.0,null,stimuli/images_hvm10/im166.png,,,null,166,6,8
,html-button-response,405,324927,0.0-405.0,591.5,,,,1,,,
,html-keyboard-response,406,325934,0.0-406.0,null,"<div style=""font-size:60px;"">+</div>",null,,,,,
,image-button-response,407,326441,0.0-407.0,null,stimuli/images_hvm10/im109.png,,,null,109,5,8
,html-button-response,408,326889,0.0-408.0,444.7000000476840,,,,0,,,
,html-keyboard-response,409,327892,0.0-409.0,null,"<div style=""font-size:60px;"">+</div>",null,,,,,
,image-button-response,410,328401,0.0-410.0,null,stimuli/images_hvm10/im196.png,,,null,196,4,9
,html-button-response,411,328841,0.0-411.0,436.89999985694900,,,,1,,,
,html-keyboard-response,412,329849,0.0-412.0,null,"<div style=""font-size:60px;"">+</div>",null,,,,,
,image-button-response,413,330356,0.0-413.0,null,stimuli/images_hvm10/im93.png,,,null,93,1,4
,html-button-response,414,330857,0.0-414.0,497.7999999523160,,,,0,,,
,html-keyboard-response,415,331864,0.0-415.0,null,"<div style=""font-size:60px;"">+</div>",null,,,,,
,image-button-response,416,332373,0.0-416.0,null,stimuli/images_hvm10/im20.png,,,null,20,7,1
,html-button-response,417,333793,0.0-417.0,1416.2000000476800,,,,1,,,
,html-keyboard-response,418,334800,0.0-418.0,null,"<div style=""font-size:60px;"">+</div>",null,,,,,
,image-button-response,419,335309,0.0-419.0,null,stimuli/images_hvm10/im152.png,,,null,152,7,4
,html-button-response,420,335747,0.0-420.0,434.19999980926500,,,,0,,,
,html-keyboard-response,421,336752,0.0-421.0,null,"<div style=""font-size:60px;"">+</div>",null,,,,,
,image-button-response,422,337259,0.0-422.0,null,stimuli/images_hvm10/im15.png,,,null,15,8,0
,html-button-response,423,337761,0.0-423.0,498.09999990463300,,,,1,,,
,html-keyboard-response,424,338767,0.0-424.0,null,"<div style=""font-size:60px;"">+</div>",null,,,,,
,image-button-response,425,339276,0.0-425.0,null,stimuli/images_hvm10/im132.png,,,null,132,6,8
,html-button-response,426,339801,0.0-426.0,521.7000000476840,,,,0,,,
,html-keyboard-response,427,340808,0.0-427.0,null,"<div style=""font-size:60px;"">+</div>",null,,,,,
,image-button-response,428,341315,0.0-428.0,null,stimuli/images_hvm10/im103.png,,,null,103,5,7
,html-button-response,429,341848,0.0-429.0,529.1999998092650,,,,0,,,
,html-keyboard-response,430,342853,0.0-430.0,null,"<div style=""font-size:60px;"">+</div>",null,,,,,
,image-button-response,431,343359,0.0-431.0,null,stimuli/images_hvm10/im68.png,,,null,68,3,1
,html-button-response,432,343928,0.0-432.0,565.5,,,,0,,,
,html-keyboard-response,433,344934,0.0-433.0,null,"<div style=""font-size:60px;"">+</div>",null,,,,,
,image-button-response,434,345443,0.0-434.0,null,stimuli/images_hvm10/im121.png,,,null,121,6,3
,html-button-response,435,345983,0.0-435.0,536,,,,0,,,
,html-keyboard-response,436,346987,0.0-436.0,null,"<div style=""font-size:60px;"">+</div>",null,,,,,
,image-button-response,437,347495,0.0-437.0,null,stimuli/images_hvm10/im56.png,,,null,56,2,1
,html-button-response,438,348007,0.0-438.0,507.7999999523160,,,,0,,,
,html-keyboard-response,439,349014,0.0-439.0,null,"<div style=""font-size:60px;"">+</div>",null,,,,,
,image-button-response,440,349523,0.0-440.0,null,stimuli/images_hvm10/im4.png,,,null,4,0,3
,html-button-response,441,350015,0.0-441.0,488.7000000476840,,,,0,,,
,html-keyboard-response,442,351023,0.0-442.0,null,"<div style=""font-size:60px;"">+</div>",null,,,,,
,image-button-response,443,351531,0.0-443.0,null,stimuli/images_hvm10/im43.png,,,null,43,2,3
,html-button-response,444,352150,0.0-444.0,615.3999998569490,,,,0,,,
,html-keyboard-response,445,353157,0.0-445.0,null,"<div style=""font-size:60px;"">+</div>",null,,,,,
,image-button-response,446,353666,0.0-446.0,null,stimuli/images_hvm10/im71.png,,,null,71,3,0
,html-button-response,447,354182,0.0-447.0,511.59999990463300,,,,0,,,
,html-keyboard-response,448,355189,0.0-448.0,null,"<div style=""font-size:60px;"">+</div>",null,,,,,
,image-button-response,449,355698,0.0-449.0,null,stimuli/images_hvm10/im17.png,,,null,17,0,9
,html-button-response,450,356173,0.0-450.0,471.2999999523160,,,,0,,,
,html-keyboard-response,451,357180,0.0-451.0,null,"<div style=""font-size:60px;"">+</div>",null,,,,,
,image-button-response,452,357686,0.0-452.0,null,stimuli/images_hvm10/im22.png,,,null,22,3,1
,html-button-response,453,358220,0.0-453.0,530.7000000476840,,,,1,,,
,html-keyboard-response,454,359223,0.0-454.0,null,"<div style=""font-size:60px;"">+</div>",null,,,,,
,image-button-response,455,359731,0.0-455.0,null,stimuli/images_hvm10/im147.png,,,null,147,8,7
,html-button-response,456,360324,0.0-456.0,589.0999999046330,,,,1,,,
,html-keyboard-response,457,361330,0.0-457.0,null,"<div style=""font-size:60px;"">+</div>",null,,,,,
,image-button-response,458,361838,0.0-458.0,null,stimuli/images_hvm10/im195.png,,,null,195,6,9
,html-button-response,459,362554,0.0-459.0,713,,,,1,,,
,html-keyboard-response,460,363559,0.0-460.0,null,"<div style=""font-size:60px;"">+</div>",null,,,,,
,image-button-response,461,364066,0.0-461.0,null,stimuli/images_hvm10/im131.png,,,null,131,4,6
,html-button-response,462,364783,0.0-462.0,713.8999998569490,,,,1,,,
,html-keyboard-response,463,365790,0.0-463.0,null,"<div style=""font-size:60px;"">+</div>",null,,,,,
,image-button-response,464,366297,0.0-464.0,null,stimuli/images_hvm10/im182.png,,,null,182,9,8
,html-button-response,465,366775,0.0-465.0,474.89999985694900,,,,0,,,
,html-keyboard-response,466,367781,0.0-466.0,null,"<div style=""font-size:60px;"">+</div>",null,,,,,
,image-button-response,467,368289,0.0-467.0,null,stimuli/images_hvm10/im122.png,,,null,122,9,6
,html-button-response,468,368990,0.0-468.0,697.8000001907350,,,,1,,,
,html-keyboard-response,469,369997,0.0-469.0,null,"<div style=""font-size:60px;"">+</div>",null,,,,,
,image-button-response,470,370503,0.0-470.0,null,stimuli/images_hvm10/im35.png,,,null,35,1,6
,html-button-response,471,371030,0.0-471.0,524.3000001907350,,,,0,,,
,html-keyboard-response,472,372033,0.0-472.0,null,"<div style=""font-size:60px;"">+</div>",null,,,,,
,image-button-response,473,372537,0.0-473.0,null,stimuli/images_hvm10/im91.png,,,null,91,1,4
,html-button-response,474,373114,0.0-474.0,574.3999998569490,,,,0,,,
,html-keyboard-response,475,374118,0.0-475.0,null,"<div style=""font-size:60px;"">+</div>",null,,,,,
,image-button-response,476,374627,0.0-476.0,null,stimuli/images_hvm10/im176.png,,,null,176,8,2
,html-button-response,477,375489,0.0-477.0,859.4000000953670,,,,0,,,
,html-keyboard-response,478,376497,0.0-478.0,null,"<div style=""font-size:60px;"">+</div>",null,,,,,
,image-button-response,479,377001,0.0-479.0,null,stimuli/images_hvm10/im19.png,,,null,19,0,4
,html-button-response,480,377560,0.0-480.0,556.0999999046330,,,,0,,,
,html-keyboard-response,481,378567,0.0-481.0,null,"<div style=""font-size:60px;"">+</div>",null,,,,,
,image-button-response,482,379076,0.0-482.0,null,stimuli/images_hvm10/im180.png,,,null,180,2,9
,html-button-response,483,379536,0.0-483.0,457.2999999523160,,,,1,,,
,html-keyboard-response,484,380542,0.0-484.0,null,"<div style=""font-size:60px;"">+</div>",null,,,,,
,image-button-response,485,381047,0.0-485.0,null,stimuli/images_hvm10/im10.png,,,null,10,0,1
,html-button-response,486,381547,0.0-486.0,496.40000009536700,,,,0,,,
,html-keyboard-response,487,382554,0.0-487.0,null,"<div style=""font-size:60px;"">+</div>",null,,,,,
,image-button-response,488,383058,0.0-488.0,null,stimuli/images_hvm10/im171.png,,,null,171,4,8
,html-button-response,489,383536,0.0-489.0,475.10000014305100,,,,1,,,
,html-keyboard-response,490,384542,0.0-490.0,null,"<div style=""font-size:60px;"">+</div>",null,,,,,
,image-button-response,491,385049,0.0-491.0,null,stimuli/images_hvm10/im178.png,,,null,178,8,5
,html-button-response,492,385544,0.0-492.0,491.2000000476840,,,,0,,,
,html-keyboard-response,493,386551,0.0-493.0,null,"<div style=""font-size:60px;"">+</div>",null,,,,,
,image-button-response,494,387058,0.0-494.0,null,stimuli/images_hvm10/im124.png,,,null,124,6,4
,html-button-response,495,387577,0.0-495.0,514.9000000953670,,,,0,,,
,html-keyboard-response,496,388579,0.0-496.0,null,"<div style=""font-size:60px;"">+</div>",null,,,,,
,image-button-response,497,389088,0.0-497.0,null,stimuli/images_hvm10/im75.png,,,null,75,7,3
,html-button-response,498,389640,0.0-498.0,549,,,,1,,,
,html-keyboard-response,499,390648,0.0-499.0,null,"<div style=""font-size:60px;"">+</div>",null,,,,,
,image-button-response,500,391153,0.0-500.0,null,stimuli/images_hvm10/im6.png,,,null,6,9,0
,html-button-response,501,391687,0.0-501.0,530.6000001430510,,,,1,,,
,html-keyboard-response,502,392692,0.0-502.0,null,"<div style=""font-size:60px;"">+</div>",null,,,,,
,image-button-response,503,393201,0.0-503.0,null,stimuli/images_hvm10/im183.png,,,null,183,2,9
,html-button-response,504,393672,0.0-504.0,467.7000000476840,,,,1,,,
,html-keyboard-response,505,394679,0.0-505.0,null,"<div style=""font-size:60px;"">+</div>",null,,,,,
,image-button-response,506,395188,0.0-506.0,null,stimuli/images_hvm10/im151.png,,,null,151,7,3
,html-button-response,507,395648,0.0-507.0,456.80000019073500,,,,0,,,
,html-keyboard-response,508,396654,0.0-508.0,null,"<div style=""font-size:60px;"">+</div>",null,,,,,
,image-button-response,509,397163,0.0-509.0,null,stimuli/images_hvm10/im193.png,,,null,193,6,9
,html-button-response,510,397639,0.0-510.0,473.2000000476840,,,,1,,,
,html-keyboard-response,511,398642,0.0-511.0,null,"<div style=""font-size:60px;"">+</div>",null,,,,,
,image-button-response,512,399151,0.0-512.0,null,stimuli/images_hvm10/im13.png,,,null,13,2,0
,html-button-response,513,399688,0.0-513.0,533.4000000953670,,,,1,,,
,html-keyboard-response,514,400692,0.0-514.0,null,"<div style=""font-size:60px;"">+</div>",null,,,,,
,image-button-response,515,401200,0.0-515.0,null,stimuli/images_hvm10/im157.png,,,null,157,7,8
,html-button-response,516,401758,0.0-516.0,554.3999998569490,,,,0,,,
,html-keyboard-response,517,402766,0.0-517.0,null,"<div style=""font-size:60px;"">+</div>",null,,,,,
,image-button-response,518,403273,0.0-518.0,null,stimuli/images_hvm10/im134.png,,,null,134,9,6
,html-button-response,519,403980,0.0-519.0,703.4000000953670,,,,1,,,
,html-keyboard-response,520,404984,0.0-520.0,null,"<div style=""font-size:60px;"">+</div>",null,,,,,
,image-button-response,521,405493,0.0-521.0,null,stimuli/images_hvm10/im92.png,,,null,92,4,8
,html-button-response,522,406019,0.0-522.0,522.5,,,,0,,,
,html-keyboard-response,523,407026,0.0-523.0,null,"<div style=""font-size:60px;"">+</div>",null,,,,,
,image-button-response,524,407535,0.0-524.0,null,stimuli/images_hvm10/im101.png,,,null,101,9,5
,html-button-response,525,408072,0.0-525.0,534.5999999046330,,,,1,,,
,html-keyboard-response,526,409079,0.0-526.0,null,"<div style=""font-size:60px;"">+</div>",null,,,,,
,image-button-response,527,409588,0.0-527.0,null,stimuli/images_hvm10/im135.png,,,null,135,5,6
,html-button-response,528,410193,0.0-528.0,601.3999998569490,,,,1,,,
,html-keyboard-response,529,411197,0.0-529.0,null,"<div style=""font-size:60px;"">+</div>",null,,,,,
,image-button-response,530,411706,0.0-530.0,null,stimuli/images_hvm10/im57.png,,,null,57,2,0
,html-button-response,531,412169,0.0-531.0,459.7000000476840,,,,0,,,
,html-keyboard-response,532,413176,0.0-532.0,null,"<div style=""font-size:60px;"">+</div>",null,,,,,
,image-button-response,533,413685,0.0-533.0,null,stimuli/images_hvm10/im7.png,,,null,7,1,0
,html-button-response,534,414224,0.0-534.0,535.5,,,,0,,,
,html-keyboard-response,535,415229,0.0-535.0,null,"<div style=""font-size:60px;"">+</div>",null,,,,,
,image-button-response,536,415737,0.0-536.0,null,stimuli/images_hvm10/im190.png,,,null,190,1,9
,html-button-response,537,416416,0.0-537.0,674.5,,,,1,,,
,html-keyboard-response,538,417422,0.0-538.0,null,"<div style=""font-size:60px;"">+</div>",null,,,,,
,image-button-response,539,417929,0.0-539.0,null,stimuli/images_hvm10/im106.png,,,null,106,4,5
,html-button-response,540,418462,0.0-540.0,529.3999998569490,,,,1,,,
,html-keyboard-response,541,419465,0.0-541.0,null,"<div style=""font-size:60px;"">+</div>",null,,,,,
,image-button-response,542,419974,0.0-542.0,null,stimuli/images_hvm10/im28.png,,,null,28,1,4
,html-button-response,543,420464,0.0-543.0,486.5,,,,0,,,
,html-keyboard-response,544,421467,0.0-544.0,null,"<div style=""font-size:60px;"">+</div>",null,,,,,
,image-button-response,545,421976,0.0-545.0,null,stimuli/images_hvm10/im150.png,,,null,150,7,0
,html-button-response,546,422606,0.0-546.0,625.5999999046330,,,,0,,,
,html-keyboard-response,547,423613,0.0-547.0,null,"<div style=""font-size:60px;"">+</div>",null,,,,,
,image-button-response,548,424119,0.0-548.0,null,stimuli/images_hvm10/im67.png,,,null,67,8,3
,html-button-response,549,424717,0.0-549.0,594.1000001430510,,,,0,,,
,html-keyboard-response,550,425725,0.0-550.0,null,"<div style=""font-size:60px;"">+</div>",null,,,,,
,image-button-response,551,426229,0.0-551.0,null,stimuli/images_hvm10/im76.png,,,null,76,3,1
,html-button-response,552,426716,0.0-552.0,482.7000000476840,,,,0,,,
,html-keyboard-response,553,427719,0.0-553.0,null,"<div style=""font-size:60px;"">+</div>",null,,,,,
,image-button-response,554,428227,0.0-554.0,null,stimuli/images_hvm10/im198.png,,,null,198,4,9
,html-button-response,555,428730,0.0-555.0,499.90000009536700,,,,1,,,
,html-keyboard-response,556,429734,0.0-556.0,null,"<div style=""font-size:60px;"">+</div>",null,,,,,
,image-button-response,557,430243,0.0-557.0,null,stimuli/images_hvm10/im18.png,,,null,18,0,1
,html-button-response,558,430786,0.0-558.0,539.4000000953670,,,,1,,,
,html-keyboard-response,559,431793,0.0-559.0,null,"<div style=""font-size:60px;"">+</div>",null,,,,,
,image-button-response,560,432302,0.0-560.0,null,stimuli/images_hvm10/im83.png,,,null,83,2,4
,html-button-response,561,433026,0.0-561.0,720.2999999523160,,,,1,,,
,html-keyboard-response,562,434034,0.0-562.0,null,"<div style=""font-size:60px;"">+</div>",null,,,,,
,image-button-response,563,434541,0.0-563.0,null,stimuli/images_hvm10/im40.png,,,null,40,2,9
,html-button-response,564,435192,0.0-564.0,646.5,,,,1,,,
,html-keyboard-response,565,436197,0.0-565.0,null,"<div style=""font-size:60px;"">+</div>",null,,,,,
,image-button-response,566,436706,0.0-566.0,null,stimuli/images_hvm10/im136.png,,,null,136,1,6
,html-button-response,567,437335,0.0-567.0,624.7999999523160,,,,1,,,
,html-keyboard-response,568,438343,0.0-568.0,null,"<div style=""font-size:60px;"">+</div>",null,,,,,
,image-button-response,569,438851,0.0-569.0,null,stimuli/images_hvm10/im194.png,,,null,194,9,8
,html-button-response,570,439326,0.0-570.0,471.7999999523160,,,,0,,,
,html-keyboard-response,571,440333,0.0-571.0,null,"<div style=""font-size:60px;"">+</div>",null,,,,,
,image-button-response,572,440837,0.0-572.0,null,stimuli/images_hvm10/im90.png,,,null,90,0,4
,html-button-response,573,441372,0.0-573.0,532.5999999046330,,,,1,,,
,html-keyboard-response,574,442379,0.0-574.0,null,"<div style=""font-size:60px;"">+</div>",null,,,,,
,image-button-response,575,442887,0.0-575.0,null,stimuli/images_hvm10/im12.png,,,null,12,5,0
,html-button-response,576,443476,0.0-576.0,585.7000000476840,,,,1,,,
,html-keyboard-response,577,444478,0.0-577.0,null,"<div style=""font-size:60px;"">+</div>",null,,,,,
,image-button-response,578,444985,0.0-578.0,null,stimuli/images_hvm10/im74.png,,,null,74,3,0
,html-button-response,579,445459,0.0-579.0,470.7999999523160,,,,0,,,
,html-keyboard-response,580,446464,0.0-580.0,null,"<div style=""font-size:60px;"">+</div>",null,,,,,
,image-button-response,581,446972,0.0-581.0,null,stimuli/images_hvm10/im160.png,,,null,160,8,5
,html-button-response,582,448181,0.0-582.0,1205.5999999046300,,,,0,,,
,html-keyboard-response,583,449189,0.0-583.0,null,"<div style=""font-size:60px;"">+</div>",null,,,,,
,image-button-response,584,449696,0.0-584.0,null,stimuli/images_hvm10/im126.png,,,null,126,6,4
,html-button-response,585,450308,0.0-585.0,608.8999998569490,,,,0,,,
,html-keyboard-response,586,451312,0.0-586.0,null,"<div style=""font-size:60px;"">+</div>",null,,,,,
,image-button-response,587,451818,0.0-587.0,null,stimuli/images_hvm10/im187.png,,,null,187,1,9
,html-button-response,588,452300,0.0-588.0,478.09999990463300,,,,1,,,
,html-keyboard-response,589,453306,0.0-589.0,null,"<div style=""font-size:60px;"">+</div>",null,,,,,
,image-button-response,590,453813,0.0-590.0,null,stimuli/images_hvm10/im185.png,,,null,185,9,8
,html-button-response,591,454331,0.0-591.0,515.1000001430510,,,,0,,,
,html-keyboard-response,592,455335,0.0-592.0,null,"<div style=""font-size:60px;"">+</div>",null,,,,,
,image-button-response,593,455844,0.0-593.0,null,stimuli/images_hvm10/im164.png,,,null,164,5,8
,html-button-response,594,456442,0.0-594.0,595.2999999523160,,,,0,,,
,html-keyboard-response,595,457449,0.0-595.0,null,"<div style=""font-size:60px;"">+</div>",null,,,,,
,image-button-response,596,457956,0.0-596.0,null,stimuli/images_hvm10/im142.png,,,null,142,4,7
,html-button-response,597,458601,0.0-597.0,641.5,,,,1,,,
,html-keyboard-response,598,459608,0.0-598.0,null,"<div style=""font-size:60px;"">+</div>",null,,,,,
,image-button-response,599,460112,0.0-599.0,null,stimuli/images_hvm10/im181.png,,,null,181,9,7
,html-button-response,600,460602,0.0-600.0,485.89999985694900,,,,0,,,