"success","trial_type","trial_index","time_elapsed","internal_node_id","rt","stimulus","key_press","responses","button_pressed","images","left_choice","right_choice"
"true","fullscreen","0","2512","0.0-0.0","","","","","","","",""
"","html-keyboard-response","1","3030","0.0-1.0","516","Welcome to the experiment. Press any key to begin.","32","","","","",""
"","survey-html-form","2","25170","0.0-2.0","22137","","","{""p_id"":""5872"",""age"":""20"",""handedness"":""right"",""sex"":""male"",""other_sex"":""""}","","","",""
"","html-keyboard-response","3","27920","0.0-3.0","2748","<p>Please fixate at the center '+' sign which will appear once you press any key. Then, <strong> an image </strong> will be shown in the center of the screen.</p><p>The image will contain an object.This will be followed by a <strong> Choice Screen </strong> containing two objects. Please choose the option <strong>[Click on the object]</strong> that you think was present in the image<p>Press any key to begin.</p>","32","","","","",""
"","html-keyboard-response","4","30930","0.0-4.0","null","<div style=""font-size:60px;"">+</div>","null","","","","",""
"","image-button-response","5","31433","0.0-5.0","null","stimuli/images_hvm10/im0.png","","","null","0","8","0"
"","html-button-response","6","32039","0.0-6.0","603","","","","1","","",""
"","html-keyboard-response","7","33044","0.0-7.0","null","<div style=""font-size:60px;"">+</div>","null","","","","",""
"","image-button-response","8","33550","0.0-8.0","null","stimuli/images_hvm10/im129.png","","","null","129","6","8"
"","html-button-response","9","34445","0.0-9.0","892","","","","0","","",""
"","html-keyboard-response","10","35448","0.0-10.0","null","<div style=""font-size:60px;"">+</div>","null","","","","",""
"","image-button-response","11","35952","0.0-11.0","null","stimuli/images_hvm10/im128.png","","","null","128","2","6"
"","html-button-response","12","38769","0.0-12.0","2816","","","","0","","",""
"","html-keyboard-response","13","39774","0.0-13.0","null","<div style=""font-size:60px;"">+</div>","null","","","","",""
"","image-button-response","14","40280","0.0-14.0","null","stimuli/images_hvm10/im17.png","","","null","17","0","3"
"","html-button-response","15","41534","0.0-15.0","1253","","","","0","","",""
"","html-keyboard-response","16","42538","0.0-16.0","null","<div style=""font-size:60px;"">+</div>","null","","","","",""
"","image-button-response","17","43042","0.0-17.0","null","stimuli/images_hvm10/im81.png","","","null","81","4","6"
"","html-button-response","18","43613","0.0-18.0","571","","","","0","","",""
"","html-keyboard-response","19","44617","0.0-19.0","null","<div style=""font-size:60px;"">+</div>","null","","","","",""
"","image-button-response","20","45121","0.0-20.0","null","stimuli/images_hvm10/im105.png","","","null","105","5","8"
"","html-button-response","21","45740","0.0-21.0","617","","","","0","","",""
"","html-keyboard-response","22","46741","0.0-22.0","null","<div style=""font-size:60px;"">+</div>","null","","","","",""
"","image-button-response","23","47246","0.0-23.0","null","stimuli/images_hvm10/im132.png","","","null","132","6","4"
"","html-button-response","24","47882","0.0-24.0","635","","","","0","","",""
"","html-keyboard-response","25","48887","0.0-25.0","null","<div style=""font-size:60px;"">+</div>","null","","","","",""
"","image-button-response","26","49388","0.0-26.0","null","stimuli/images_hvm10/im145.png","","","null","145","7","2"
"","html-button-response","27","49911","0.0-27.0","523","","","","0","","",""
"","html-keyboard-response","28","50917","0.0-28.0","null","<div style=""font-size:60px;"">+</div>","null","","","","",""
"","image-button-response","29","51418","0.0-29.0","null","stimuli/images_hvm10/im135.png","","","null","135","3","6"
"","html-button-response","30","52255","0.0-30.0","835","","","","1","","",""
"","html-keyboard-response","31","53260","0.0-31.0","null","<div style=""font-size:60px;"">+</div>","null","","","","",""
"","image-button-response","32","53766","0.0-32.0","null","stimuli/images_hvm10/im152.png","","","null","152","7","0"
"","html-button-response","33","54325","0.0-33.0","557","","","","0","","",""
"","html-keyboard-response","34","55329","0.0-34.0","null","<div style=""font-size:60px;"">+</div>","null","","","","",""
"","image-button-response","35","55831","0.0-35.0","null","stimuli/images_hvm10/im153.png","","","null","153","7","1"
"","html-button-response","36","56386","0.0-36.0","555","","","","0","","",""
"","html-keyboard-response","37","57391","0.0-37.0","null","<div style=""font-size:60px;"">+</div>","null","","","","",""
"","image-button-response","38","57893","0.0-38.0","null","stimuli/images_hvm10/im104.png","","","null","104","7","5"
"","html-button-response","39","58474","0.0-39.0","579","","","","1","","",""
"","html-keyboard-response","40","59477","0.0-40.0","null","<div style=""font-size:60px;"">+</div>","null","","","","",""
"","image-button-response","41","59979","0.0-41.0","null","stimuli/images_hvm10/im130.png","","","null","130","6","1"
"","html-button-response","42","60663","0.0-42.0","683","","","","1","","",""
"","html-keyboard-response","43","61666","0.0-43.0","null","<div style=""font-size:60px;"">+</div>","null","","","","",""
"","image-button-response","44","62170","0.0-44.0","null","stimuli/images_hvm10/im131.png","","","null","131","9","6"
"","html-button-response","45","62765","0.0-45.0","593","","","","1","","",""
"","html-keyboard-response","46","63767","0.0-46.0","null","<div style=""font-size:60px;"">+</div>","null","","","","",""
"","image-button-response","47","64269","0.0-47.0","null","stimuli/images_hvm10/im16.png","","","null","16","0","2"
"","html-button-response","48","64827","0.0-48.0","556","","","","0","","",""
"","html-keyboard-response","49","65832","0.0-49.0","null","<div style=""font-size:60px;"">+</div>","null","","","","",""
"","image-button-response","50","66333","0.0-50.0","null","stimuli/images_hvm10/im133.png","","","null","133","6","3"
"","html-button-response","51","66961","0.0-51.0","627","","","","0","","",""
"","html-keyboard-response","52","67966","0.0-52.0","null","<div style=""font-size:60px;"">+</div>","null","","","","",""
"","image-button-response","53","68469","0.0-53.0","null","stimuli/images_hvm10/im106.png","","","null","106","5","4"
"","html-button-response","54","68943","0.0-54.0","473","","","","0","","",""
"","html-keyboard-response","55","69944","0.0-55.0","null","<div style=""font-size:60px;"">+</div>","null","","","","",""
"","image-button-response","56","70450","0.0-56.0","null","stimuli/images_hvm10/im134.png","","","null","134","1","6"
"","html-button-response","57","71237","0.0-57.0","785","","","","1","","",""
"","html-keyboard-response","58","72242","0.0-58.0","null","<div style=""font-size:60px;"">+</div>","null","","","","",""
"","image-button-response","59","72746","0.0-59.0","null","stimuli/images_hvm10/im144.png","","","null","144","7","6"
"","html-button-response","60","73240","0.0-60.0","492","","","","0","","",""
"","html-keyboard-response","61","74242","0.0-61.0","null","<div style=""font-size:60px;"">+</div>","null","","","","",""
"","image-button-response","62","74745","0.0-62.0","null","stimuli/images_hvm10/im136.png","","","null","136","6","4"
"","html-button-response","63","75558","0.0-63.0","811","","","","0","","",""
"","html-keyboard-response","64","76562","0.0-64.0","null","<div style=""font-size:60px;"">+</div>","null","","","","",""
"","image-button-response","65","77064","0.0-65.0","null","stimuli/images_hvm10/im1.png","","","null","1","0","3"
"","html-button-response","66","77564","0.0-66.0","499","","","","0","","",""
"","html-keyboard-response","67","78570","0.0-67.0","null","<div style=""font-size:60px;"">+</div>","null","","","","",""
"","image-button-response","68","79072","0.0-68.0","null","stimuli/images_hvm10/im137.png","","","null","137","6","2"
"","html-button-response","69","79690","0.0-69.0","617","","","","0","","",""
"","html-keyboard-response","70","80694","0.0-70.0","null","<div style=""font-size:60px;"">+</div>","null","","","","",""
"","image-button-response","71","81196","0.0-71.0","null","stimuli/images_hvm10/im18.png","","","null","18","8","0"
"","html-button-response","72","81809","0.0-72.0","612","","","","1","","",""
"","html-keyboard-response","73","82814","0.0-73.0","null","<div style=""font-size:60px;"">+</div>","null","","","","",""
"","image-button-response","74","83319","0.0-74.0","null","stimuli/images_hvm10/im138.png","","","null","138","6","9"
"","html-button-response","75","83774","0.0-75.0","455","","","","0","","",""
"","html-keyboard-response","76","84775","0.0-76.0","null","<div style=""font-size:60px;"">+</div>","null","","","","",""
"","image-button-response","77","85278","0.0-77.0","null","stimuli/images_hvm10/im139.png","","","null","139","6","3"
"","html-button-response","78","85860","0.0-78.0","581","","","","0","","",""
"","html-keyboard-response","79","86865","0.0-79.0","null","<div style=""font-size:60px;"">+</div>","null","","","","",""
"","image-button-response","80","87367","0.0-80.0","null","stimuli/images_hvm10/im142.png","","","null","142","7","4"
"","html-button-response","81","87987","0.0-81.0","620","","","","0","","",""
"","html-keyboard-response","82","88990","0.0-82.0","null","<div style=""font-size:60px;"">+</div>","null","","","","",""
"","image-button-response","83","89492","0.0-83.0","null","stimuli/images_hvm10/im19.png","","","null","19","0","2"
"","html-button-response","84","90065","0.0-84.0","571","","","","0","","",""
"","html-keyboard-response","85","91069","0.0-85.0","null","<div style=""font-size:60px;"">+</div>","null","","","","",""
"","image-button-response","86","91574","0.0-86.0","null","stimuli/images_hvm10/im155.png","","","null","155","2","7"
"","html-button-response","87","92215","0.0-87.0","640","","","","1","","",""
"","html-keyboard-response","88","93219","0.0-88.0","null","<div style=""font-size:60px;"">+</div>","null","","","","",""
"","image-button-response","89","93722","0.0-89.0","null","stimuli/images_hvm10/im89.png","","","null","89","0","4"
"","html-button-response","90","94750","0.0-90.0","1029","","","","0","","",""
"","html-keyboard-response","91","95752","0.0-91.0","null","<div style=""font-size:60px;"">+</div>","null","","","","",""
"","image-button-response","92","96256","0.0-92.0","null","stimuli/images_hvm10/im146.png","","","null","146","2","7"
"","html-button-response","93","96877","0.0-93.0","618","","","","1","","",""
"","html-keyboard-response","94","97882","0.0-94.0","null","<div style=""font-size:60px;"">+</div>","null","","","","",""
"","image-button-response","95","98383","0.0-95.0","null","stimuli/images_hvm10/im21.png","","","null","21","1","4"
"","html-button-response","96","98954","0.0-96.0","570","","","","0","","",""
"","html-keyboard-response","97","99959","0.0-97.0","null","<div style=""font-size:60px;"">+</div>","null","","","","",""
"","image-button-response","98","100460","0.0-98.0","null","stimuli/images_hvm10/im23.png","","","null","23","3","1"
"","html-button-response","99","100976","0.0-99.0","514","","","","1","","",""
"","html-keyboard-response","100","101979","0.0-100.0","null","<div style=""font-size:60px;"">+</div>","null","","","","",""
"","image-button-response","101","102483","0.0-101.0","null","stimuli/images_hvm10/im20.png","","","null","20","3","1"
"","html-button-response","102","102990","0.0-102.0","505","","","","1","","",""
"","html-keyboard-response","103","103991","0.0-103.0","null","<div style=""font-size:60px;"">+</div>","null","","","","",""
"","image-button-response","104","104495","0.0-104.0","null","stimuli/images_hvm10/im97.png","","","null","97","0","4"
"","html-button-response","105","105313","0.0-105.0","816","","","","0","","",""
"","html-keyboard-response","106","106318","0.0-106.0","null","<div style=""font-size:60px;"">+</div>","null","","","","",""
"","image-button-response","107","106820","0.0-107.0","null","stimuli/images_hvm10/im154.png","","","null","154","7","1"
"","html-button-response","108","107456","0.0-108.0","633","","","","0","","",""
"","html-keyboard-response","109","108460","0.0-109.0","null","<div style=""font-size:60px;"">+</div>","null","","","","",""
"","image-button-response","110","108963","0.0-110.0","null","stimuli/images_hvm10/im66.png","","","null","66","1","3"
"","html-button-response","111","109653","0.0-111.0","689","","","","1","","",""
"","html-keyboard-response","112","110656","0.0-112.0","null","<div style=""font-size:60px;"">+</div>","null","","","","",""
"","image-button-response","113","111158","0.0-113.0","null","stimuli/images_hvm10/im143.png","","","null","143","9","7"
"","html-button-response","114","111972","0.0-114.0","814","","","","1","","",""
"","html-keyboard-response","115","112979","0.0-115.0","null","<div style=""font-size:60px;"">+</div>","null","","","","",""
"","image-button-response","116","113482","0.0-116.0","null","stimuli/images_hvm10/im141.png","","","null","141","7","3"
"","html-button-response","117","114107","0.0-117.0","623","","","","0","","",""
"","html-keyboard-response","118","115111","0.0-118.0","null","<div style=""font-size:60px;"">+</div>","null","","","","",""
"","image-button-response","119","115613","0.0-119.0","null","stimuli/images_hvm10/im88.png","","","null","88","4","7"
"","html-button-response","120","116264","0.0-120.0","651","","","","1","","",""
"","html-keyboard-response","121","117268","0.0-121.0","null","<div style=""font-size:60px;"">+</div>","null","","","","",""
"","image-button-response","122","117771","0.0-122.0","null","stimuli/images_hvm10/im158.png","","","null","158","7","4"
"","html-button-response","123","118374","0.0-123.0","603","","","","0","","",""
"","html-keyboard-response","124","119378","0.0-124.0","null","<div style=""font-size:60px;"">+</div>","null","","","","",""
"","image-button-response","125","119880","0.0-125.0","null","stimuli/images_hvm10/im147.png","","","null","147","7","3"
"","html-button-response","126","120419","0.0-126.0","538","","","","0","","",""
"","html-keyboard-response","127","121422","0.0-127.0","null","<div style=""font-size:60px;"">+</div>","null","","","","",""
"","image-button-response","128","121925","0.0-128.0","null","stimuli/images_hvm10/im140.png","","","null","140","6","7"
"","html-button-response","129","122506","0.0-129.0","579","","","","1","","",""
"","html-keyboard-response","130","123511","0.0-130.0","null","<div style=""font-size:60px;"">+</div>","null","","","","",""
"","image-button-response","131","124018","0.0-131.0","null","stimuli/images_hvm10/im157.png","","","null","157","7","8"
"","html-button-response","132","124624","0.0-132.0","605","","","","0","","",""
"","html-keyboard-response","133","125628","0.0-133.0","null","<div style=""font-size:60px;"">+</div>","null","","","","",""
"","image-button-response","134","126131","0.0-134.0","null","stimuli/images_hvm10/im96.png","","","null","96","4","7"
"","html-button-response","135","126847","0.0-135.0","715","","","","1","","",""
"","html-keyboard-response","136","127851","0.0-136.0","null","<div style=""font-size:60px;"">+</div>","null","","","","",""
"","image-button-response","137","128355","0.0-137.0","null","stimuli/images_hvm10/im107.png","","","null","107","8","5"
"","html-button-response","138","128957","0.0-138.0","601","","","","1","","",""
"","html-keyboard-response","139","129961","0.0-139.0","null","<div style=""font-size:60px;"">+</div>","null","","","","",""
"","image-button-response","140","130466","0.0-140.0","null","stimuli/images_hvm10/im149.png","","","null","149","7","9"
"","html-button-response","141","131010","0.0-141.0","542","","","","0","","",""
"","html-keyboard-response","142","132015","0.0-142.0","null","<div style=""font-size:60px;"">+</div>","null","","","","",""
"","image-button-response","143","132521","0.0-143.0","null","stimuli/images_hvm10/im22.png","","","null","22","4","1"
"","html-button-response","144","133072","0.0-144.0","550","","","","1","","",""
"","html-keyboard-response","145","134073","0.0-145.0","null","<div style=""font-size:60px;"">+</div>","null","","","","",""
"","image-button-response","146","134577","0.0-146.0","null","stimuli/images_hvm10/im151.png","","","null","151","2","7"
"","html-button-response","147","135222","0.0-147.0","642","","","","1","","",""
"","html-keyboard-response","148","136228","0.0-148.0","null","<div style=""font-size:60px;"">+</div>","null","","","","",""
"","image-button-response","149","136731","0.0-149.0","null","stimuli/images_hvm10/im156.png","","","null","156","9","7"
"","html-button-response","150","137437","0.0-150.0","704","","","","1","","",""
"","html-keyboard-response","151","138439","0.0-151.0","null","<div style=""font-size:60px;"">+</div>","null","","","","",""
"","image-button-response","152","138945","0.0-152.0","null","stimuli/images_hvm10/im108.png","","","null","108","0","5"
"","html-button-response","153","139655","0.0-153.0","708","","","","1","","",""
"","html-keyboard-response","154","140659","0.0-154.0","null","<div style=""font-size:60px;"">+</div>","null","","","","",""
"","image-button-response","155","141165","0.0-155.0","null","stimuli/images_hvm10/im28.png","","","null","28","1","8"
"","html-button-response","156","141781","0.0-156.0","613","","","","0","","",""
"","html-keyboard-response","157","142788","0.0-157.0","null","<div style=""font-size:60px;"">+</div>","null","","","","",""
"","image-button-response","158","143294","0.0-158.0","null","stimuli/images_hvm10/im2.png","","","null","2","4","0"
"","html-button-response","159","143882","0.0-159.0","587","","","","1","","",""
"","html-keyboard-response","160","144887","0.0-160.0","null","<div style=""font-size:60px;"">+</div>","null","","","","",""
"","image-button-response","161","145391","0.0-161.0","null","stimuli/images_hvm10/im159.png","","","null","159","7","4"
"","html-button-response","162","146867","0.0-162.0","1475","","","","0","","",""
"","html-keyboard-response","163","147870","0.0-163.0","null","<div style=""font-size:60px;"">+</div>","null","","","","",""
"","image-button-response","164","148373","0.0-164.0","null","stimuli/images_hvm10/im68.png","","","null","68","3","8"
"","html-button-response","165","149090","0.0-165.0","716","","","","0","","",""
"","html-keyboard-response","166","150092","0.0-166.0","null","<div style=""font-size:60px;"">+</div>","null","","","","",""
"","image-button-response","167","150594","0.0-167.0","null","stimuli/images_hvm10/im148.png","","","null","148","3","7"
"","html-button-response","168","151199","0.0-168.0","603","","","","1","","",""
"","html-keyboard-response","169","152203","0.0-169.0","null","<div style=""font-size:60px;"">+</div>","null","","","","",""
"","image-button-response","170","152705","0.0-170.0","null","stimuli/images_hvm10/im150.png","","","null","150","9","7"
"","html-button-response","171","153405","0.0-171.0","699","","","","1","","",""
"","html-keyboard-response","172","154407","0.0-172.0","null","<div style=""font-size:60px;"">+</div>","null","","","","",""
"","image-button-response","173","154911","0.0-173.0","null","stimuli/images_hvm10/im164.png","","","null","164","2","8"
"","html-button-response","174","155620","0.0-174.0","707","","","","0","","",""
"","html-keyboard-response","175","156625","0.0-175.0","null","<div style=""font-size:60px;"">+</div>","null","","","","",""
"","image-button-response","176","157126","0.0-176.0","null","stimuli/images_hvm10/im176.png","","","null","176","6","8"
"","html-button-response","177","157737","0.0-177.0","611","","","","0","","",""
"","html-keyboard-response","178","158743","0.0-178.0","null","<div style=""font-size:60px;"">+</div>","null","","","","",""
"","image-button-response","179","159248","0.0-179.0","null","stimuli/images_hvm10/im91.png","","","null","91","4","7"
"","html-button-response","180","159969","0.0-180.0","720","","","","0","","",""
"","html-keyboard-response","181","160974","0.0-181.0","null","<div style=""font-size:60px;"">+</div>","null","","","","",""
"","image-button-response","182","161474","0.0-182.0","null","stimuli/images_hvm10/im29.png","","","null","29","8","1"
"","html-button-response","183","162005","0.0-183.0","531","","","","1","","",""
"","html-keyboard-response","184","163010","0.0-184.0","null","<div style=""font-size:60px;"">+</div>","null","","","","",""
"","image-button-response","185","163512","0.0-185.0","null","stimuli/images_hvm10/im3.png","","","null","3","0","8"
"","html-button-response","186","164125","0.0-186.0","611","","","","0","","",""
"","html-keyboard-response","187","165127","0.0-187.0","null","<div style=""font-size:60px;"">+</div>","null","","","","",""
"","image-button-response","188","165630","0.0-188.0","null","stimuli/images_hvm10/im8.png","","","null","8","6","0"
"","html-button-response","189","166154","0.0-189.0","522","","","","1","","",""
"","html-keyboard-response","190","167159","0.0-190.0","null","<div style=""font-size:60px;"">+</div>","null","","","","",""
"","image-button-response","191","167661","0.0-191.0","null","stimuli/images_hvm10/im25.png","","","null","25","3","1"
"","html-button-response","192","168224","0.0-192.0","562","","","","1","","",""
"","html-keyboard-response","193","169225","0.0-193.0","null","<div style=""font-size:60px;"">+</div>","null","","","","",""
"","image-button-response","194","169728","0.0-194.0","null","stimuli/images_hvm10/im161.png","","","null","161","8","0"
"","html-button-response","195","170262","0.0-195.0","532","","","","0","","",""
"","html-keyboard-response","196","171265","0.0-196.0","null","<div style=""font-size:60px;"">+</div>","null","","","","",""
"","image-button-response","197","171771","0.0-197.0","null","stimuli/images_hvm10/im185.png","","","null","185","3","9"
"","html-button-response","198","172480","0.0-198.0","708","","","","1","","",""
"","html-keyboard-response","199","173485","0.0-199.0","null","<div style=""font-size:60px;"">+</div>","null","","","","",""
"","image-button-response","200","173991","0.0-200.0","null","stimuli/images_hvm10/im4.png","","","null","4","2","0"
"","html-button-response","201","174510","0.0-201.0","518","","","","1","","",""
"","html-keyboard-response","202","175516","0.0-202.0","null","<div style=""font-size:60px;"">+</div>","null","","","","",""
"","image-button-response","203","176021","0.0-203.0","null","stimuli/images_hvm10/im26.png","","","null","26","1","4"
"","html-button-response","204","176612","0.0-204.0","589","","","","0","","",""
"","html-keyboard-response","205","177617","0.0-205.0","null","<div style=""font-size:60px;"">+</div>","null","","","","",""
"","image-button-response","206","178119","0.0-206.0","null","stimuli/images_hvm10/im184.png","","","null","184","6","9"
"","html-button-response","207","178619","0.0-207.0","499","","","","1","","",""
"","html-keyboard-response","208","179624","0.0-208.0","null","<div style=""font-size:60px;"">+</div>","null","","","","",""
"","image-button-response","209","180125","0.0-209.0","null","stimuli/images_hvm10/im24.png","","","null","24","6","1"
"","html-button-response","210","180720","0.0-210.0","593","","","","1","","",""
"","html-keyboard-response","211","181725","0.0-211.0","null","<div style=""font-size:60px;"">+</div>","null","","","","",""
"","image-button-response","212","182226","0.0-212.0","null","stimuli/images_hvm10/im27.png","","","null","27","1","7"
"","html-button-response","213","182822","0.0-213.0","594","","","","0","","",""
"","html-keyboard-response","214","183826","0.0-214.0","null","<div style=""font-size:60px;"">+</div>","null","","","","",""
"","image-button-response","215","184328","0.0-215.0","null","stimuli/images_hvm10/im30.png","","","null","30","9","1"
"","html-button-response","216","184933","0.0-216.0","603","","","","1","","",""
"","html-keyboard-response","217","185937","0.0-217.0","null","<div style=""font-size:60px;"">+</div>","null","","","","",""
"","image-button-response","218","186439","0.0-218.0","null","stimuli/images_hvm10/im179.png","","","null","179","8","7"
"","html-button-response","219","187308","0.0-219.0","866","","","","1","","",""
"","html-keyboard-response","220","188311","0.0-220.0","null","<div style=""font-size:60px;"">+</div>","null","","","","",""
"","image-button-response","221","188814","0.0-221.0","null","stimuli/images_hvm10/im186.png","","","null","186","9","2"
"","html-button-response","222","190180","0.0-222.0","1365","","","","0","","",""
"","html-keyboard-response","223","191182","0.0-223.0","null","<div style=""font-size:60px;"">+</div>","null","","","","",""
"","image-button-response","224","191687","0.0-224.0","null","stimuli/images_hvm10/im187.png","","","null","187","7","9"
"","html-button-response","225","192226","0.0-225.0","537","","","","1","","",""
"","html-keyboard-response","226","193228","0.0-226.0","null","<div style=""font-size:60px;"">+</div>","null","","","","",""
"","image-button-response","227","193730","0.0-227.0","null","stimuli/images_hvm10/im9.png","","","null","9","0","6"
"","html-button-response","228","194273","0.0-228.0","542","","","","0","","",""
"","html-keyboard-response","229","195276","0.0-229.0","null","<div style=""font-size:60px;"">+</div>","null","","","","",""
"","image-button-response","230","195779","0.0-230.0","null","stimuli/images_hvm10/im31.png","","","null","31","3","1"
"","html-button-response","231","196319","0.0-231.0","539","","","","1","","",""
"","html-keyboard-response","232","197324","0.0-232.0","null","<div style=""font-size:60px;"">+</div>","null","","","","",""
"","image-button-response","233","197829","0.0-233.0","null","stimuli/images_hvm10/im11.png","","","null","11","0","8"
"","html-button-response","234","198333","0.0-234.0","503","","","","0","","",""
"","html-keyboard-response","235","199339","0.0-235.0","null","<div style=""font-size:60px;"">+</div>","null","","","","",""
"","image-button-response","236","199847","0.0-236.0","null","stimuli/images_hvm10/im103.png","","","null","103","8","5"
"","html-button-response","237","200387","0.0-237.0","538","","","","1","","",""
"","html-keyboard-response","238","201392","0.0-238.0","null","<div style=""font-size:60px;"">+</div>","null","","","","",""
"","image-button-response","239","201900","0.0-239.0","null","stimuli/images_hvm10/im162.png","","","null","162","3","8"
"","html-button-response","240","202425","0.0-240.0","524","","","","1","","",""
"","html-keyboard-response","241","203431","0.0-241.0","null","<div style=""font-size:60px;"">+</div>","null","","","","",""
"","image-button-response","242","203939","0.0-242.0","null","stimuli/images_hvm10/im177.png","","","null","177","8","1"
"","html-button-response","243","204322","0.0-243.0","382","","","","1","","",""
"","html-keyboard-response","244","205329","0.0-244.0","null","<div style=""font-size:60px;"">+</div>","null","","","","",""
"","image-button-response","245","205835","0.0-245.0","null","stimuli/images_hvm10/im80.png","","","null","80","5","4"
"","html-button-response","246","206489","0.0-246.0","651","","","","1","","",""
"","html-keyboard-response","247","207494","0.0-247.0","null","<div style=""font-size:60px;"">+</div>","null","","","","",""
"","image-button-response","248","207995","0.0-248.0","null","stimuli/images_hvm10/im90.png","","","null","90","4","5"
"","html-button-response","249","208575","0.0-249.0","578","","","","0","","",""
"","html-keyboard-response","250","209578","0.0-250.0","null","<div style=""font-size:60px;"">+</div>","null","","","","",""
"","image-button-response","251","210081","0.0-251.0","null","stimuli/images_hvm10/im178.png","","","null","178","7","8"
"","html-button-response","252","210717","0.0-252.0","634","","","","1","","",""
"","html-keyboard-response","253","211722","0.0-253.0","null","<div style=""font-size:60px;"">+</div>","null","","","","",""
"","image-button-response","254","212223","0.0-254.0","null","stimuli/images_hvm10/im183.png","","","null","183","5","9"
"","html-button-response","255","212740","0.0-255.0","514","","","","1","","",""
"","html-keyboard-response","256","213742","0.0-256.0","null","<div style=""font-size:60px;"">+</div>","null","","","","",""
"","image-button-response","257","214243","0.0-257.0","null","stimuli/images_hvm10/im166.png","","","null","166","8","6"
"","html-button-response","258","214785","0.0-258.0","539","","","","0","","",""
"","html-keyboard-response","259","215786","0.0-259.0","null","<div style=""font-size:60px;"">+</div>","null","","","","",""
"","image-button-response","260","216288","0.0-260.0","null","stimuli/images_hvm10/im10.png","","","null","10","0","8"
"","html-button-response","261","216775","0.0-261.0","485","","","","0","","",""
"","html-keyboard-response","262","217781","0.0-262.0","null","<div style=""font-size:60px;"">+</div>","null","","","","",""
"","image-button-response","263","218282","0.0-263.0","null","stimuli/images_hvm10/im189.png","","","null","189","2","9"
"","html-button-response","264","218804","0.0-264.0","521","","","","1","","",""
"","html-keyboard-response","265","219806","0.0-265.0","null","<div style=""font-size:60px;"">+</div>","null","","","","",""
"","image-button-response","266","220310","0.0-266.0","null","stimuli/images_hvm10/im188.png","","","null","188","9","7"
"","html-button-response","267","220882","0.0-267.0","571","","","","0","","",""
"","html-keyboard-response","268","221887","0.0-268.0","null","<div style=""font-size:60px;"">+</div>","null","","","","",""
"","image-button-response","269","222391","0.0-269.0","null","stimuli/images_hvm10/im6.png","","","null","6","4","0"
"","html-button-response","270","222913","0.0-270.0","521","","","","1","","",""
"","html-keyboard-response","271","223916","0.0-271.0","null","<div style=""font-size:60px;"">+</div>","null","","","","",""
"","image-button-response","272","224417","0.0-272.0","null","stimuli/images_hvm10/im94.png","","","null","94","4","6"
"","html-button-response","273","224974","0.0-273.0","555","","","","0","","",""
"","html-keyboard-response","274","225978","0.0-274.0","null","<div style=""font-size:60px;"">+</div>","null","","","","",""
"","image-button-response","275","226483","0.0-275.0","null","stimuli/images_hvm10/im160.png","","","null","160","8","5"
"","html-button-response","276","227108","0.0-276.0","624","","","","0","","",""
"","html-keyboard-response","277","228112","0.0-277.0","null","<div style=""font-size:60px;"">+</div>","null","","","","",""
"","image-button-response","278","228613","0.0-278.0","null","stimuli/images_hvm10/im182.png","","","null","182","0","9"
"","html-button-response","279","229194","0.0-279.0","578","","","","1","","",""
"","html-keyboard-response","280","230197","0.0-280.0","null","<div style=""font-size:60px;"">+</div>","null","","","","",""
"","image-button-response","281","230699","0.0-281.0","null","stimuli/images_hvm10/im98.png","","","null","98","4","0"
"","html-button-response","282","231319","0.0-282.0","620","","","","0","","",""
"","html-keyboard-response","283","232325","0.0-283.0","null","<div style=""font-size:60px;"">+</div>","null","","","","",""
"","image-button-response","284","232826","0.0-284.0","null","stimuli/images_hvm10/im5.png","","","null","5","1","0"
"","html-button-response","285","233653","0.0-285.0","826","","","","1","","",""
"","html-keyboard-response","286","234656","0.0-286.0","null","<div style=""font-size:60px;"">+</div>","null","","","","",""
"","image-button-response","287","235157","0.0-287.0","null","stimuli/images_hvm10/im181.png","","","null","181","9","5"
"","html-button-response","288","235731","0.0-288.0","573","","","","0","","",""
"","html-keyboard-response","289","236735","0.0-289.0","null","<div style=""font-size:60px;"">+</div>","null","","","","",""
"","image-button-response","290","237241","0.0-290.0","null","stimuli/images_hvm10/im165.png","","","null","165","6","8"
"","html-button-response","291","237965","0.0-291.0","722","","","","1","","",""
"","html-keyboard-response","292","238970","0.0-292.0","null","<div style=""font-size:60px;"">+</div>","null","","","","",""
"","image-button-response","293","239471","0.0-293.0","null","stimuli/images_hvm10/im167.png","","","null","167","2","8"
"","html-button-response","294","240123","0.0-294.0","651","","","","1","","",""
"","html-keyboard-response","295","241128","0.0-295.0","null","<div style=""font-size:60px;"">+</div>","null","","","","",""
"","image-button-response","296","241633","0.0-296.0","null","stimuli/images_hvm10/im180.png","","","null","180","9","4"
"","html-button-response","297","242153","0.0-297.0","518","","","","0","","",""
"","html-keyboard-response","298","243157","0.0-298.0","null","<div style=""font-size:60px;"">+</div>","null","","","","",""
"","image-button-response","299","243660","0.0-299.0","null","stimuli/images_hvm10/im7.png","","","null","7","5","0"
"","html-button-response","300","244198","0.0-300.0","538","","","","1","","",""
"","html-keyboard-response","301","245203","0.0-301.0","null","<div style=""font-size:60px;"">+</div>","null","","","","",""
"","image-button-response","302","245705","0.0-302.0","null","stimuli/images_hvm10/im13.png","","","null","13","0","4"
"","html-button-response","303","246276","0.0-303.0","569","","","","0","","",""
"","html-keyboard-response","304","247281","0.0-304.0","null","<div style=""font-size:60px;"">+</div>","null","","","","",""
"","image-button-response","305","247787","0.0-305.0","null","stimuli/images_hvm10/im100.png","","","null","100","0","5"
"","html-button-response","306","248257","0.0-306.0","468","","","","1","","",""
"","html-keyboard-response","307","249262","0.0-307.0","null","<div style=""font-size:60px;"">+</div>","null","","","","",""
"","image-button-response","308","249765","0.0-308.0","null","stimuli/images_hvm10/im163.png","","","null","163","7","8"
"","html-button-response","309","250367","0.0-309.0","599","","","","1","","",""
"","html-keyboard-response","310","251371","0.0-310.0","null","<div style=""font-size:60px;"">+</div>","null","","","","",""
"","image-button-response","311","251874","0.0-311.0","null","stimuli/images_hvm10/im190.png","","","null","190","9","7"
"","html-button-response","312","252445","0.0-312.0","570","","","","0","","",""
"","html-keyboard-response","313","253450","0.0-313.0","null","<div style=""font-size:60px;"">+</div>","null","","","","",""
"","image-button-response","314","253951","0.0-314.0","null","stimuli/images_hvm10/im191.png","","","null","191","2","9"
"","html-button-response","315","254547","0.0-315.0","594","","","","1","","",""
"","html-keyboard-response","316","255551","0.0-316.0","null","<div style=""font-size:60px;"">+</div>","null","","","","",""
"","image-button-response","317","256053","0.0-317.0","null","stimuli/images_hvm10/im169.png","","","null","169","3","8"
"","html-button-response","318","256617","0.0-318.0","562","","","","1","","",""
"","html-keyboard-response","319","257620","0.0-319.0","null","<div style=""font-size:60px;"">+</div>","null","","","","",""
"","image-button-response","320","258123","0.0-320.0","null","stimuli/images_hvm10/im64.png","","","null","64","1","3"
"","html-button-response","321","258840","0.0-321.0","715","","","","1","","",""
"","html-keyboard-response","322","259844","0.0-322.0","null","<div style=""font-size:60px;"">+</div>","null","","","","",""
"","image-button-response","323","260346","0.0-323.0","null","stimuli/images_hvm10/im170.png","","","null","170","3","8"
"","html-button-response","324","260886","0.0-324.0","539","","","","1","","",""
"","html-keyboard-response","325","261889","0.0-325.0","null","<div style=""font-size:60px;"">+</div>","null","","","","",""
"","image-button-response","326","262392","0.0-326.0","null","stimuli/images_hvm10/im168.png","","","null","168","3","8"
"","html-button-response","327","262891","0.0-327.0","497","","","","1","","",""
"","html-keyboard-response","328","263895","0.0-328.0","null","<div style=""font-size:60px;"">+</div>","null","","","","",""
"","image-button-response","329","264398","0.0-329.0","null","stimuli/images_hvm10/im109.png","","","null","109","5","4"
"","html-button-response","330","265073","0.0-330.0","672","","","","0","","",""
"","html-keyboard-response","331","266078","0.0-331.0","null","<div style=""font-size:60px;"">+</div>","null","","","","",""
"","image-button-response","332","266583","0.0-332.0","null","stimuli/images_hvm10/im171.png","","","null","171","8","1"
"","html-button-response","333","267263","0.0-333.0","679","","","","0","","",""
"","html-keyboard-response","334","268267","0.0-334.0","null","<div style=""font-size:60px;"">+</div>","null","","","","",""
"","image-button-response","335","268769","0.0-335.0","null","stimuli/images_hvm10/im172.png","","","null","172","3","8"
"","html-button-response","336","269330","0.0-336.0","558","","","","1","","",""
"","html-keyboard-response","337","270334","0.0-337.0","null","<div style=""font-size:60px;"">+</div>","null","","","","",""
"","image-button-response","338","270836","0.0-338.0","null","stimuli/images_hvm10/im173.png","","","null","173","2","8"
"","html-button-response","339","271271","0.0-339.0","433","","","","1","","",""
"","html-keyboard-response","340","272280","0.0-340.0","null","<div style=""font-size:60px;"">+</div>","null","","","","",""
"","image-button-response","341","272783","0.0-341.0","null","stimuli/images_hvm10/im175.png","","","null","175","8","6"
"","html-button-response","342","273461","0.0-342.0","677","","","","0","","",""
"","html-keyboard-response","343","274467","0.0-343.0","null","<div style=""font-size:60px;"">+</div>","null","","","","",""
"","image-button-response","344","274968","0.0-344.0","null","stimuli/images_hvm10/im12.png","","","null","12","0","2"
"","html-button-response","345","275516","0.0-345.0","546","","","","0","","",""
"","html-keyboard-response","346","276522","0.0-346.0","null","<div style=""font-size:60px;"">+</div>","null","","","","",""
"","image-button-response","347","277027","0.0-347.0","null","stimuli/images_hvm10/im174.png","","","null","174","8","6"
"","html-button-response","348","277626","0.0-348.0","598","","","","0","","",""
"","html-keyboard-response","349","278631","0.0-349.0","null","<div style=""font-size:60px;"">+</div>","null","","","","",""
"","image-button-response","350","279134","0.0-350.0","null","stimuli/images_hvm10/im192.png","","","null","192","1","9"
"","html-button-response","351","279760","0.0-351.0","625","","","","1","","",""
"","html-keyboard-response","352","280765","0.0-352.0","null","<div style=""font-size:60px;"">+</div>","null","","","","",""
"","image-button-response","353","281270","0.0-353.0","null","stimuli/images_hvm10/im65.png","","","null","65","4","3"
"","html-button-response","354","282143","0.0-354.0","872","","","","0","","",""
"","html-keyboard-response","355","283149","0.0-355.0","null","<div style=""font-size:60px;"">+</div>","null","","","","",""
"","image-button-response","356","283655","0.0-356.0","null","stimuli/images_hvm10/im15.png","","","null","15","0","2"
"","html-button-response","357","284197","0.0-357.0","539","","","","0","","",""
"","html-keyboard-response","358","285202","0.0-358.0","null","<div style=""font-size:60px;"">+</div>","null","","","","",""
"","image-button-response","359","285705","0.0-359.0","null","stimuli/images_hvm10/im195.png","","","null","195","9","7"
"","html-button-response","360","286757","0.0-360.0","1050","","","","0","","",""
"","html-keyboard-response","361","287758","0.0-361.0","null","<div style=""font-size:60px;"">+</div>","null","","","","",""
"","image-button-response","362","288259","0.0-362.0","null","stimuli/images_hvm10/im14.png","","","null","14","9","0"
"","html-button-response","363","288787","0.0-363.0","527","","","","1","","",""
"","html-keyboard-response","364","289792","0.0-364.0","null","<div style=""font-size:60px;"">+</div>","null","","","","",""
"","image-button-response","365","290296","0.0-365.0","null","stimuli/images_hvm10/im194.png","","","null","194","9","7"
"","html-button-response","366","290849","0.0-366.0","552","","","","0","","",""
"","html-keyboard-response","367","291854","0.0-367.0","null","<div style=""font-size:60px;"">+</div>","null","","","","",""
"","image-button-response","368","292358","0.0-368.0","null","stimuli/images_hvm10/im197.png","","","null","197","9","7"
"","html-button-response","369","292847","0.0-369.0","488","","","","0","","",""
"","html-keyboard-response","370","293853","0.0-370.0","null","<div style=""font-size:60px;"">+</div>","null","","","","",""
"","image-button-response","371","294354","0.0-371.0","null","stimuli/images_hvm10/im101.png","","","null","101","2","5"
"","html-button-response","372","294781","0.0-372.0","426","","","","1","","",""
"","html-keyboard-response","373","295782","0.0-373.0","null","<div style=""font-size:60px;"">+</div>","null","","","","",""
"","image-button-response","374","296288","0.0-374.0","null","stimuli/images_hvm10/im48.png","","","null","48","2","4"
"","html-button-response","375","297051","0.0-375.0","762","","","","0","","",""
"","html-keyboard-response","376","298057","0.0-376.0","null","<div style=""font-size:60px;"">+</div>","null","","","","",""
"","image-button-response","377","298564","0.0-377.0","null","stimuli/images_hvm10/im196.png","","","null","196","9","1"
"","html-button-response","378","299113","0.0-378.0","547","","","","0","","",""
"","html-keyboard-response","379","300117","0.0-379.0","null","<div style=""font-size:60px;"">+</div>","null","","","","",""
"","image-button-response","380","300621","0.0-380.0","null","stimuli/images_hvm10/im35.png","","","null","35","9","1"
"","html-button-response","381","301263","0.0-381.0","641","","","","1","","",""
"","html-keyboard-response","382","302266","0.0-382.0","null","<div style=""font-size:60px;"">+</div>","null","","","","",""
"","image-button-response","383","302772","0.0-383.0","null","stimuli/images_hvm10/im193.png","","","null","193","6","9"
"","html-button-response","384","303336","0.0-384.0","562","","","","1","","",""
"","html-keyboard-response","385","304339","0.0-385.0","null","<div style=""font-size:60px;"">+</div>","null","","","","",""
"","image-button-response","386","304841","0.0-386.0","null","stimuli/images_hvm10/im198.png","","","null","198","9","5"
"","html-button-response","387","305462","0.0-387.0","620","","","","0","","",""
"","html-keyboard-response","388","306467","0.0-388.0","null","<div style=""font-size:60px;"">+</div>","null","","","","",""
"","image-button-response","389","306973","0.0-389.0","null","stimuli/images_hvm10/im82.png","","","null","82","4","2"
"","html-button-response","390","307540","0.0-390.0","567","","","","1","","",""
"","html-keyboard-response","391","308545","0.0-391.0","null","<div style=""font-size:60px;"">+</div>","null","","","","",""
"","image-button-response","392","309047","0.0-392.0","null","stimuli/images_hvm10/im49.png","","","null","49","0","2"
"","html-button-response","393","309690","0.0-393.0","644","","","","1","","",""
"","html-keyboard-response","394","310696","0.0-394.0","null","<div style=""font-size:60px;"">+</div>","null","","","","",""
"","image-button-response","395","311201","0.0-395.0","null","stimuli/images_hvm10/im69.png","","","null","69","3","8"
"","html-button-response","396","311785","0.0-396.0","583","","","","0","","",""
"","html-keyboard-response","397","312789","0.0-397.0","null","<div style=""font-size:60px;"">+</div>","null","","","","",""
"","image-button-response","398","313291","0.0-398.0","null","stimuli/images_hvm10/im60.png","","","null","60","3","7"
"","html-button-response","399","313903","0.0-399.0","609","","","","0","","",""
"","html-keyboard-response","400","314907","0.0-400.0","null","<div style=""font-size:60px;"">+</div>","null","","","","",""
"","image-button-response","401","315409","0.0-401.0","null","stimuli/images_hvm10/im51.png","","","null","51","9","2"
"","html-button-response","402","316246","0.0-402.0","835","","","","1","","",""
"","html-keyboard-response","403","317249","0.0-403.0","null","<div style=""font-size:60px;"">+</div>","null","","","","",""
"","image-button-response","404","317755","0.0-404.0","null","stimuli/images_hvm10/im99.png","","","null","99","4","1"
"","html-button-response","405","318336","0.0-405.0","580","","","","0","","",""
"","html-keyboard-response","406","319340","0.0-406.0","null","<div style=""font-size:60px;"">+</div>","null","","","","",""
"","image-button-response","407","319842","0.0-407.0","null","stimuli/images_hvm10/im110.png","","","null","110","7","5"
"","html-button-response","408","320261","0.0-408.0","419","","","","1","","",""
"","html-keyboard-response","409","321262","0.0-409.0","null","<div style=""font-size:60px;"">+</div>","null","","","","",""
"","image-button-response","410","321766","0.0-410.0","null","stimuli/images_hvm10/im102.png","","","null","102","8","5"
"","html-button-response","411","322115","0.0-411.0","348","","","","1","","",""
"","html-keyboard-response","412","323119","0.0-412.0","null","<div style=""font-size:60px;"">+</div>","null","","","","",""
"","image-button-response","413","323623","0.0-413.0","null","stimuli/images_hvm10/im32.png","","","null","32","5","1"
"","html-button-response","414","324232","0.0-414.0","609","","","","1","","",""
"","html-keyboard-response","415","325237","0.0-415.0","null","<div style=""font-size:60px;"">+</div>","null","","","","",""
"","image-button-response","416","325739","0.0-416.0","null","stimuli/images_hvm10/im50.png","","","null","50","3","2"
"","html-button-response","417","326334","0.0-417.0","594","","","","1","","",""
"","html-keyboard-response","418","327339","0.0-418.0","null","<div style=""font-size:60px;"">+</div>","null","","","","",""
"","image-button-response","419","327842","0.0-419.0","null","stimuli/images_hvm10/im111.png","","","null","111","2","5"
"","html-button-response","420","328324","0.0-420.0","479","","","","1","","",""
"","html-keyboard-response","421","329332","0.0-421.0","null","<div style=""font-size:60px;"">+</div>","null","","","","",""
"","image-button-response","422","329835","0.0-422.0","null","stimuli/images_hvm10/im115.png","","","null","115","5","6"
"","html-button-response","423","330683","0.0-423.0","847","","","","1","","",""
"","html-keyboard-response","424","331686","0.0-424.0","null","<div style=""font-size:60px;"">+</div>","null","","","","",""
"","image-button-response","425","332190","0.0-425.0","null","stimuli/images_hvm10/im83.png","","","null","83","7","4"
"","html-button-response","426","332841","0.0-426.0","649","","","","1","","",""
"","html-keyboard-response","427","333849","0.0-427.0","null","<div style=""font-size:60px;"">+</div>","null","","","","",""
"","image-button-response","428","334354","0.0-428.0","null","stimuli/images_hvm10/im55.png","","","null","55","6","2"
"","html-button-response","429","335392","0.0-429.0","1035","","","","0","","",""
"","html-keyboard-response","430","336394","0.0-430.0","null","<div style=""font-size:60px;"">+</div>","null","","","","",""
"","image-button-response","431","336898","0.0-431.0","null","stimuli/images_hvm10/im70.png","","","null","70","1","3"
"","html-button-response","432","337519","0.0-432.0","618","","","","1","","",""
"","html-keyboard-response","433","338523","0.0-433.0","null","<div style=""font-size:60px;"">+</div>","null","","","","",""
"","image-button-response","434","339025","0.0-434.0","null","stimuli/images_hvm10/im33.png","","","null","33","0","1"
"","html-button-response","435","339525","0.0-435.0","499","","","","1","","",""
"","html-keyboard-response","436","340528","0.0-436.0","null","<div style=""font-size:60px;"">+</div>","null","","","","",""
"","image-button-response","437","341029","0.0-437.0","null","stimuli/images_hvm10/im112.png","","","null","112","9","5"
"","html-button-response","438","341458","0.0-438.0","428","","","","1","","",""
"","html-keyboard-response","439","342460","0.0-439.0","null","<div style=""font-size:60px;"">+</div>","null","","","","",""
"","image-button-response","440","342966","0.0-440.0","null","stimuli/images_hvm10/im63.png","","","null","63","2","3"
"","html-button-response","441","343617","0.0-441.0","650","","","","1","","",""
"","html-keyboard-response","442","344622","0.0-442.0","null","<div style=""font-size:60px;"">+</div>","null","","","","",""
"","image-button-response","443","345124","0.0-443.0","null","stimuli/images_hvm10/im41.png","","","null","41","7","2"
"","html-button-response","444","345727","0.0-444.0","602","","","","1","","",""
"","html-keyboard-response","445","346731","0.0-445.0","null","<div style=""font-size:60px;"">+</div>","null","","","","",""
"","image-button-response","446","347238","0.0-446.0","null","stimuli/images_hvm10/im92.png","","","null","92","7","4"
"","html-button-response","447","347829","0.0-447.0","589","","","","1","","",""
"","html-keyboard-response","448","348833","0.0-448.0","null","<div style=""font-size:60px;"">+</div>","null","","","","",""
"","image-button-response","449","349336","0.0-449.0","null","stimuli/images_hvm10/im114.png","","","null","114","7","5"
"","html-button-response","450","349839","0.0-450.0","502","","","","1","","",""
"","html-keyboard-response","451","350845","0.0-451.0","null","<div style=""font-size:60px;"">+</div>","null","","","","",""
"","image-button-response","452","351346","0.0-452.0","null","stimuli/images_hvm10/im116.png","","","null","116","5","3"
"","html-button-response","453","351621","0.0-453.0","273","","","","1","","",""
"","html-keyboard-response","454","352626","0.0-454.0","null","<div style=""font-size:60px;"">+</div>","null","","","","",""
"","image-button-response","455","353127","0.0-455.0","null","stimuli/images_hvm10/im34.png","","","null","34","1","4"
"","html-button-response","456","353802","0.0-456.0","674","","","","0","","",""
"","html-keyboard-response","457","354808","0.0-457.0","null","<div style=""font-size:60px;"">+</div>","null","","","","",""
"","image-button-response","458","355310","0.0-458.0","null","stimuli/images_hvm10/im113.png","","","null","113","5","4"
"","html-button-response","459","355897","0.0-459.0","587","","","","0","","",""
"","html-keyboard-response","460","356901","0.0-460.0","null","<div style=""font-size:60px;"">+</div>","null","","","","",""
"","image-button-response","461","357407","0.0-461.0","null","stimuli/images_hvm10/im117.png","","","null","117","5","6"
"","html-button-response","462","357843","0.0-462.0","434","","","","0","","",""
"","html-keyboard-response","463","358848","0.0-463.0","null","<div style=""font-size:60px;"">+</div>","null","","","","",""
"","image-button-response","464","359355","0.0-464.0","null","stimuli/images_hvm10/im52.png","","","null","52","0","2"
"","html-button-response","465","359793","0.0-465.0","436","","","","0","","",""
"","html-keyboard-response","466","360797","0.0-466.0","null","<div style=""font-size:60px;"">+</div>","null","","","","",""
"","image-button-response","467","361299","0.0-467.0","null","stimuli/images_hvm10/im40.png","","","null","40","2","6"
"","html-button-response","468","362027","0.0-468.0","728","","","","0","","",""
"","html-keyboard-response","469","363029","0.0-469.0","null","<div style=""font-size:60px;"">+</div>","null","","","","",""
"","image-button-response","470","363531","0.0-470.0","null","stimuli/images_hvm10/im44.png","","","null","44","8","2"
"","html-button-response","471","364122","0.0-471.0","589","","","","1","","",""
"","html-keyboard-response","472","365127","0.0-472.0","null","<div style=""font-size:60px;"">+</div>","null","","","","",""
"","image-button-response","473","365632","0.0-473.0","null","stimuli/images_hvm10/im67.png","","","null","67","4","3"
"","html-button-response","474","366368","0.0-474.0","735","","","","1","","",""
"","html-keyboard-response","475","367373","0.0-475.0","null","<div style=""font-size:60px;"">+</div>","null","","","","",""
"","image-button-response","476","367874","0.0-476.0","null","stimuli/images_hvm10/im93.png","","","null","93","6","4"
"","html-button-response","477","368527","0.0-477.0","650","","","","1","","",""
"","html-keyboard-response","478","369530","0.0-478.0","null","<div style=""font-size:60px;"">+</div>","null","","","","",""
"","image-button-response","479","370033","0.0-479.0","null","stimuli/images_hvm10/im71.png","","","null","71","6","3"
"","html-button-response","480","370645","0.0-480.0","612","","","","1","","",""
"","html-keyboard-response","481","371649","0.0-481.0","null","<div style=""font-size:60px;"">+</div>","null","","","","",""
"","image-button-response","482","372151","0.0-482.0","null","stimuli/images_hvm10/im74.png","","","null","74","1","3"
"","html-button-response","483","372771","0.0-483.0","619","","","","1","","",""
"","html-keyboard-response","484","373776","0.0-484.0","null","<div style=""font-size:60px;"">+</div>","null","","","","",""
"","image-button-response","485","374280","0.0-485.0","null","stimuli/images_hvm10/im37.png","","","null","37","6","1"
"","html-button-response","486","375354","0.0-486.0","1072","","","","1","","",""
"","html-keyboard-response","487","376355","0.0-487.0","null","<div style=""font-size:60px;"">+</div>","null","","","","",""
"","image-button-response","488","376861","0.0-488.0","null","stimuli/images_hvm10/im73.png","","","null","73","3","1"
"","html-button-response","489","377529","0.0-489.0","668","","","","0","","",""
"","html-keyboard-response","490","378534","0.0-490.0","null","<div style=""font-size:60px;"">+</div>","null","","","","",""
"","image-button-response","491","379036","0.0-491.0","null","stimuli/images_hvm10/im38.png","","","null","38","1","4"
"","html-button-response","492","379503","0.0-492.0","467","","","","1","","",""
"","html-keyboard-response","493","380507","0.0-493.0","null","<div style=""font-size:60px;"">+</div>","null","","","","",""
"","image-button-response","494","381012","0.0-494.0","null","stimuli/images_hvm10/im61.png","","","null","61","8","3"
"","html-button-response","495","381557","0.0-495.0","544","","","","1","","",""
"","html-keyboard-response","496","382562","0.0-496.0","null","<div style=""font-size:60px;"">+</div>","null","","","","",""
"","image-button-response","497","383067","0.0-497.0","null","stimuli/images_hvm10/im95.png","","","null","95","6","4"
"","html-button-response","498","383612","0.0-498.0","544","","","","1","","",""
"","html-keyboard-response","499","384616","0.0-499.0","null","<div style=""font-size:60px;"">+</div>","null","","","","",""
"","image-button-response","500","385122","0.0-500.0","null","stimuli/images_hvm10/im36.png","","","null","36","1","3"
"","html-button-response","501","385834","0.0-501.0","711","","","","0","","",""
"","html-keyboard-response","502","386841","0.0-502.0","null","<div style=""font-size:60px;"">+</div>","null","","","","",""
"","image-button-response","503","387347","0.0-503.0","null","stimuli/images_hvm10/im75.png","","","null","75","7","3"
"","html-button-response","504","387945","0.0-504.0","597","","","","1","","",""
"","html-keyboard-response","505","388950","0.0-505.0","null","<div style=""font-size:60px;"">+</div>","null","","","","",""
"","image-button-response","506","389455","0.0-506.0","null","stimuli/images_hvm10/im118.png","","","null","118","2","5"
"","html-button-response","507","390296","0.0-507.0","839","","","","1","","",""
"","html-keyboard-response","508","391299","0.0-508.0","null","<div style=""font-size:60px;"">+</div>","null","","","","",""
"","image-button-response","509","391802","0.0-509.0","null","stimuli/images_hvm10/im62.png","","","null","62","2","3"
"","html-button-response","510","392399","0.0-510.0","596","","","","1","","",""
"","html-keyboard-response","511","393404","0.0-511.0","null","<div style=""font-size:60px;"">+</div>","null","","","","",""
"","image-button-response","512","393909","0.0-512.0","null","stimuli/images_hvm10/im39.png","","","null","39","1","3"
"","html-button-response","513","394538","0.0-513.0","626","","","","0","","",""
"","html-keyboard-response","514","395542","0.0-514.0","null","<div style=""font-size:60px;"">+</div>","null","","","","",""
"","image-button-response","515","396047","0.0-515.0","null","stimuli/images_hvm10/im119.png","","","null","119","0","5"
"","html-button-response","516","397732","0.0-516.0","1682","","","","1","","",""
"","html-keyboard-response","517","398738","0.0-517.0","null","<div style=""font-size:60px;"">+</div>","null","","","","",""
"","image-button-response","518","399242","0.0-518.0","null","stimuli/images_hvm10/im45.png","","","null","45","0","2"
"","html-button-response","519","399777","0.0-519.0","533","","","","1","","",""
"","html-keyboard-response","520","400782","0.0-520.0","null","<div style=""font-size:60px;"">+</div>","null","","","","",""
"","image-button-response","521","401285","0.0-521.0","null","stimuli/images_hvm10/im72.png","","","null","72","5","3"
"","html-button-response","522","401806","0.0-522.0","518","","","","1","","",""
"","html-keyboard-response","523","402811","0.0-523.0","null","<div style=""font-size:60px;"">+</div>","null","","","","",""
"","image-button-response","524","403313","0.0-524.0","null","stimuli/images_hvm10/im54.png","","","null","54","4","2"
"","html-button-response","525","403878","0.0-525.0","563","","","","1","","",""
"","html-keyboard-response","526","404882","0.0-526.0","null","<div style=""font-size:60px;"">+</div>","null","","","","",""
"","image-button-response","527","405390","0.0-527.0","null","stimuli/images_hvm10/im125.png","","","null","125","6","8"
"","html-button-response","528","405923","0.0-528.0","531","","","","1","","",""
"","html-keyboard-response","529","406928","0.0-529.0","null","<div style=""font-size:60px;"">+</div>","null","","","","",""
"","image-button-response","530","407429","0.0-530.0","null","stimuli/images_hvm10/im124.png","","","null","124","3","6"
"","html-button-response","531","407913","0.0-531.0","482","","","","1","","",""
"","html-keyboard-response","532","408914","0.0-532.0","null","<div style=""font-size:60px;"">+</div>","null","","","","",""
"","image-button-response","533","409418","0.0-533.0","null","stimuli/images_hvm10/im127.png","","","null","127","0","6"
"","html-button-response","534","410096","0.0-534.0","678","","","","1","","",""
"","html-keyboard-response","535","411102","0.0-535.0","null","<div style=""font-size:60px;"">+</div>","null","","","","",""
"","image-button-response","536","411605","0.0-536.0","null","stimuli/images_hvm10/im121.png","","","null","121","6","5"
"","html-button-response","537","412247","0.0-537.0","640","","","","0","","",""
"","html-keyboard-response","538","413252","0.0-538.0","null","<div style=""font-size:60px;"">+</div>","null","","","","",""
"","image-button-response","539","413761","0.0-539.0","null","stimuli/images_hvm10/im126.png","","","null","126","6","9"
"","html-button-response","540","414348","0.0-540.0","587","","","","0","","",""
"","html-keyboard-response","541","415354","0.0-541.0","null","<div style=""font-size:60px;"">+</div>","null","","","","",""
"","image-button-response","542","415857","0.0-542.0","null","stimuli/images_hvm10/im77.png","","","null","77","1","3"
"","html-button-response","543","416539","0.0-543.0","682","","","","1","","",""
"","html-keyboard-response","544","417542","0.0-544.0","null","<div style=""font-size:60px;"">+</div>","null","","","","",""
"","image-button-response","545","418047","0.0-545.0","null","stimuli/images_hvm10/im53.png","","","null","53","7","2"
"","html-button-response","546","418505","0.0-546.0","457","","","","1","","",""
"","html-keyboard-response","547","419506","0.0-547.0","null","<div style=""font-size:60px;"">+</div>","null","","","","",""
"","image-button-response","548","420011","0.0-548.0","null","stimuli/images_hvm10/im85.png","","","null","85","2","4"
"","html-button-response","549","421058","0.0-549.0","1045","","","","0","","",""
"","html-keyboard-response","550","422060","0.0-550.0","null","<div style=""font-size:60px;"">+</div>","null","","","","",""
"","image-button-response","551","422563","0.0-551.0","null","stimuli/images_hvm10/im87.png","","","null","87","4","0"
"","html-button-response","552","423064","0.0-552.0","498","","","","1","","",""
"","html-keyboard-response","553","424068","0.0-553.0","null","<div style=""font-size:60px;"">+</div>","null","","","","",""
"","image-button-response","554","424573","0.0-554.0","null","stimuli/images_hvm10/im123.png","","","null","123","3","6"
"","html-button-response","555","425134","0.0-555.0","560","","","","1","","",""
"","html-keyboard-response","556","426138","0.0-556.0","null","<div style=""font-size:60px;"">+</div>","null","","","","",""
"","image-button-response","557","426643","0.0-557.0","null","stimuli/images_hvm10/im42.png","","","null","42","8","2"
"","html-button-response","558","427219","0.0-558.0","574","","","","1","","",""
"","html-keyboard-response","559","428224","0.0-559.0","null","<div style=""font-size:60px;"">+</div>","null","","","","",""
"","image-button-response","560","428729","0.0-560.0","null","stimuli/images_hvm10/im56.png","","","null","56","2","9"
"","html-button-response","561","429359","0.0-561.0","628","","","","0","","",""
"","html-keyboard-response","562","430363","0.0-562.0","null","<div style=""font-size:60px;"">+</div>","null","","","","",""
"","image-button-response","563","430866","0.0-563.0","null","stimuli/images_hvm10/im57.png","","","null","57","2","9"
"","html-button-response","564","431429","0.0-564.0","562","","","","0","","",""
"","html-keyboard-response","565","432433","0.0-565.0","null","<div style=""font-size:60px;"">+</div>","null","","","","",""
"","image-button-response","566","432935","0.0-566.0","null","stimuli/images_hvm10/im46.png","","","null","46","2","4"
"","html-button-response","567","433495","0.0-567.0","559","","","","0","","",""
"","html-keyboard-response","568","434499","0.0-568.0","null","<div style=""font-size:60px;"">+</div>","null","","","","",""
"","image-button-response","569","435007","0.0-569.0","null","stimuli/images_hvm10/im43.png","","","null","43","2","7"
"","html-button-response","570","435710","0.0-570.0","703","","","","0","","",""
"","html-keyboard-response","571","436714","0.0-571.0","null","<div style=""font-size:60px;"">+</div>","null","","","","",""
"","image-button-response","572","437216","0.0-572.0","null","stimuli/images_hvm10/im47.png","","","null","47","2","3"
"","html-button-response","573","437886","0.0-573.0","668","","","","0","","",""
"","html-keyboard-response","574","438891","0.0-574.0","null","<div style=""font-size:60px;"">+</div>","null","","","","",""
"","image-button-response","575","439395","0.0-575.0","null","stimuli/images_hvm10/im59.png","","","null","59","2","6"
"","html-button-response","576","439900","0.0-576.0","503","","","","0","","",""
"","html-keyboard-response","577","440903","0.0-577.0","null","<div style=""font-size:60px;"">+</div>","null","","","","",""
"","image-button-response","578","441407","0.0-578.0","null","stimuli/images_hvm10/im122.png","","","null","122","9","6"
"","html-button-response","579","442051","0.0-579.0","642","","","","1","","",""
"","html-keyboard-response","580","443056","0.0-580.0","null","<div style=""font-size:60px;"">+</div>","null","","","","",""
"","image-button-response","581","443559","0.0-581.0","null","stimuli/images_hvm10/im78.png","","","null","78","3","6"
"","html-button-response","582","444250","0.0-582.0","691","","","","0","","",""
"","html-keyboard-response","583","445255","0.0-583.0","null","<div style=""font-size:60px;"">+</div>","null","","","","",""
"","image-button-response","584","445757","0.0-584.0","null","stimuli/images_hvm10/im84.png","","","null","84","3","4"
"","html-button-response","585","446352","0.0-585.0","594","","","","1","","",""
"","html-keyboard-response","586","447358","0.0-586.0","null","<div style=""font-size:60px;"">+</div>","null","","","","",""
"","image-button-response","587","447862","0.0-587.0","null","stimuli/images_hvm10/im120.png","","","null","120","6","3"
"","html-button-response","588","448856","0.0-588.0","993","","","","0","","",""
"","html-keyboard-response","589","449857","0.0-589.0","null","<div style=""font-size:60px;"">+</div>","null","","","","",""
"","image-button-response","590","450359","0.0-590.0","null","stimuli/images_hvm10/im58.png","","","null","58","6","2"
"","html-button-response","591","450838","0.0-591.0","478","","","","1","","",""
"","html-keyboard-response","592","451839","0.0-592.0","null","<div style=""font-size:60px;"">+</div>","null","","","","",""
"","image-button-response","593","452342","0.0-593.0","null","stimuli/images_hvm10/im76.png","","","null","76","2","3"
"","html-button-response","594","452964","0.0-594.0","621","","","","1","","",""
"","html-keyboard-response","595","453970","0.0-595.0","null","<div style=""font-size:60px;"">+</div>","null","","","","",""
"","image-button-response","596","454472","0.0-596.0","null","stimuli/images_hvm10/im86.png","","","null","86","4","9"
"","html-button-response","597","455147","0.0-597.0","675","","","","1","","",""
"","html-keyboard-response","598","456153","0.0-598.0","null","<div style=""font-size:60px;"">+</div>","null","","","","",""
"","image-button-response","599","456662","0.0-599.0","null","stimuli/images_hvm10/im79.png","","","null","79","3","7"
"","html-button-response","600","457250","0.0-600.0","586","","","","0","","",""
