"success","trial_type","trial_index","time_elapsed","internal_node_id","rt","stimulus","key_press","responses","button_pressed","images","left_choice","right_choice"
"true","fullscreen","0","16018","0.0-0.0","","","","","","","",""
"","html-keyboard-response","1","18059","0.0-1.0","2038","Welcome to the experiment. Press any key to begin.","13","","","","",""
"","survey-html-form","2","36622","0.0-2.0","18562","","","{""p_id"":""6882"",""age"":""19"",""handedness"":""right"",""sex"":""female"",""other_sex"":""""}","","","",""
"","html-keyboard-response","3","126327","0.0-3.0","89702","<p>Please fixate at the center '+' sign which will appear once you press any key. Then, <strong> an image </strong> will be shown in the center of the screen.</p><p>The image will contain an object.This will be followed by a <strong> Choice Screen </strong> containing two objects. Please choose the option <strong>[Click on the object]</strong> that you think was present in the image<p>Press any key to begin.</p>","32","","","","",""
"","html-keyboard-response","4","129331","0.0-4.0","null","<div style=""font-size:60px;"">+</div>","null","","","","",""
"","image-button-response","5","129835","0.0-5.0","null","stimuli/images_hvm10/im61.png","","","null","61","5","3"
"","html-button-response","6","131142","0.0-6.0","1305","","","","1","","",""
"","html-keyboard-response","7","132144","0.0-7.0","null","<div style=""font-size:60px;"">+</div>","null","","","","",""
"","image-button-response","8","132646","0.0-8.0","null","stimuli/images_hvm10/im156.png","","","null","156","7","2"
"","html-button-response","9","134347","0.0-9.0","1699","","","","0","","",""
"","html-keyboard-response","10","135348","0.0-10.0","null","<div style=""font-size:60px;"">+</div>","null","","","","",""
"","image-button-response","11","135850","0.0-11.0","null","stimuli/images_hvm10/im48.png","","","null","48","6","2"
"","html-button-response","12","138794","0.0-12.0","2942","","","","1","","",""
"","html-keyboard-response","13","139796","0.0-13.0","null","<div style=""font-size:60px;"">+</div>","null","","","","",""
"","image-button-response","14","140298","0.0-14.0","null","stimuli/images_hvm10/im193.png","","","null","193","9","3"
"","html-button-response","15","141266","0.0-15.0","965","","","","0","","",""
"","html-keyboard-response","16","142268","0.0-16.0","null","<div style=""font-size:60px;"">+</div>","null","","","","",""
"","image-button-response","17","142770","0.0-17.0","null","stimuli/images_hvm10/im196.png","","","null","196","9","2"
"","html-button-response","18","143499","0.0-18.0","726","","","","0","","",""
"","html-keyboard-response","19","144501","0.0-19.0","null","<div style=""font-size:60px;"">+</div>","null","","","","",""
"","image-button-response","20","145005","0.0-20.0","null","stimuli/images_hvm10/im70.png","","","null","70","3","9"
"","html-button-response","21","145982","0.0-21.0","974","","","","0","","",""
"","html-keyboard-response","22","146985","0.0-22.0","null","<div style=""font-size:60px;"">+</div>","null","","","","",""
"","image-button-response","23","147488","0.0-23.0","null","stimuli/images_hvm10/im177.png","","","null","177","6","8"
"","html-button-response","24","150085","0.0-24.0","2595","","","","1","","",""
"","html-keyboard-response","25","151086","0.0-25.0","null","<div style=""font-size:60px;"">+</div>","null","","","","",""
"","image-button-response","26","151588","0.0-26.0","null","stimuli/images_hvm10/im198.png","","","null","198","9","0"
"","html-button-response","27","152351","0.0-27.0","761","","","","0","","",""
"","html-keyboard-response","28","153353","0.0-28.0","null","<div style=""font-size:60px;"">+</div>","null","","","","",""
"","image-button-response","29","153856","0.0-29.0","null","stimuli/images_hvm10/im71.png","","","null","71","4","3"
"","html-button-response","30","154917","0.0-30.0","1059","","","","1","","",""
"","html-keyboard-response","31","155920","0.0-31.0","null","<div style=""font-size:60px;"">+</div>","null","","","","",""
"","image-button-response","32","156423","0.0-32.0","null","stimuli/images_hvm10/im174.png","","","null","174","8","4"
"","html-button-response","33","159418","0.0-33.0","2994","","","","0","","",""
"","html-keyboard-response","34","160421","0.0-34.0","null","<div style=""font-size:60px;"">+</div>","null","","","","",""
"","image-button-response","35","160923","0.0-35.0","null","stimuli/images_hvm10/im171.png","","","null","171","8","0"
"","html-button-response","36","161765","0.0-36.0","839.9999999999709","","","","1","","",""
"","html-keyboard-response","37","162766","0.0-37.0","null","<div style=""font-size:60px;"">+</div>","null","","","","",""
"","image-button-response","38","163269","0.0-38.0","null","stimuli/images_hvm10/im192.png","","","null","192","0","9"
"","html-button-response","39","163998","0.0-39.0","728","","","","1","","",""
"","html-keyboard-response","40","165001","0.0-40.0","null","<div style=""font-size:60px;"">+</div>","null","","","","",""
"","image-button-response","41","165503","0.0-41.0","null","stimuli/images_hvm10/im86.png","","","null","86","4","2"
"","html-button-response","42","167997","0.0-42.0","2492","","","","0","","",""
"","html-keyboard-response","43","168999","0.0-43.0","null","<div style=""font-size:60px;"">+</div>","null","","","","",""
"","image-button-response","44","169502","0.0-44.0","null","stimuli/images_hvm10/im149.png","","","null","149","7","0"
"","html-button-response","45","170175","0.0-45.0","671","","","","0","","",""
"","html-keyboard-response","46","171179","0.0-46.0","null","<div style=""font-size:60px;"">+</div>","null","","","","",""
"","image-button-response","47","171681","0.0-47.0","null","stimuli/images_hvm10/im170.png","","","null","170","3","8"
"","html-button-response","48","172471","0.0-48.0","788","","","","1","","",""
"","html-keyboard-response","49","173472","0.0-49.0","null","<div style=""font-size:60px;"">+</div>","null","","","","",""
"","image-button-response","50","173974","0.0-50.0","null","stimuli/images_hvm10/im43.png","","","null","43","7","2"
"","html-button-response","51","174755","0.0-51.0","779","","","","0","","",""
"","html-keyboard-response","52","175757","0.0-52.0","null","<div style=""font-size:60px;"">+</div>","null","","","","",""
"","image-button-response","53","176259","0.0-53.0","null","stimuli/images_hvm10/im197.png","","","null","197","9","5"
"","html-button-response","54","176859","0.0-54.0","600","","","","0","","",""
"","html-keyboard-response","55","177861","0.0-55.0","null","<div style=""font-size:60px;"">+</div>","null","","","","",""
"","image-button-response","56","178364","0.0-56.0","null","stimuli/images_hvm10/im33.png","","","null","33","7","1"
"","html-button-response","57","179304","0.0-57.0","937","","","","1","","",""
"","html-keyboard-response","58","180305","0.0-58.0","null","<div style=""font-size:60px;"">+</div>","null","","","","",""
"","image-button-response","59","180808","0.0-59.0","null","stimuli/images_hvm10/im115.png","","","null","115","5","0"
"","html-button-response","60","182639","0.0-60.0","1829.000000000029","","","","0","","",""
"","html-keyboard-response","61","183641","0.0-61.0","null","<div style=""font-size:60px;"">+</div>","null","","","","",""
"","image-button-response","62","184144","0.0-62.0","null","stimuli/images_hvm10/im104.png","","","null","104","7","5"
"","html-button-response","63","186771","0.0-63.0","2627","","","","1","","",""
"","html-keyboard-response","64","187772","0.0-64.0","null","<div style=""font-size:60px;"">+</div>","null","","","","",""
"","image-button-response","65","188273","0.0-65.0","null","stimuli/images_hvm10/im18.png","","","null","18","3","0"
"","html-button-response","66","188917","0.0-66.0","643","","","","1","","",""
"","html-keyboard-response","67","189917","0.0-67.0","null","<div style=""font-size:60px;"">+</div>","null","","","","",""
"","image-button-response","68","190419","0.0-68.0","null","stimuli/images_hvm10/im184.png","","","null","184","1","9"
"","html-button-response","69","191111","0.0-69.0","691","","","","1","","",""
"","html-keyboard-response","70","192111","0.0-70.0","null","<div style=""font-size:60px;"">+</div>","null","","","","",""
"","image-button-response","71","192612","0.0-71.0","null","stimuli/images_hvm10/im194.png","","","null","194","9","6"
"","html-button-response","72","193210","0.0-72.0","598.0000000000291","","","","0","","",""
"","html-keyboard-response","73","194212","0.0-73.0","null","<div style=""font-size:60px;"">+</div>","null","","","","",""
"","image-button-response","74","194712","0.0-74.0","null","stimuli/images_hvm10/im37.png","","","null","37","1","7"
"","html-button-response","75","198566","0.0-75.0","3857","","","","1","","",""
"","html-keyboard-response","76","199567","0.0-76.0","null","<div style=""font-size:60px;"">+</div>","null","","","","",""
"","image-button-response","77","200068","0.0-77.0","null","stimuli/images_hvm10/im12.png","","","null","12","3","0"
"","html-button-response","78","200716","0.0-78.0","647","","","","1","","",""
"","html-keyboard-response","79","201717","0.0-79.0","null","<div style=""font-size:60px;"">+</div>","null","","","","",""
"","image-button-response","80","202219","0.0-80.0","null","stimuli/images_hvm10/im98.png","","","null","98","0","4"
"","html-button-response","81","202966","0.0-81.0","746","","","","0","","",""
"","html-keyboard-response","82","203967","0.0-82.0","null","<div style=""font-size:60px;"">+</div>","null","","","","",""
"","image-button-response","83","204469","0.0-83.0","null","stimuli/images_hvm10/im49.png","","","null","49","2","6"
"","html-button-response","84","206568","0.0-84.0","2097","","","","1","","",""
"","html-keyboard-response","85","207570","0.0-85.0","null","<div style=""font-size:60px;"">+</div>","null","","","","",""
"","image-button-response","86","208071","0.0-86.0","null","stimuli/images_hvm10/im138.png","","","null","138","6","0"
"","html-button-response","87","209002","0.0-87.0","929.0000000000291","","","","0","","",""
"","html-keyboard-response","88","210004","0.0-88.0","null","<div style=""font-size:60px;"">+</div>","null","","","","",""
"","image-button-response","89","210506","0.0-89.0","null","stimuli/images_hvm10/im155.png","","","null","155","7","6"
"","html-button-response","90","211190","0.0-90.0","682.9999999999709","","","","0","","",""
"","html-keyboard-response","91","212192","0.0-91.0","null","<div style=""font-size:60px;"">+</div>","null","","","","",""
"","image-button-response","92","212695","0.0-92.0","null","stimuli/images_hvm10/im176.png","","","null","176","6","8"
"","html-button-response","93","214076","0.0-93.0","1380","","","","1","","",""
"","html-keyboard-response","94","215077","0.0-94.0","null","<div style=""font-size:60px;"">+</div>","null","","","","",""
"","image-button-response","95","215579","0.0-95.0","null","stimuli/images_hvm10/im195.png","","","null","195","5","9"
"","html-button-response","96","216246","0.0-96.0","665","","","","1","","",""
"","html-keyboard-response","97","217248","0.0-97.0","null","<div style=""font-size:60px;"">+</div>","null","","","","",""
"","image-button-response","98","217751","0.0-98.0","null","stimuli/images_hvm10/im105.png","","","null","105","0","5"
"","html-button-response","99","218416","0.0-99.0","663.0000000000291","","","","1","","",""
"","html-keyboard-response","100","219418","0.0-100.0","null","<div style=""font-size:60px;"">+</div>","null","","","","",""
"","image-button-response","101","219921","0.0-101.0","null","stimuli/images_hvm10/im143.png","","","null","143","7","1"
"","html-button-response","102","220713","0.0-102.0","791.0000000000291","","","","1","","",""
"","html-keyboard-response","103","221715","0.0-103.0","null","<div style=""font-size:60px;"">+</div>","null","","","","",""
"","image-button-response","104","222218","0.0-104.0","null","stimuli/images_hvm10/im42.png","","","null","42","2","5"
"","html-button-response","105","223411","0.0-105.0","1192.999999999971","","","","1","","",""
"","html-keyboard-response","106","224414","0.0-106.0","null","<div style=""font-size:60px;"">+</div>","null","","","","",""
"","image-button-response","107","224917","0.0-107.0","null","stimuli/images_hvm10/im99.png","","","null","99","2","4"
"","html-button-response","108","225530","0.0-108.0","611","","","","1","","",""
"","html-keyboard-response","109","226532","0.0-109.0","null","<div style=""font-size:60px;"">+</div>","null","","","","",""
"","image-button-response","110","227034","0.0-110.0","null","stimuli/images_hvm10/im78.png","","","null","78","3","5"
"","html-button-response","111","227823","0.0-111.0","787","","","","0","","",""
"","html-keyboard-response","112","228824","0.0-112.0","null","<div style=""font-size:60px;"">+</div>","null","","","","",""
"","image-button-response","113","229325","0.0-113.0","null","stimuli/images_hvm10/im95.png","","","null","95","9","4"
"","html-button-response","114","230500","0.0-114.0","1173","","","","1","","",""
"","html-keyboard-response","115","231501","0.0-115.0","null","<div style=""font-size:60px;"">+</div>","null","","","","",""
"","image-button-response","116","232004","0.0-116.0","null","stimuli/images_hvm10/im89.png","","","null","89","4","0"
"","html-button-response","117","232822","0.0-117.0","817","","","","0","","",""
"","html-keyboard-response","118","233823","0.0-118.0","null","<div style=""font-size:60px;"">+</div>","null","","","","",""
"","image-button-response","119","234326","0.0-119.0","null","stimuli/images_hvm10/im181.png","","","null","181","6","9"
"","html-button-response","120","235039","0.0-120.0","711.0000000000291","","","","1","","",""
"","html-keyboard-response","121","236041","0.0-121.0","null","<div style=""font-size:60px;"">+</div>","null","","","","",""
"","image-button-response","122","236544","0.0-122.0","null","stimuli/images_hvm10/im180.png","","","null","180","0","9"
"","html-button-response","123","237343","0.0-123.0","797","","","","1","","",""
"","html-keyboard-response","124","238345","0.0-124.0","null","<div style=""font-size:60px;"">+</div>","null","","","","",""
"","image-button-response","125","238848","0.0-125.0","null","stimuli/images_hvm10/im191.png","","","null","191","9","7"
"","html-button-response","126","239472","0.0-126.0","622","","","","0","","",""
"","html-keyboard-response","127","240475","0.0-127.0","null","<div style=""font-size:60px;"">+</div>","null","","","","",""
"","image-button-response","128","240978","0.0-128.0","null","stimuli/images_hvm10/im165.png","","","null","165","8","1"
"","html-button-response","129","242006","0.0-129.0","1027.999999999971","","","","0","","",""
"","html-keyboard-response","130","243009","0.0-130.0","null","<div style=""font-size:60px;"">+</div>","null","","","","",""
"","image-button-response","131","243512","0.0-131.0","null","stimuli/images_hvm10/im185.png","","","null","185","2","9"
"","html-button-response","132","244057","0.0-132.0","544","","","","1","","",""
"","html-keyboard-response","133","245059","0.0-133.0","null","<div style=""font-size:60px;"">+</div>","null","","","","",""
"","image-button-response","134","245561","0.0-134.0","null","stimuli/images_hvm10/im148.png","","","null","148","7","3"
"","html-button-response","135","246224","0.0-135.0","662.9999999999709","","","","0","","",""
"","html-keyboard-response","136","247226","0.0-136.0","null","<div style=""font-size:60px;"">+</div>","null","","","","",""
"","image-button-response","137","247728","0.0-137.0","null","stimuli/images_hvm10/im27.png","","","null","27","1","0"
"","html-button-response","138","248485","0.0-138.0","756","","","","0","","",""
"","html-keyboard-response","139","249488","0.0-139.0","null","<div style=""font-size:60px;"">+</div>","null","","","","",""
"","image-button-response","140","249991","0.0-140.0","null","stimuli/images_hvm10/im182.png","","","null","182","6","9"
"","html-button-response","141","250502","0.0-141.0","509.0000000000291","","","","1","","",""
"","html-keyboard-response","142","251504","0.0-142.0","null","<div style=""font-size:60px;"">+</div>","null","","","","",""
"","image-button-response","143","252006","0.0-143.0","null","stimuli/images_hvm10/im68.png","","","null","68","7","3"
"","html-button-response","144","252715","0.0-144.0","706.9999999999709","","","","1","","",""
"","html-keyboard-response","145","253717","0.0-145.0","null","<div style=""font-size:60px;"">+</div>","null","","","","",""
"","image-button-response","146","254218","0.0-146.0","null","stimuli/images_hvm10/im160.png","","","null","160","6","8"
"","html-button-response","147","254953","0.0-147.0","732.9999999999418","","","","1","","",""
"","html-keyboard-response","148","255954","0.0-148.0","null","<div style=""font-size:60px;"">+</div>","null","","","","",""
"","image-button-response","149","256457","0.0-149.0","null","stimuli/images_hvm10/im93.png","","","null","93","0","4"
"","html-button-response","150","257094","0.0-150.0","635.9999999999709","","","","0","","",""
"","html-keyboard-response","151","258095","0.0-151.0","null","<div style=""font-size:60px;"">+</div>","null","","","","",""
"","image-button-response","152","258597","0.0-152.0","null","stimuli/images_hvm10/im136.png","","","null","136","6","0"
"","html-button-response","153","259310","0.0-153.0","713","","","","0","","",""
"","html-keyboard-response","154","260312","0.0-154.0","null","<div style=""font-size:60px;"">+</div>","null","","","","",""
"","image-button-response","155","260815","0.0-155.0","null","stimuli/images_hvm10/im50.png","","","null","50","2","9"
"","html-button-response","156","261509","0.0-156.0","692","","","","0","","",""
"","html-keyboard-response","157","262511","0.0-157.0","null","<div style=""font-size:60px;"">+</div>","null","","","","",""
"","image-button-response","158","263013","0.0-158.0","null","stimuli/images_hvm10/im188.png","","","null","188","9","6"
"","html-button-response","159","263644","0.0-159.0","629","","","","0","","",""
"","html-keyboard-response","160","264646","0.0-160.0","null","<div style=""font-size:60px;"">+</div>","null","","","","",""
"","image-button-response","161","265149","0.0-161.0","null","stimuli/images_hvm10/im164.png","","","null","164","8","5"
"","html-button-response","162","265709","0.0-162.0","559","","","","0","","",""
"","html-keyboard-response","163","266710","0.0-163.0","null","<div style=""font-size:60px;"">+</div>","null","","","","",""
"","image-button-response","164","267212","0.0-164.0","null","stimuli/images_hvm10/im15.png","","","null","15","4","0"
"","html-button-response","165","267927","0.0-165.0","713","","","","1","","",""
"","html-keyboard-response","166","268929","0.0-166.0","null","<div style=""font-size:60px;"">+</div>","null","","","","",""
"","image-button-response","167","269430","0.0-167.0","null","stimuli/images_hvm10/im30.png","","","null","30","8","1"
"","html-button-response","168","270240","0.0-168.0","809","","","","1","","",""
"","html-keyboard-response","169","271241","0.0-169.0","null","<div style=""font-size:60px;"">+</div>","null","","","","",""
"","image-button-response","170","271744","0.0-170.0","null","stimuli/images_hvm10/im76.png","","","null","76","3","5"
"","html-button-response","171","272491","0.0-171.0","746","","","","0","","",""
"","html-keyboard-response","172","273493","0.0-172.0","null","<div style=""font-size:60px;"">+</div>","null","","","","",""
"","image-button-response","173","273995","0.0-173.0","null","stimuli/images_hvm10/im19.png","","","null","19","0","6"
"","html-button-response","174","274640","0.0-174.0","642","","","","0","","",""
"","html-keyboard-response","175","275642","0.0-175.0","null","<div style=""font-size:60px;"">+</div>","null","","","","",""
"","image-button-response","176","276145","0.0-176.0","null","stimuli/images_hvm10/im152.png","","","null","152","9","7"
"","html-button-response","177","276973","0.0-177.0","827","","","","1","","",""
"","html-keyboard-response","178","277975","0.0-178.0","null","<div style=""font-size:60px;"">+</div>","null","","","","",""
"","image-button-response","179","278477","0.0-179.0","null","stimuli/images_hvm10/im183.png","","","null","183","1","9"
"","html-button-response","180","279185","0.0-180.0","706","","","","1","","",""
"","html-keyboard-response","181","280187","0.0-181.0","null","<div style=""font-size:60px;"">+</div>","null","","","","",""
"","image-button-response","182","280690","0.0-182.0","null","stimuli/images_hvm10/im17.png","","","null","17","2","0"
"","html-button-response","183","281339","0.0-183.0","647","","","","1","","",""
"","html-keyboard-response","184","282341","0.0-184.0","null","<div style=""font-size:60px;"">+</div>","null","","","","",""
"","image-button-response","185","282843","0.0-185.0","null","stimuli/images_hvm10/im157.png","","","null","157","7","0"
"","html-button-response","186","283494","0.0-186.0","649","","","","0","","",""
"","html-keyboard-response","187","284496","0.0-187.0","null","<div style=""font-size:60px;"">+</div>","null","","","","",""
"","image-button-response","188","284998","0.0-188.0","null","stimuli/images_hvm10/im166.png","","","null","166","0","8"
"","html-button-response","189","285711","0.0-189.0","711","","","","0","","",""
"","html-keyboard-response","190","286713","0.0-190.0","null","<div style=""font-size:60px;"">+</div>","null","","","","",""
"","image-button-response","191","287215","0.0-191.0","null","stimuli/images_hvm10/im56.png","","","null","56","2","9"
"","html-button-response","192","287880","0.0-192.0","663","","","","0","","",""
"","html-keyboard-response","193","288882","0.0-193.0","null","<div style=""font-size:60px;"">+</div>","null","","","","",""
"","image-button-response","194","289385","0.0-194.0","null","stimuli/images_hvm10/im69.png","","","null","69","6","3"
"","html-button-response","195","290186","0.0-195.0","799","","","","1","","",""
"","html-keyboard-response","196","291187","0.0-196.0","null","<div style=""font-size:60px;"">+</div>","null","","","","",""
"","image-button-response","197","291688","0.0-197.0","null","stimuli/images_hvm10/im66.png","","","null","66","1","3"
"","html-button-response","198","292469","0.0-198.0","779","","","","1","","",""
"","html-keyboard-response","199","293471","0.0-199.0","null","<div style=""font-size:60px;"">+</div>","null","","","","",""
"","image-button-response","200","293973","0.0-200.0","null","stimuli/images_hvm10/im24.png","","","null","24","1","9"
"","html-button-response","201","295649","0.0-201.0","1674","","","","0","","",""
"","html-keyboard-response","202","296652","0.0-202.0","null","<div style=""font-size:60px;"">+</div>","null","","","","",""
"","image-button-response","203","297155","0.0-203.0","null","stimuli/images_hvm10/im168.png","","","null","168","8","1"
"","html-button-response","204","297885","0.0-204.0","728","","","","0","","",""
"","html-keyboard-response","205","298888","0.0-205.0","null","<div style=""font-size:60px;"">+</div>","null","","","","",""
"","image-button-response","206","299390","0.0-206.0","null","stimuli/images_hvm10/im131.png","","","null","131","6","8"
"","html-button-response","207","300890","0.0-207.0","1498","","","","0","","",""
"","html-keyboard-response","208","301891","0.0-208.0","null","<div style=""font-size:60px;"">+</div>","null","","","","",""
"","image-button-response","209","302392","0.0-209.0","null","stimuli/images_hvm10/im21.png","","","null","21","1","8"
"","html-button-response","210","303222","0.0-210.0","828","","","","0","","",""
"","html-keyboard-response","211","304225","0.0-211.0","null","<div style=""font-size:60px;"">+</div>","null","","","","",""
"","image-button-response","212","304729","0.0-212.0","null","stimuli/images_hvm10/im118.png","","","null","118","5","0"
"","html-button-response","213","305692","0.0-213.0","961","","","","1","","",""
"","html-keyboard-response","214","306695","0.0-214.0","null","<div style=""font-size:60px;"">+</div>","null","","","","",""
"","image-button-response","215","307197","0.0-215.0","null","stimuli/images_hvm10/im73.png","","","null","73","9","3"
"","html-button-response","216","308010","0.0-216.0","807","","","","1","","",""
"","html-keyboard-response","217","309012","0.0-217.0","null","<div style=""font-size:60px;"">+</div>","null","","","","",""
"","image-button-response","218","309514","0.0-218.0","null","stimuli/images_hvm10/im159.png","","","null","159","1","7"
"","html-button-response","219","310301","0.0-219.0","785","","","","1","","",""
"","html-keyboard-response","220","311303","0.0-220.0","null","<div style=""font-size:60px;"">+</div>","null","","","","",""
"","image-button-response","221","311805","0.0-221.0","null","stimuli/images_hvm10/im146.png","","","null","146","0","7"
"","html-button-response","222","312236","0.0-222.0","430","","","","1","","",""
"","html-keyboard-response","223","313239","0.0-223.0","null","<div style=""font-size:60px;"">+</div>","null","","","","",""
"","image-button-response","224","313742","0.0-224.0","null","stimuli/images_hvm10/im119.png","","","null","119","5","6"
"","html-button-response","225","314272","0.0-225.0","529","","","","0","","",""
"","html-keyboard-response","226","315273","0.0-226.0","null","<div style=""font-size:60px;"">+</div>","null","","","","",""
"","image-button-response","227","315775","0.0-227.0","null","stimuli/images_hvm10/im58.png","","","null","58","2","5"
"","html-button-response","228","316357","0.0-228.0","580.0000000000582","","","","0","","",""
"","html-keyboard-response","229","317359","0.0-229.0","null","<div style=""font-size:60px;"">+</div>","null","","","","",""
"","image-button-response","230","317862","0.0-230.0","null","stimuli/images_hvm10/im51.png","","","null","51","6","2"
"","html-button-response","231","318582","0.0-231.0","718","","","","1","","",""
"","html-keyboard-response","232","319585","0.0-232.0","null","<div style=""font-size:60px;"">+</div>","null","","","","",""
"","image-button-response","233","320087","0.0-233.0","null","stimuli/images_hvm10/im87.png","","","null","87","5","4"
"","html-button-response","234","321022","0.0-234.0","933","","","","1","","",""
"","html-keyboard-response","235","322024","0.0-235.0","null","<div style=""font-size:60px;"">+</div>","null","","","","",""
"","image-button-response","236","322527","0.0-236.0","null","stimuli/images_hvm10/im54.png","","","null","54","2","4"
"","html-button-response","237","323105","0.0-237.0","575","","","","0","","",""
"","html-keyboard-response","238","324106","0.0-238.0","null","<div style=""font-size:60px;"">+</div>","null","","","","",""
"","image-button-response","239","324607","0.0-239.0","null","stimuli/images_hvm10/im52.png","","","null","52","2","0"
"","html-button-response","240","325264","0.0-240.0","655.9999999999418","","","","0","","",""
"","html-keyboard-response","241","326266","0.0-241.0","null","<div style=""font-size:60px;"">+</div>","null","","","","",""
"","image-button-response","242","326767","0.0-242.0","null","stimuli/images_hvm10/im77.png","","","null","77","3","6"
"","html-button-response","243","327461","0.0-243.0","692.9999999999418","","","","0","","",""
"","html-keyboard-response","244","328462","0.0-244.0","null","<div style=""font-size:60px;"">+</div>","null","","","","",""
"","image-button-response","245","328964","0.0-245.0","null","stimuli/images_hvm10/im186.png","","","null","186","4","9"
"","html-button-response","246","329581","0.0-246.0","617","","","","1","","",""
"","html-keyboard-response","247","330582","0.0-247.0","null","<div style=""font-size:60px;"">+</div>","null","","","","",""
"","image-button-response","248","331084","0.0-248.0","null","stimuli/images_hvm10/im134.png","","","null","134","9","6"
"","html-button-response","249","331955","0.0-249.0","871","","","","1","","",""
"","html-keyboard-response","250","332956","0.0-250.0","null","<div style=""font-size:60px;"">+</div>","null","","","","",""
"","image-button-response","251","333459","0.0-251.0","null","stimuli/images_hvm10/im179.png","","","null","179","6","8"
"","html-button-response","252","334309","0.0-252.0","848","","","","1","","",""
"","html-keyboard-response","253","335310","0.0-253.0","null","<div style=""font-size:60px;"">+</div>","null","","","","",""
"","image-button-response","254","335813","0.0-254.0","null","stimuli/images_hvm10/im84.png","","","null","84","4","0"
"","html-button-response","255","336711","0.0-255.0","897","","","","1","","",""
"","html-keyboard-response","256","337713","0.0-256.0","null","<div style=""font-size:60px;"">+</div>","null","","","","",""
"","image-button-response","257","338215","0.0-257.0","null","stimuli/images_hvm10/im92.png","","","null","92","2","4"
"","html-button-response","258","338918","0.0-258.0","701","","","","1","","",""
"","html-keyboard-response","259","339921","0.0-259.0","null","<div style=""font-size:60px;"">+</div>","null","","","","",""
"","image-button-response","260","340424","0.0-260.0","null","stimuli/images_hvm10/im158.png","","","null","158","9","7"
"","html-button-response","261","340975","0.0-261.0","550","","","","1","","",""
"","html-keyboard-response","262","341977","0.0-262.0","null","<div style=""font-size:60px;"">+</div>","null","","","","",""
"","image-button-response","263","342479","0.0-263.0","null","stimuli/images_hvm10/im114.png","","","null","114","5","6"
"","html-button-response","264","343128","0.0-264.0","647","","","","0","","",""
"","html-keyboard-response","265","344131","0.0-265.0","null","<div style=""font-size:60px;"">+</div>","null","","","","",""
"","image-button-response","266","344634","0.0-266.0","null","stimuli/images_hvm10/im167.png","","","null","167","1","8"
"","html-button-response","267","345743","0.0-267.0","1108","","","","1","","",""
"","html-keyboard-response","268","346752","0.0-268.0","null","<div style=""font-size:60px;"">+</div>","null","","","","",""
"","image-button-response","269","347255","0.0-269.0","null","stimuli/images_hvm10/im154.png","","","null","154","7","1"
"","html-button-response","270","348027","0.0-270.0","769.9999999999418","","","","0","","",""
"","html-keyboard-response","271","349029","0.0-271.0","null","<div style=""font-size:60px;"">+</div>","null","","","","",""
"","image-button-response","272","349532","0.0-272.0","null","stimuli/images_hvm10/im163.png","","","null","163","8","2"
"","html-button-response","273","350281","0.0-273.0","748","","","","0","","",""
"","html-keyboard-response","274","351284","0.0-274.0","null","<div style=""font-size:60px;"">+</div>","null","","","","",""
"","image-button-response","275","351785","0.0-275.0","null","stimuli/images_hvm10/im137.png","","","null","137","6","9"
"","html-button-response","276","354405","0.0-276.0","2617","","","","0","","",""
"","html-keyboard-response","277","355407","0.0-277.0","null","<div style=""font-size:60px;"">+</div>","null","","","","",""
"","image-button-response","278","355910","0.0-278.0","null","stimuli/images_hvm10/im106.png","","","null","106","2","5"
"","html-button-response","279","356475","0.0-279.0","563","","","","1","","",""
"","html-keyboard-response","280","357478","0.0-280.0","null","<div style=""font-size:60px;"">+</div>","null","","","","",""
"","image-button-response","281","357980","0.0-281.0","null","stimuli/images_hvm10/im189.png","","","null","189","2","9"
"","html-button-response","282","358646","0.0-282.0","666","","","","1","","",""
"","html-keyboard-response","283","359649","0.0-283.0","null","<div style=""font-size:60px;"">+</div>","null","","","","",""
"","image-button-response","284","360154","0.0-284.0","null","stimuli/images_hvm10/im96.png","","","null","96","4","1"
"","html-button-response","285","361033","0.0-285.0","877.9999999999418","","","","0","","",""
"","html-keyboard-response","286","362035","0.0-286.0","null","<div style=""font-size:60px;"">+</div>","null","","","","",""
"","image-button-response","287","362541","0.0-287.0","null","stimuli/images_hvm10/im153.png","","","null","153","7","2"
"","html-button-response","288","363286","0.0-288.0","744.0000000000582","","","","0","","",""
"","html-keyboard-response","289","364288","0.0-289.0","null","<div style=""font-size:60px;"">+</div>","null","","","","",""
"","image-button-response","290","364790","0.0-290.0","null","stimuli/images_hvm10/im178.png","","","null","178","7","8"
"","html-button-response","291","365495","0.0-291.0","704.0000000000582","","","","1","","",""
"","html-keyboard-response","292","366498","0.0-292.0","null","<div style=""font-size:60px;"">+</div>","null","","","","",""
"","image-button-response","293","367001","0.0-293.0","null","stimuli/images_hvm10/im187.png","","","null","187","9","6"
"","html-button-response","294","367526","0.0-294.0","523","","","","0","","",""
"","html-keyboard-response","295","368528","0.0-295.0","null","<div style=""font-size:60px;"">+</div>","null","","","","",""
"","image-button-response","296","369031","0.0-296.0","null","stimuli/images_hvm10/im190.png","","","null","190","4","9"
"","html-button-response","297","369761","0.0-297.0","728","","","","1","","",""
"","html-keyboard-response","298","370763","0.0-298.0","null","<div style=""font-size:60px;"">+</div>","null","","","","",""
"","image-button-response","299","371266","0.0-299.0","null","stimuli/images_hvm10/im161.png","","","null","161","8","0"
"","html-button-response","300","371909","0.0-300.0","642","","","","0","","",""
"","html-keyboard-response","301","372912","0.0-301.0","null","<div style=""font-size:60px;"">+</div>","null","","","","",""
"","image-button-response","302","373414","0.0-302.0","null","stimuli/images_hvm10/im130.png","","","null","130","6","1"
"","html-button-response","303","374077","0.0-303.0","661","","","","0","","",""
"","html-keyboard-response","304","375079","0.0-304.0","null","<div style=""font-size:60px;"">+</div>","null","","","","",""
"","image-button-response","305","375582","0.0-305.0","null","stimuli/images_hvm10/im162.png","","","null","162","5","8"
"","html-button-response","306","376211","0.0-306.0","628","","","","1","","",""
"","html-keyboard-response","307","377213","0.0-307.0","null","<div style=""font-size:60px;"">+</div>","null","","","","",""
"","image-button-response","308","377715","0.0-308.0","null","stimuli/images_hvm10/im151.png","","","null","151","7","5"
"","html-button-response","309","378339","0.0-309.0","623","","","","0","","",""
"","html-keyboard-response","310","379340","0.0-310.0","null","<div style=""font-size:60px;"">+</div>","null","","","","",""
"","image-button-response","311","379843","0.0-311.0","null","stimuli/images_hvm10/im2.png","","","null","2","5","0"
"","html-button-response","312","380510","0.0-312.0","665","","","","1","","",""
"","html-keyboard-response","313","381513","0.0-313.0","null","<div style=""font-size:60px;"">+</div>","null","","","","",""
"","image-button-response","314","382016","0.0-314.0","null","stimuli/images_hvm10/im144.png","","","null","144","7","1"
"","html-button-response","315","382612","0.0-315.0","595","","","","0","","",""
"","html-keyboard-response","316","383614","0.0-316.0","null","<div style=""font-size:60px;"">+</div>","null","","","","",""
"","image-button-response","317","384116","0.0-317.0","null","stimuli/images_hvm10/im140.png","","","null","140","7","0"
"","html-button-response","318","384820","0.0-318.0","703","","","","0","","",""
"","html-keyboard-response","319","385822","0.0-319.0","null","<div style=""font-size:60px;"">+</div>","null","","","","",""
"","image-button-response","320","386325","0.0-320.0","null","stimuli/images_hvm10/im169.png","","","null","169","8","3"
"","html-button-response","321","386837","0.0-321.0","510","","","","0","","",""
"","html-keyboard-response","322","387839","0.0-322.0","null","<div style=""font-size:60px;"">+</div>","null","","","","",""
"","image-button-response","323","388342","0.0-323.0","null","stimuli/images_hvm10/im135.png","","","null","135","1","6"
"","html-button-response","324","388990","0.0-324.0","647","","","","1","","",""
"","html-keyboard-response","325","389992","0.0-325.0","null","<div style=""font-size:60px;"">+</div>","null","","","","",""
"","image-button-response","326","390495","0.0-326.0","null","stimuli/images_hvm10/im55.png","","","null","55","2","0"
"","html-button-response","327","393411","0.0-327.0","2915.000000000058","","","","0","","",""
"","html-keyboard-response","328","394413","0.0-328.0","null","<div style=""font-size:60px;"">+</div>","null","","","","",""
"","image-button-response","329","394916","0.0-329.0","null","stimuli/images_hvm10/im175.png","","","null","175","0","8"
"","html-button-response","330","395659","0.0-330.0","742","","","","1","","",""
"","html-keyboard-response","331","396661","0.0-331.0","null","<div style=""font-size:60px;"">+</div>","null","","","","",""
"","image-button-response","332","397164","0.0-332.0","null","stimuli/images_hvm10/im139.png","","","null","139","9","6"
"","html-button-response","333","397912","0.0-333.0","747","","","","1","","",""
"","html-keyboard-response","334","398913","0.0-334.0","null","<div style=""font-size:60px;"">+</div>","null","","","","",""
"","image-button-response","335","399416","0.0-335.0","null","stimuli/images_hvm10/im20.png","","","null","20","4","1"
"","html-button-response","336","400536","0.0-336.0","1118","","","","1","","",""
"","html-keyboard-response","337","401538","0.0-337.0","null","<div style=""font-size:60px;"">+</div>","null","","","","",""
"","image-button-response","338","402041","0.0-338.0","null","stimuli/images_hvm10/im142.png","","","null","142","7","2"
"","html-button-response","339","402596","0.0-339.0","553","","","","0","","",""
"","html-keyboard-response","340","403598","0.0-340.0","null","<div style=""font-size:60px;"">+</div>","null","","","","",""
"","image-button-response","341","404101","0.0-341.0","null","stimuli/images_hvm10/im150.png","","","null","150","2","7"
"","html-button-response","342","405438","0.0-342.0","1335","","","","1","","",""
"","html-keyboard-response","343","406441","0.0-343.0","null","<div style=""font-size:60px;"">+</div>","null","","","","",""
"","image-button-response","344","406944","0.0-344.0","null","stimuli/images_hvm10/im172.png","","","null","172","1","8"
"","html-button-response","345","408090","0.0-345.0","1145","","","","1","","",""
"","html-keyboard-response","346","409093","0.0-346.0","null","<div style=""font-size:60px;"">+</div>","null","","","","",""
"","image-button-response","347","409594","0.0-347.0","null","stimuli/images_hvm10/im133.png","","","null","133","4","6"
"","html-button-response","348","410461","0.0-348.0","866","","","","1","","",""
"","html-keyboard-response","349","411463","0.0-349.0","null","<div style=""font-size:60px;"">+</div>","null","","","","",""
"","image-button-response","350","411966","0.0-350.0","null","stimuli/images_hvm10/im145.png","","","null","145","7","1"
"","html-button-response","351","412727","0.0-351.0","760","","","","0","","",""
"","html-keyboard-response","352","413728","0.0-352.0","null","<div style=""font-size:60px;"">+</div>","null","","","","",""
"","image-button-response","353","414231","0.0-353.0","null","stimuli/images_hvm10/im85.png","","","null","85","4","7"
"","html-button-response","354","415661","0.0-354.0","1428","","","","0","","",""
"","html-keyboard-response","355","416666","0.0-355.0","null","<div style=""font-size:60px;"">+</div>","null","","","","",""
"","image-button-response","356","417169","0.0-356.0","null","stimuli/images_hvm10/im112.png","","","null","112","5","3"
"","html-button-response","357","417831","0.0-357.0","659","","","","0","","",""
"","html-keyboard-response","358","418834","0.0-358.0","null","<div style=""font-size:60px;"">+</div>","null","","","","",""
"","image-button-response","359","419337","0.0-359.0","null","stimuli/images_hvm10/im91.png","","","null","91","8","4"
"","html-button-response","360","420201","0.0-360.0","862","","","","0","","",""
"","html-keyboard-response","361","421203","0.0-361.0","null","<div style=""font-size:60px;"">+</div>","null","","","","",""
"","image-button-response","362","421705","0.0-362.0","null","stimuli/images_hvm10/im1.png","","","null","1","0","6"
"","html-button-response","363","422403","0.0-363.0","697","","","","0","","",""
"","html-keyboard-response","364","423406","0.0-364.0","null","<div style=""font-size:60px;"">+</div>","null","","","","",""
"","image-button-response","365","423907","0.0-365.0","null","stimuli/images_hvm10/im147.png","","","null","147","5","7"
"","html-button-response","366","424840","0.0-366.0","931","","","","1","","",""
"","html-keyboard-response","367","425843","0.0-367.0","null","<div style=""font-size:60px;"">+</div>","null","","","","",""
"","image-button-response","368","426345","0.0-368.0","null","stimuli/images_hvm10/im62.png","","","null","62","4","3"
"","html-button-response","369","427161","0.0-369.0","812.9999999999418","","","","1","","",""
"","html-keyboard-response","370","428164","0.0-370.0","null","<div style=""font-size:60px;"">+</div>","null","","","","",""
"","image-button-response","371","428666","0.0-371.0","null","stimuli/images_hvm10/im44.png","","","null","44","2","5"
"","html-button-response","372","429293","0.0-372.0","625","","","","0","","",""
"","html-keyboard-response","373","430295","0.0-373.0","null","<div style=""font-size:60px;"">+</div>","null","","","","",""
"","image-button-response","374","430797","0.0-374.0","null","stimuli/images_hvm10/im128.png","","","null","128","1","6"
"","html-button-response","375","431666","0.0-375.0","868","","","","0","","",""
"","html-keyboard-response","376","432668","0.0-376.0","null","<div style=""font-size:60px;"">+</div>","null","","","","",""
"","image-button-response","377","433171","0.0-377.0","null","stimuli/images_hvm10/im173.png","","","null","173","4","8"
"","html-button-response","378","433827","0.0-378.0","654","","","","1","","",""
"","html-keyboard-response","379","434828","0.0-379.0","null","<div style=""font-size:60px;"">+</div>","null","","","","",""
"","image-button-response","380","435331","0.0-380.0","null","stimuli/images_hvm10/im97.png","","","null","97","4","9"
"","html-button-response","381","436259","0.0-381.0","926.0000000000582","","","","0","","",""
"","html-keyboard-response","382","437261","0.0-382.0","null","<div style=""font-size:60px;"">+</div>","null","","","","",""
"","image-button-response","383","437763","0.0-383.0","null","stimuli/images_hvm10/im36.png","","","null","36","4","1"
"","html-button-response","384","438910","0.0-384.0","1145","","","","1","","",""
"","html-keyboard-response","385","439912","0.0-385.0","null","<div style=""font-size:60px;"">+</div>","null","","","","",""
"","image-button-response","386","440414","0.0-386.0","null","stimuli/images_hvm10/im113.png","","","null","113","5","3"
"","html-button-response","387","441104","0.0-387.0","688","","","","0","","",""
"","html-keyboard-response","388","442106","0.0-388.0","null","<div style=""font-size:60px;"">+</div>","null","","","","",""
"","image-button-response","389","442609","0.0-389.0","null","stimuli/images_hvm10/im141.png","","","null","141","5","7"
"","html-button-response","390","443259","0.0-390.0","649","","","","1","","",""
"","html-keyboard-response","391","444261","0.0-391.0","null","<div style=""font-size:60px;"">+</div>","null","","","","",""
"","image-button-response","392","444764","0.0-392.0","null","stimuli/images_hvm10/im34.png","","","null","34","1","4"
"","html-button-response","393","445335","0.0-393.0","569.0000000000582","","","","0","","",""
"","html-keyboard-response","394","446337","0.0-394.0","null","<div style=""font-size:60px;"">+</div>","null","","","","",""
"","image-button-response","395","446840","0.0-395.0","null","stimuli/images_hvm10/im13.png","","","null","13","9","0"
"","html-button-response","396","447571","0.0-396.0","730","","","","1","","",""
"","html-keyboard-response","397","448573","0.0-397.0","null","<div style=""font-size:60px;"">+</div>","null","","","","",""
"","image-button-response","398","449077","0.0-398.0","null","stimuli/images_hvm10/im31.png","","","null","31","1","2"
"","html-button-response","399","449678","0.0-399.0","600","","","","0","","",""
"","html-keyboard-response","400","450680","0.0-400.0","null","<div style=""font-size:60px;"">+</div>","null","","","","",""
"","image-button-response","401","451182","0.0-401.0","null","stimuli/images_hvm10/im132.png","","","null","132","2","6"
"","html-button-response","402","451944","0.0-402.0","761","","","","1","","",""
"","html-keyboard-response","403","452946","0.0-403.0","null","<div style=""font-size:60px;"">+</div>","null","","","","",""
"","image-button-response","404","453450","0.0-404.0","null","stimuli/images_hvm10/im129.png","","","null","129","6","9"
"","html-button-response","405","454126","0.0-405.0","675.0000000000582","","","","1","","",""
"","html-keyboard-response","406","455130","0.0-406.0","null","<div style=""font-size:60px;"">+</div>","null","","","","",""
"","image-button-response","407","455632","0.0-407.0","null","stimuli/images_hvm10/im94.png","","","null","94","1","4"
"","html-button-response","408","457417","0.0-408.0","1783.9999999999418","","","","1","","",""
"","html-keyboard-response","409","458419","0.0-409.0","null","<div style=""font-size:60px;"">+</div>","null","","","","",""
"","image-button-response","410","458922","0.0-410.0","null","stimuli/images_hvm10/im39.png","","","null","39","1","8"
"","html-button-response","411","459421","0.0-411.0","498","","","","0","","",""
"","html-keyboard-response","412","460423","0.0-412.0","null","<div style=""font-size:60px;"">+</div>","null","","","","",""
"","image-button-response","413","460927","0.0-413.0","null","stimuli/images_hvm10/im25.png","","","null","25","7","1"
"","html-button-response","414","461587","0.0-414.0","658","","","","1","","",""
"","html-keyboard-response","415","462589","0.0-415.0","null","<div style=""font-size:60px;"">+</div>","null","","","","",""
"","image-button-response","416","463091","0.0-416.0","null","stimuli/images_hvm10/im16.png","","","null","16","2","0"
"","html-button-response","417","463770","0.0-417.0","678","","","","1","","",""
"","html-keyboard-response","418","464772","0.0-418.0","null","<div style=""font-size:60px;"">+</div>","null","","","","",""
"","image-button-response","419","465275","0.0-419.0","null","stimuli/images_hvm10/im117.png","","","null","117","5","0"
"","html-button-response","420","465754","0.0-420.0","478","","","","0","","",""
"","html-keyboard-response","421","466755","0.0-421.0","null","<div style=""font-size:60px;"">+</div>","null","","","","",""
"","image-button-response","422","467257","0.0-422.0","null","stimuli/images_hvm10/im116.png","","","null","116","8","5"
"","html-button-response","423","467864","0.0-423.0","604.9999999999418","","","","1","","",""
"","html-keyboard-response","424","468865","0.0-424.0","null","<div style=""font-size:60px;"">+</div>","null","","","","",""
"","image-button-response","425","469367","0.0-425.0","null","stimuli/images_hvm10/im122.png","","","null","122","4","6"
"","html-button-response","426","469918","0.0-426.0","549","","","","1","","",""
"","html-keyboard-response","427","470920","0.0-427.0","null","<div style=""font-size:60px;"">+</div>","null","","","","",""
"","image-button-response","428","471423","0.0-428.0","null","stimuli/images_hvm10/im28.png","","","null","28","3","1"
"","html-button-response","429","472292","0.0-429.0","865.9999999999418","","","","1","","",""
"","html-keyboard-response","430","473294","0.0-430.0","null","<div style=""font-size:60px;"">+</div>","null","","","","",""
"","image-button-response","431","473797","0.0-431.0","null","stimuli/images_hvm10/im88.png","","","null","88","4","8"
"","html-button-response","432","474576","0.0-432.0","778","","","","0","","",""
"","html-keyboard-response","433","475578","0.0-433.0","null","<div style=""font-size:60px;"">+</div>","null","","","","",""
"","image-button-response","434","476080","0.0-434.0","null","stimuli/images_hvm10/im38.png","","","null","38","3","1"
"","html-button-response","435","476776","0.0-435.0","694.0000000000582","","","","1","","",""
"","html-keyboard-response","436","477778","0.0-436.0","null","<div style=""font-size:60px;"">+</div>","null","","","","",""
"","image-button-response","437","478281","0.0-437.0","null","stimuli/images_hvm10/im109.png","","","null","109","5","8"
"","html-button-response","438","479032","0.0-438.0","750","","","","0","","",""
"","html-keyboard-response","439","480034","0.0-439.0","null","<div style=""font-size:60px;"">+</div>","null","","","","",""
"","image-button-response","440","480537","0.0-440.0","null","stimuli/images_hvm10/im35.png","","","null","35","5","1"
"","html-button-response","441","481067","0.0-441.0","529","","","","1","","",""
"","html-keyboard-response","442","482069","0.0-442.0","null","<div style=""font-size:60px;"">+</div>","null","","","","",""
"","image-button-response","443","482572","0.0-443.0","null","stimuli/images_hvm10/im72.png","","","null","72","7","3"
"","html-button-response","444","483322","0.0-444.0","750","","","","1","","",""
"","html-keyboard-response","445","484325","0.0-445.0","null","<div style=""font-size:60px;"">+</div>","null","","","","",""
"","image-button-response","446","484828","0.0-446.0","null","stimuli/images_hvm10/im79.png","","","null","79","0","3"
"","html-button-response","447","485525","0.0-447.0","696.0000000000582","","","","1","","",""
"","html-keyboard-response","448","486528","0.0-448.0","null","<div style=""font-size:60px;"">+</div>","null","","","","",""
"","image-button-response","449","487029","0.0-449.0","null","stimuli/images_hvm10/im100.png","","","null","100","5","3"
"","html-button-response","450","487571","0.0-450.0","540","","","","0","","",""
"","html-keyboard-response","451","488573","0.0-451.0","null","<div style=""font-size:60px;"">+</div>","null","","","","",""
"","image-button-response","452","489076","0.0-452.0","null","stimuli/images_hvm10/im101.png","","","null","101","5","7"
"","html-button-response","453","490937","0.0-453.0","1860","","","","0","","",""
"","html-keyboard-response","454","491939","0.0-454.0","null","<div style=""font-size:60px;"">+</div>","null","","","","",""
"","image-button-response","455","492442","0.0-455.0","null","stimuli/images_hvm10/im75.png","","","null","75","8","3"
"","html-button-response","456","493256","0.0-456.0","812","","","","1","","",""
"","html-keyboard-response","457","494258","0.0-457.0","null","<div style=""font-size:60px;"">+</div>","null","","","","",""
"","image-button-response","458","494760","0.0-458.0","null","stimuli/images_hvm10/im32.png","","","null","32","7","1"
"","html-button-response","459","495343","0.0-459.0","581.0000000000582","","","","1","","",""
"","html-keyboard-response","460","496344","0.0-460.0","null","<div style=""font-size:60px;"">+</div>","null","","","","",""
"","image-button-response","461","496847","0.0-461.0","null","stimuli/images_hvm10/im65.png","","","null","65","0","3"
"","html-button-response","462","497406","0.0-462.0","557","","","","1","","",""
"","html-keyboard-response","463","498409","0.0-463.0","null","<div style=""font-size:60px;"">+</div>","null","","","","",""
"","image-button-response","464","498910","0.0-464.0","null","stimuli/images_hvm10/im10.png","","","null","10","2","0"
"","html-button-response","465","499456","0.0-465.0","544.0000000000582","","","","1","","",""
"","html-keyboard-response","466","500458","0.0-466.0","null","<div style=""font-size:60px;"">+</div>","null","","","","",""
"","image-button-response","467","500961","0.0-467.0","null","stimuli/images_hvm10/im40.png","","","null","40","8","2"
"","html-button-response","468","501522","0.0-468.0","560","","","","1","","",""
"","html-keyboard-response","469","502525","0.0-469.0","null","<div style=""font-size:60px;"">+</div>","null","","","","",""
"","image-button-response","470","503027","0.0-470.0","null","stimuli/images_hvm10/im67.png","","","null","67","7","3"
"","html-button-response","471","503574","0.0-471.0","545.0000000000582","","","","1","","",""
"","html-keyboard-response","472","504576","0.0-472.0","null","<div style=""font-size:60px;"">+</div>","null","","","","",""
"","image-button-response","473","505079","0.0-473.0","null","stimuli/images_hvm10/im60.png","","","null","60","3","8"
"","html-button-response","474","505873","0.0-474.0","791.9999999999418","","","","0","","",""
"","html-keyboard-response","475","506875","0.0-475.0","null","<div style=""font-size:60px;"">+</div>","null","","","","",""
"","image-button-response","476","507378","0.0-476.0","null","stimuli/images_hvm10/im123.png","","","null","123","4","6"
"","html-button-response","477","508194","0.0-477.0","814","","","","1","","",""
"","html-keyboard-response","478","509197","0.0-478.0","null","<div style=""font-size:60px;"">+</div>","null","","","","",""
"","image-button-response","479","509699","0.0-479.0","null","stimuli/images_hvm10/im5.png","","","null","5","0","9"
"","html-button-response","480","510347","0.0-480.0","645.9999999999418","","","","0","","",""
"","html-keyboard-response","481","511350","0.0-481.0","null","<div style=""font-size:60px;"">+</div>","null","","","","",""
"","image-button-response","482","511853","0.0-482.0","null","stimuli/images_hvm10/im8.png","","","null","8","0","7"
"","html-button-response","483","512519","0.0-483.0","664.9999999999418","","","","0","","",""
"","html-keyboard-response","484","513521","0.0-484.0","null","<div style=""font-size:60px;"">+</div>","null","","","","",""
"","image-button-response","485","514024","0.0-485.0","null","stimuli/images_hvm10/im90.png","","","null","90","4","7"
"","html-button-response","486","514740","0.0-486.0","715","","","","0","","",""
"","html-keyboard-response","487","515742","0.0-487.0","null","<div style=""font-size:60px;"">+</div>","null","","","","",""
"","image-button-response","488","516245","0.0-488.0","null","stimuli/images_hvm10/im107.png","","","null","107","5","8"
"","html-button-response","489","516890","0.0-489.0","640.9999999999418","","","","0","","",""
"","html-keyboard-response","490","517893","0.0-490.0","null","<div style=""font-size:60px;"">+</div>","null","","","","",""
"","image-button-response","491","518396","0.0-491.0","null","stimuli/images_hvm10/im26.png","","","null","26","1","3"
"","html-button-response","492","519406","0.0-492.0","1009.0000000000582","","","","0","","",""
"","html-keyboard-response","493","520408","0.0-493.0","null","<div style=""font-size:60px;"">+</div>","null","","","","",""
"","image-button-response","494","520910","0.0-494.0","null","stimuli/images_hvm10/im41.png","","","null","41","2","1"
"","html-button-response","495","523862","0.0-495.0","2949","","","","0","","",""
"","html-keyboard-response","496","524863","0.0-496.0","null","<div style=""font-size:60px;"">+</div>","null","","","","",""
"","image-button-response","497","525365","0.0-497.0","null","stimuli/images_hvm10/im29.png","","","null","29","9","1"
"","html-button-response","498","526054","0.0-498.0","688","","","","1","","",""
"","html-keyboard-response","499","527057","0.0-499.0","null","<div style=""font-size:60px;"">+</div>","null","","","","",""
"","image-button-response","500","527560","0.0-500.0","null","stimuli/images_hvm10/im3.png","","","null","3","4","0"
"","html-button-response","501","528009","0.0-501.0","448","","","","1","","",""
"","html-keyboard-response","502","529011","0.0-502.0","null","<div style=""font-size:60px;"">+</div>","null","","","","",""
"","image-button-response","503","529514","0.0-503.0","null","stimuli/images_hvm10/im22.png","","","null","22","8","1"
"","html-button-response","504","530041","0.0-504.0","524","","","","1","","",""
"","html-keyboard-response","505","531043","0.0-505.0","null","<div style=""font-size:60px;"">+</div>","null","","","","",""
"","image-button-response","506","531546","0.0-506.0","null","stimuli/images_hvm10/im45.png","","","null","45","2","7"
"","html-button-response","507","532286","0.0-507.0","738","","","","0","","",""
"","html-keyboard-response","508","533288","0.0-508.0","null","<div style=""font-size:60px;"">+</div>","null","","","","",""
"","image-button-response","509","533790","0.0-509.0","null","stimuli/images_hvm10/im82.png","","","null","82","0","4"
"","html-button-response","510","534691","0.0-510.0","898","","","","0","","",""
"","html-keyboard-response","511","535693","0.0-511.0","null","<div style=""font-size:60px;"">+</div>","null","","","","",""
"","image-button-response","512","536196","0.0-512.0","null","stimuli/images_hvm10/im103.png","","","null","103","5","4"
"","html-button-response","513","536891","0.0-513.0","692","","","","0","","",""
"","html-keyboard-response","514","537893","0.0-514.0","null","<div style=""font-size:60px;"">+</div>","null","","","","",""
"","image-button-response","515","538396","0.0-515.0","null","stimuli/images_hvm10/im53.png","","","null","53","5","2"
"","html-button-response","516","539144","0.0-516.0","746","","","","1","","",""
"","html-keyboard-response","517","540146","0.0-517.0","null","<div style=""font-size:60px;"">+</div>","null","","","","",""
"","image-button-response","518","540649","0.0-518.0","null","stimuli/images_hvm10/im46.png","","","null","46","2","0"
"","html-button-response","519","541366","0.0-519.0","716","","","","0","","",""
"","html-keyboard-response","520","542369","0.0-520.0","null","<div style=""font-size:60px;"">+</div>","null","","","","",""
"","image-button-response","521","542872","0.0-521.0","null","stimuli/images_hvm10/im23.png","","","null","23","5","1"
"","html-button-response","522","543673","0.0-522.0","797.9999999998836","","","","1","","",""
"","html-keyboard-response","523","544676","0.0-523.0","null","<div style=""font-size:60px;"">+</div>","null","","","","",""
"","image-button-response","524","545179","0.0-524.0","null","stimuli/images_hvm10/im102.png","","","null","102","5","0"
"","html-button-response","525","545989","0.0-525.0","809","","","","0","","",""
"","html-keyboard-response","526","546992","0.0-526.0","null","<div style=""font-size:60px;"">+</div>","null","","","","",""
"","image-button-response","527","547495","0.0-527.0","null","stimuli/images_hvm10/im83.png","","","null","83","5","4"
"","html-button-response","528","548407","0.0-528.0","911.0000000001164","","","","1","","",""
"","html-keyboard-response","529","549410","0.0-529.0","null","<div style=""font-size:60px;"">+</div>","null","","","","",""
"","image-button-response","530","549911","0.0-530.0","null","stimuli/images_hvm10/im64.png","","","null","64","3","5"
"","html-button-response","531","550591","0.0-531.0","678","","","","0","","",""
"","html-keyboard-response","532","551593","0.0-532.0","null","<div style=""font-size:60px;"">+</div>","null","","","","",""
"","image-button-response","533","552096","0.0-533.0","null","stimuli/images_hvm10/im63.png","","","null","63","3","7"
"","html-button-response","534","552812","0.0-534.0","714","","","","0","","",""
"","html-keyboard-response","535","553814","0.0-535.0","null","<div style=""font-size:60px;"">+</div>","null","","","","",""
"","image-button-response","536","554320","0.0-536.0","null","stimuli/images_hvm10/im108.png","","","null","108","5","9"
"","html-button-response","537","555344","0.0-537.0","1022","","","","0","","",""
"","html-keyboard-response","538","556346","0.0-538.0","null","<div style=""font-size:60px;"">+</div>","null","","","","",""
"","image-button-response","539","556849","0.0-539.0","null","stimuli/images_hvm10/im120.png","","","null","120","7","6"
"","html-button-response","540","557609","0.0-540.0","758","","","","1","","",""
"","html-keyboard-response","541","558612","0.0-541.0","null","<div style=""font-size:60px;"">+</div>","null","","","","",""
"","image-button-response","542","559115","0.0-542.0","null","stimuli/images_hvm10/im74.png","","","null","74","3","2"
"","html-button-response","543","559747","0.0-543.0","630","","","","0","","",""
"","html-keyboard-response","544","560749","0.0-544.0","null","<div style=""font-size:60px;"">+</div>","null","","","","",""
"","image-button-response","545","561252","0.0-545.0","null","stimuli/images_hvm10/im59.png","","","null","59","2","1"
"","html-button-response","546","561801","0.0-546.0","546.9999999998836","","","","0","","",""
"","html-keyboard-response","547","562803","0.0-547.0","null","<div style=""font-size:60px;"">+</div>","null","","","","",""
"","image-button-response","548","563306","0.0-548.0","null","stimuli/images_hvm10/im121.png","","","null","121","6","9"
"","html-button-response","549","563987","0.0-549.0","679","","","","0","","",""
"","html-keyboard-response","550","564989","0.0-550.0","null","<div style=""font-size:60px;"">+</div>","null","","","","",""
"","image-button-response","551","565493","0.0-551.0","null","stimuli/images_hvm10/im124.png","","","null","124","0","6"
"","html-button-response","552","567098","0.0-552.0","1603","","","","1","","",""
"","html-keyboard-response","553","568100","0.0-553.0","null","<div style=""font-size:60px;"">+</div>","null","","","","",""
"","image-button-response","554","568603","0.0-554.0","null","stimuli/images_hvm10/im0.png","","","null","0","4","0"
"","html-button-response","555","569340","0.0-555.0","734.9999999998836","","","","1","","",""
"","html-keyboard-response","556","570342","0.0-556.0","null","<div style=""font-size:60px;"">+</div>","null","","","","",""
"","image-button-response","557","570844","0.0-557.0","null","stimuli/images_hvm10/im47.png","","","null","47","2","5"
"","html-button-response","558","572360","0.0-558.0","1515","","","","1","","",""
"","html-keyboard-response","559","573361","0.0-559.0","null","<div style=""font-size:60px;"">+</div>","null","","","","",""
"","image-button-response","560","573864","0.0-560.0","null","stimuli/images_hvm10/im80.png","","","null","80","4","5"
"","html-button-response","561","574881","0.0-561.0","1016","","","","0","","",""
"","html-keyboard-response","562","575882","0.0-562.0","null","<div style=""font-size:60px;"">+</div>","null","","","","",""
"","image-button-response","563","576383","0.0-563.0","null","stimuli/images_hvm10/im57.png","","","null","57","2","0"
"","html-button-response","564","576930","0.0-564.0","546","","","","0","","",""
"","html-keyboard-response","565","577931","0.0-565.0","null","<div style=""font-size:60px;"">+</div>","null","","","","",""
"","image-button-response","566","578433","0.0-566.0","null","stimuli/images_hvm10/im111.png","","","null","111","6","5"
"","html-button-response","567","578965","0.0-567.0","530","","","","1","","",""
"","html-keyboard-response","568","579967","0.0-568.0","null","<div style=""font-size:60px;"">+</div>","null","","","","",""
"","image-button-response","569","580470","0.0-569.0","null","stimuli/images_hvm10/im110.png","","","null","110","5","7"
"","html-button-response","570","581139","0.0-570.0","667","","","","0","","",""
"","html-keyboard-response","571","582142","0.0-571.0","null","<div style=""font-size:60px;"">+</div>","null","","","","",""
"","image-button-response","572","582645","0.0-572.0","null","stimuli/images_hvm10/im7.png","","","null","7","0","8"
"","html-button-response","573","583290","0.0-573.0","644","","","","0","","",""
"","html-keyboard-response","574","584291","0.0-574.0","null","<div style=""font-size:60px;"">+</div>","null","","","","",""
"","image-button-response","575","584794","0.0-575.0","null","stimuli/images_hvm10/im81.png","","","null","81","4","7"
"","html-button-response","576","585599","0.0-576.0","802","","","","0","","",""
"","html-keyboard-response","577","586601","0.0-577.0","null","<div style=""font-size:60px;"">+</div>","null","","","","",""
"","image-button-response","578","587103","0.0-578.0","null","stimuli/images_hvm10/im125.png","","","null","125","6","4"
"","html-button-response","579","587758","0.0-579.0","652.9999999998836","","","","0","","",""
"","html-keyboard-response","580","588760","0.0-580.0","null","<div style=""font-size:60px;"">+</div>","null","","","","",""
"","image-button-response","581","589263","0.0-581.0","null","stimuli/images_hvm10/im127.png","","","null","127","3","6"
"","html-button-response","582","589946","0.0-582.0","681","","","","1","","",""
"","html-keyboard-response","583","590948","0.0-583.0","null","<div style=""font-size:60px;"">+</div>","null","","","","",""
"","image-button-response","584","591452","0.0-584.0","null","stimuli/images_hvm10/im126.png","","","null","126","6","7"
"","html-button-response","585","592012","0.0-585.0","559","","","","0","","",""
"","html-keyboard-response","586","593015","0.0-586.0","null","<div style=""font-size:60px;"">+</div>","null","","","","",""
"","image-button-response","587","593518","0.0-587.0","null","stimuli/images_hvm10/im14.png","","","null","14","3","0"
"","html-button-response","588","594148","0.0-588.0","629.0000000001164","","","","1","","",""
"","html-keyboard-response","589","595150","0.0-589.0","null","<div style=""font-size:60px;"">+</div>","null","","","","",""
"","image-button-response","590","595653","0.0-590.0","null","stimuli/images_hvm10/im4.png","","","null","4","0","4"
"","html-button-response","591","596301","0.0-591.0","643","","","","0","","",""
"","html-keyboard-response","592","597304","0.0-592.0","null","<div style=""font-size:60px;"">+</div>","null","","","","",""
"","image-button-response","593","597806","0.0-593.0","null","stimuli/images_hvm10/im6.png","","","null","6","3","0"
"","html-button-response","594","598403","0.0-594.0","595.0000000001164","","","","1","","",""
"","html-keyboard-response","595","599407","0.0-595.0","null","<div style=""font-size:60px;"">+</div>","null","","","","",""
"","image-button-response","596","599913","0.0-596.0","null","stimuli/images_hvm10/im9.png","","","null","9","3","0"
"","html-button-response","597","600511","0.0-597.0","596","","","","1","","",""
"","html-keyboard-response","598","601512","0.0-598.0","null","<div style=""font-size:60px;"">+</div>","null","","","","",""
"","image-button-response","599","602014","0.0-599.0","null","stimuli/images_hvm10/im11.png","","","null","11","6","0"
"","html-button-response","600","602591","0.0-600.0","577","","","","1","","",""
