"success","trial_type","trial_index","time_elapsed","internal_node_id","rt","stimulus","key_press","responses","button_pressed","images","left_choice","right_choice"
"true","fullscreen","0","2654","0.0-0.0","","","","","","","",""
"","html-keyboard-response","1","4650","0.0-1.0","1995","Welcome to the experiment. Press any key to begin.","32","","","","",""
"","survey-html-form","2","16200","0.0-2.0","11547","","","{""p_id"":""0000"",""age"":""39"",""handedness"":""right"",""sex"":""male"",""other_sex"":""""}","","","",""
"","html-keyboard-response","3","20750","0.0-3.0","4549","<p>Please fixate at the center '+' sign which will appear once you press any key. Then, <strong> an image </strong> will be shown in the center of the screen.</p><p>The image will contain an object.This will be followed by a <strong> Choice Screen </strong> containing two objects. Please choose the option <strong>[Click on the object]</strong> that you think was present in the image<p>Press any key to begin.</p>","32","","","","",""
"","html-keyboard-response","4","23757","0.0-4.0","null","<div style=""font-size:60px;"">+</div>","null","","","","",""
"","image-button-response","5","24258","0.0-5.0","null","stimuli/images_hvm10/im64.png","","","null","64","0","3"
"","html-button-response","6","25741","0.0-6.0","1482","","","","0","","",""
"","html-keyboard-response","7","26742","0.0-7.0","null","<div style=""font-size:60px;"">+</div>","null","","","","",""
"","image-button-response","8","27244","0.0-8.0","null","stimuli/images_hvm10/im70.png","","","null","70","3","0"
"","html-button-response","9","28053","0.0-9.0","807","","","","0","","",""
"","html-keyboard-response","10","29055","0.0-10.0","null","<div style=""font-size:60px;"">+</div>","null","","","","",""
"","image-button-response","11","29556","0.0-11.0","null","stimuli/images_hvm10/im36.png","","","null","36","1","7"
"","html-button-response","12","30622","0.0-12.0","1065","","","","0","","",""
"","html-keyboard-response","13","31626","0.0-13.0","null","<div style=""font-size:60px;"">+</div>","null","","","","",""
"","image-button-response","14","32127","0.0-14.0","null","stimuli/images_hvm10/im1.png","","","null","1","0","2"
"","html-button-response","15","32894","0.0-15.0","765","","","","0","","",""
"","html-keyboard-response","16","33899","0.0-16.0","null","<div style=""font-size:60px;"">+</div>","null","","","","",""
"","image-button-response","17","34399","0.0-17.0","null","stimuli/images_hvm10/im69.png","","","null","69","3","1"
"","html-button-response","18","35286","0.0-18.0","886","","","","0","","",""
"","html-keyboard-response","19","36288","0.0-19.0","null","<div style=""font-size:60px;"">+</div>","null","","","","",""
"","image-button-response","20","36791","0.0-20.0","null","stimuli/images_hvm10/im33.png","","","null","33","9","1"
"","html-button-response","21","37679","0.0-21.0","887","","","","1","","",""
"","html-keyboard-response","22","38679","0.0-22.0","null","<div style=""font-size:60px;"">+</div>","null","","","","",""
"","image-button-response","23","39180","0.0-23.0","null","stimuli/images_hvm10/im68.png","","","null","68","1","3"
"","html-button-response","24","40080","0.0-24.0","898","","","","1","","",""
"","html-keyboard-response","25","41082","0.0-25.0","null","<div style=""font-size:60px;"">+</div>","null","","","","",""
"","image-button-response","26","41584","0.0-26.0","null","stimuli/images_hvm10/im37.png","","","null","37","1","3"
"","html-button-response","27","43271","0.0-27.0","1687","","","","0","","",""
"","html-keyboard-response","28","44272","0.0-28.0","null","<div style=""font-size:60px;"">+</div>","null","","","","",""
"","image-button-response","29","44777","0.0-29.0","null","stimuli/images_hvm10/im65.png","","","null","65","7","3"
"","html-button-response","30","45680","0.0-30.0","902","","","","1","","",""
"","html-keyboard-response","31","46682","0.0-31.0","null","<div style=""font-size:60px;"">+</div>","null","","","","",""
"","image-button-response","32","47183","0.0-32.0","null","stimuli/images_hvm10/im66.png","","","null","66","4","3"
"","html-button-response","33","47801","0.0-33.0","617","","","","1","","",""
"","html-keyboard-response","34","48804","0.0-34.0","null","<div style=""font-size:60px;"">+</div>","null","","","","",""
"","image-button-response","35","49306","0.0-35.0","null","stimuli/images_hvm10/im71.png","","","null","71","9","3"
"","html-button-response","36","49897","0.0-36.0","590","","","","1","","",""
"","html-keyboard-response","37","50901","0.0-37.0","null","<div style=""font-size:60px;"">+</div>","null","","","","",""
"","image-button-response","38","51403","0.0-38.0","null","stimuli/images_hvm10/im21.png","","","null","21","1","3"
"","html-button-response","39","52081","0.0-39.0","678","","","","1","","",""
"","html-keyboard-response","40","53083","0.0-40.0","null","<div style=""font-size:60px;"">+</div>","null","","","","",""
"","image-button-response","41","53584","0.0-41.0","null","stimuli/images_hvm10/im67.png","","","null","67","3","0"
"","html-button-response","42","54481","0.0-42.0","898","","","","0","","",""
"","html-keyboard-response","43","55485","0.0-43.0","null","<div style=""font-size:60px;"">+</div>","null","","","","",""
"","image-button-response","44","55989","0.0-44.0","null","stimuli/images_hvm10/im4.png","","","null","4","0","3"
"","html-button-response","45","56634","0.0-45.0","644","","","","0","","",""
"","html-keyboard-response","46","57637","0.0-46.0","null","<div style=""font-size:60px;"">+</div>","null","","","","",""
"","image-button-response","47","58138","0.0-47.0","null","stimuli/images_hvm10/im32.png","","","null","32","1","5"
"","html-button-response","48","58874","0.0-48.0","734","","","","0","","",""
"","html-keyboard-response","49","59876","0.0-49.0","null","<div style=""font-size:60px;"">+</div>","null","","","","",""
"","image-button-response","50","60377","0.0-50.0","null","stimuli/images_hvm10/im20.png","","","null","20","1","6"
"","html-button-response","51","61073","0.0-51.0","696","","","","0","","",""
"","html-keyboard-response","52","62074","0.0-52.0","null","<div style=""font-size:60px;"">+</div>","null","","","","",""
"","image-button-response","53","62576","0.0-53.0","null","stimuli/images_hvm10/im8.png","","","null","8","6","0"
"","html-button-response","54","63378","0.0-54.0","801","","","","1","","",""
"","html-keyboard-response","55","64379","0.0-55.0","null","<div style=""font-size:60px;"">+</div>","null","","","","",""
"","image-button-response","56","64883","0.0-56.0","null","stimuli/images_hvm10/im38.png","","","null","38","1","4"
"","html-button-response","57","65851","0.0-57.0","968","","","","0","","",""
"","html-keyboard-response","58","66853","0.0-58.0","null","<div style=""font-size:60px;"">+</div>","null","","","","",""
"","image-button-response","59","67355","0.0-59.0","null","stimuli/images_hvm10/im16.png","","","null","16","5","0"
"","html-button-response","60","68339","0.0-60.0","985","","","","1","","",""
"","html-keyboard-response","61","69341","0.0-61.0","null","<div style=""font-size:60px;"">+</div>","null","","","","",""
"","image-button-response","62","69843","0.0-62.0","null","stimuli/images_hvm10/im9.png","","","null","9","6","0"
"","html-button-response","63","70492","0.0-63.0","649","","","","1","","",""
"","html-keyboard-response","64","71493","0.0-64.0","null","<div style=""font-size:60px;"">+</div>","null","","","","",""
"","image-button-response","65","71997","0.0-65.0","null","stimuli/images_hvm10/im26.png","","","null","26","1","7"
"","html-button-response","66","73309","0.0-66.0","1309","","","","1","","",""
"","html-keyboard-response","67","74309","0.0-67.0","null","<div style=""font-size:60px;"">+</div>","null","","","","",""
"","image-button-response","68","74812","0.0-68.0","null","stimuli/images_hvm10/im72.png","","","null","72","9","3"
"","html-button-response","69","75660","0.0-69.0","846","","","","1","","",""
"","html-keyboard-response","70","76665","0.0-70.0","null","<div style=""font-size:60px;"">+</div>","null","","","","",""
"","image-button-response","71","77167","0.0-71.0","null","stimuli/images_hvm10/im75.png","","","null","75","3","0"
"","html-button-response","72","78084","0.0-72.0","916","","","","0","","",""
"","html-keyboard-response","73","79088","0.0-73.0","null","<div style=""font-size:60px;"">+</div>","null","","","","",""
"","image-button-response","74","79589","0.0-74.0","null","stimuli/images_hvm10/im25.png","","","null","25","9","1"
"","html-button-response","75","80406","0.0-75.0","815","","","","1","","",""
"","html-keyboard-response","76","81408","0.0-76.0","null","<div style=""font-size:60px;"">+</div>","null","","","","",""
"","image-button-response","77","81909","0.0-77.0","null","stimuli/images_hvm10/im34.png","","","null","34","8","1"
"","html-button-response","78","82509","0.0-78.0","600","","","","1","","",""
"","html-keyboard-response","79","83514","0.0-79.0","null","<div style=""font-size:60px;"">+</div>","null","","","","",""
"","image-button-response","80","84015","0.0-80.0","null","stimuli/images_hvm10/im35.png","","","null","35","1","3"
"","html-button-response","81","84949","0.0-81.0","932","","","","0","","",""
"","html-keyboard-response","82","85952","0.0-82.0","null","<div style=""font-size:60px;"">+</div>","null","","","","",""
"","image-button-response","83","86453","0.0-83.0","null","stimuli/images_hvm10/im74.png","","","null","74","6","3"
"","html-button-response","84","87286","0.0-84.0","833","","","","1","","",""
"","html-keyboard-response","85","88290","0.0-85.0","null","<div style=""font-size:60px;"">+</div>","null","","","","",""
"","image-button-response","86","88792","0.0-86.0","null","stimuli/images_hvm10/im5.png","","","null","5","0","7"
"","html-button-response","87","89606","0.0-87.0","813","","","","0","","",""
"","html-keyboard-response","88","90609","0.0-88.0","null","<div style=""font-size:60px;"">+</div>","null","","","","",""
"","image-button-response","89","91110","0.0-89.0","null","stimuli/images_hvm10/im6.png","","","null","6","0","2"
"","html-button-response","90","91910","0.0-90.0","800","","","","0","","",""
"","html-keyboard-response","91","92914","0.0-91.0","null","<div style=""font-size:60px;"">+</div>","null","","","","",""
"","image-button-response","92","93416","0.0-92.0","null","stimuli/images_hvm10/im73.png","","","null","73","0","3"
"","html-button-response","93","94230","0.0-93.0","813","","","","1","","",""
"","html-keyboard-response","94","95234","0.0-94.0","null","<div style=""font-size:60px;"">+</div>","null","","","","",""
"","image-button-response","95","95739","0.0-95.0","null","stimuli/images_hvm10/im7.png","","","null","7","7","0"
"","html-button-response","96","96400","0.0-96.0","660","","","","1","","",""
"","html-keyboard-response","97","97400","0.0-97.0","null","<div style=""font-size:60px;"">+</div>","null","","","","",""
"","image-button-response","98","97901","0.0-98.0","null","stimuli/images_hvm10/im2.png","","","null","2","6","0"
"","html-button-response","99","98504","0.0-99.0","602","","","","1","","",""
"","html-keyboard-response","100","99507","0.0-100.0","null","<div style=""font-size:60px;"">+</div>","null","","","","",""
"","image-button-response","101","100008","0.0-101.0","null","stimuli/images_hvm10/im39.png","","","null","39","1","5"
"","html-button-response","102","100727","0.0-102.0","719","","","","0","","",""
"","html-keyboard-response","103","101731","0.0-103.0","null","<div style=""font-size:60px;"">+</div>","null","","","","",""
"","image-button-response","104","102234","0.0-104.0","null","stimuli/images_hvm10/im76.png","","","null","76","3","1"
"","html-button-response","105","103000","0.0-105.0","765","","","","0","","",""
"","html-keyboard-response","106","104002","0.0-106.0","null","<div style=""font-size:60px;"">+</div>","null","","","","",""
"","image-button-response","107","104507","0.0-107.0","null","stimuli/images_hvm10/im42.png","","","null","42","2","8"
"","html-button-response","108","105953","0.0-108.0","1445","","","","0","","",""
"","html-keyboard-response","109","106954","0.0-109.0","null","<div style=""font-size:60px;"">+</div>","null","","","","",""
"","image-button-response","110","107455","0.0-110.0","null","stimuli/images_hvm10/im78.png","","","null","78","3","5"
"","html-button-response","111","108193","0.0-111.0","736","","","","0","","",""
"","html-keyboard-response","112","109196","0.0-112.0","null","<div style=""font-size:60px;"">+</div>","null","","","","",""
"","image-button-response","113","109702","0.0-113.0","null","stimuli/images_hvm10/im45.png","","","null","45","2","8"
"","html-button-response","114","111128","0.0-114.0","1427","","","","1","","",""
"","html-keyboard-response","115","112130","0.0-115.0","null","<div style=""font-size:60px;"">+</div>","null","","","","",""
"","image-button-response","116","112632","0.0-116.0","null","stimuli/images_hvm10/im29.png","","","null","29","1","9"
"","html-button-response","117","113384","0.0-117.0","752","","","","0","","",""
"","html-keyboard-response","118","114388","0.0-118.0","null","<div style=""font-size:60px;"">+</div>","null","","","","",""
"","image-button-response","119","114890","0.0-119.0","null","stimuli/images_hvm10/im0.png","","","null","0","3","0"
"","html-button-response","120","115666","0.0-120.0","775","","","","1","","",""
"","html-keyboard-response","121","116669","0.0-121.0","null","<div style=""font-size:60px;"">+</div>","null","","","","",""
"","image-button-response","122","117170","0.0-122.0","null","stimuli/images_hvm10/im30.png","","","null","30","1","9"
"","html-button-response","123","118042","0.0-123.0","872","","","","0","","",""
"","html-keyboard-response","124","119045","0.0-124.0","null","<div style=""font-size:60px;"">+</div>","null","","","","",""
"","image-button-response","125","119545","0.0-125.0","null","stimuli/images_hvm10/im77.png","","","null","77","3","4"
"","html-button-response","126","120219","0.0-126.0","672","","","","0","","",""
"","html-keyboard-response","127","121220","0.0-127.0","null","<div style=""font-size:60px;"">+</div>","null","","","","",""
"","image-button-response","128","121722","0.0-128.0","null","stimuli/images_hvm10/im79.png","","","null","79","3","2"
"","html-button-response","129","122291","0.0-129.0","568","","","","0","","",""
"","html-keyboard-response","130","123293","0.0-130.0","null","<div style=""font-size:60px;"">+</div>","null","","","","",""
"","image-button-response","131","123797","0.0-131.0","null","stimuli/images_hvm10/im81.png","","","null","81","7","4"
"","html-button-response","132","125123","0.0-132.0","1325","","","","0","","",""
"","html-keyboard-response","133","126124","0.0-133.0","null","<div style=""font-size:60px;"">+</div>","null","","","","",""
"","image-button-response","134","126625","0.0-134.0","null","stimuli/images_hvm10/im83.png","","","null","83","9","4"
"","html-button-response","135","127667","0.0-135.0","1042","","","","0","","",""
"","html-keyboard-response","136","128670","0.0-136.0","null","<div style=""font-size:60px;"">+</div>","null","","","","",""
"","image-button-response","137","129174","0.0-137.0","null","stimuli/images_hvm10/im80.png","","","null","80","9","4"
"","html-button-response","138","130060","0.0-138.0","884","","","","1","","",""
"","html-keyboard-response","139","131064","0.0-139.0","null","<div style=""font-size:60px;"">+</div>","null","","","","",""
"","image-button-response","140","131565","0.0-140.0","null","stimuli/images_hvm10/im82.png","","","null","82","4","8"
"","html-button-response","141","132308","0.0-141.0","741","","","","0","","",""
"","html-keyboard-response","142","133314","0.0-142.0","null","<div style=""font-size:60px;"">+</div>","null","","","","",""
"","image-button-response","143","133815","0.0-143.0","null","stimuli/images_hvm10/im44.png","","","null","44","1","2"
"","html-button-response","144","134700","0.0-144.0","884","","","","1","","",""
"","html-keyboard-response","145","135704","0.0-145.0","null","<div style=""font-size:60px;"">+</div>","null","","","","",""
"","image-button-response","146","136206","0.0-146.0","null","stimuli/images_hvm10/im43.png","","","null","43","2","7"
"","html-button-response","147","137044","0.0-147.0","837","","","","0","","",""
"","html-keyboard-response","148","138048","0.0-148.0","null","<div style=""font-size:60px;"">+</div>","null","","","","",""
"","image-button-response","149","138550","0.0-149.0","null","stimuli/images_hvm10/im41.png","","","null","41","4","2"
"","html-button-response","150","139317","0.0-150.0","765","","","","1","","",""
"","html-keyboard-response","151","140319","0.0-151.0","null","<div style=""font-size:60px;"">+</div>","null","","","","",""
"","image-button-response","152","140819","0.0-152.0","null","stimuli/images_hvm10/im84.png","","","null","84","1","4"
"","html-button-response","153","141638","0.0-153.0","818","","","","0","","",""
"","html-keyboard-response","154","142641","0.0-154.0","null","<div style=""font-size:60px;"">+</div>","null","","","","",""
"","image-button-response","155","143143","0.0-155.0","null","stimuli/images_hvm10/im40.png","","","null","40","2","8"
"","html-button-response","156","143757","0.0-156.0","614","","","","0","","",""
"","html-keyboard-response","157","144763","0.0-157.0","null","<div style=""font-size:60px;"">+</div>","null","","","","",""
"","image-button-response","158","145265","0.0-158.0","null","stimuli/images_hvm10/im85.png","","","null","85","2","4"
"","html-button-response","159","146367","0.0-159.0","1100","","","","0","","",""
"","html-keyboard-response","160","147370","0.0-160.0","null","<div style=""font-size:60px;"">+</div>","null","","","","",""
"","image-button-response","161","147871","0.0-161.0","null","stimuli/images_hvm10/im46.png","","","null","46","4","2"
"","html-button-response","162","148807","0.0-162.0","935","","","","1","","",""
"","html-keyboard-response","163","149808","0.0-163.0","null","<div style=""font-size:60px;"">+</div>","null","","","","",""
"","image-button-response","164","150312","0.0-164.0","null","stimuli/images_hvm10/im86.png","","","null","86","9","4"
"","html-button-response","165","151303","0.0-165.0","991","","","","1","","",""
"","html-keyboard-response","166","152306","0.0-166.0","null","<div style=""font-size:60px;"">+</div>","null","","","","",""
"","image-button-response","167","152809","0.0-167.0","null","stimuli/images_hvm10/im28.png","","","null","28","1","6"
"","html-button-response","168","153526","0.0-168.0","716","","","","0","","",""
"","html-keyboard-response","169","154529","0.0-169.0","null","<div style=""font-size:60px;"">+</div>","null","","","","",""
"","image-button-response","170","155030","0.0-170.0","null","stimuli/images_hvm10/im87.png","","","null","87","4","1"
"","html-button-response","171","156023","0.0-171.0","992","","","","1","","",""
"","html-keyboard-response","172","157026","0.0-172.0","null","<div style=""font-size:60px;"">+</div>","null","","","","",""
"","image-button-response","173","157526","0.0-173.0","null","stimuli/images_hvm10/im31.png","","","null","31","5","1"
"","html-button-response","174","158145","0.0-174.0","618","","","","1","","",""
"","html-keyboard-response","175","159147","0.0-175.0","null","<div style=""font-size:60px;"">+</div>","null","","","","",""
"","image-button-response","176","159652","0.0-176.0","null","stimuli/images_hvm10/im92.png","","","null","92","6","4"
"","html-button-response","177","160263","0.0-177.0","611","","","","1","","",""
"","html-keyboard-response","178","161266","0.0-178.0","null","<div style=""font-size:60px;"">+</div>","null","","","","",""
"","image-button-response","179","161767","0.0-179.0","null","stimuli/images_hvm10/im93.png","","","null","93","1","4"
"","html-button-response","180","162904","0.0-180.0","1137","","","","0","","",""
"","html-keyboard-response","181","163904","0.0-181.0","null","<div style=""font-size:60px;"">+</div>","null","","","","",""
"","image-button-response","182","164407","0.0-182.0","null","stimuli/images_hvm10/im11.png","","","null","11","0","7"
"","html-button-response","183","165184","0.0-183.0","778","","","","0","","",""
"","html-keyboard-response","184","166187","0.0-184.0","null","<div style=""font-size:60px;"">+</div>","null","","","","",""
"","image-button-response","185","166692","0.0-185.0","null","stimuli/images_hvm10/im91.png","","","null","91","4","3"
"","html-button-response","186","167545","0.0-186.0","853","","","","0","","",""
"","html-keyboard-response","187","168548","0.0-187.0","null","<div style=""font-size:60px;"">+</div>","null","","","","",""
"","image-button-response","188","169051","0.0-188.0","null","stimuli/images_hvm10/im17.png","","","null","17","0","4"
"","html-button-response","189","169658","0.0-189.0","606","","","","0","","",""
"","html-keyboard-response","190","170663","0.0-190.0","null","<div style=""font-size:60px;"">+</div>","null","","","","",""
"","image-button-response","191","171164","0.0-191.0","null","stimuli/images_hvm10/im94.png","","","null","94","1","4"
"","html-button-response","192","171985","0.0-192.0","821","","","","1","","",""
"","html-keyboard-response","193","172989","0.0-193.0","null","<div style=""font-size:60px;"">+</div>","null","","","","",""
"","image-button-response","194","173491","0.0-194.0","null","stimuli/images_hvm10/im22.png","","","null","22","8","1"
"","html-button-response","195","174298","0.0-195.0","806","","","","1","","",""
"","html-keyboard-response","196","175301","0.0-196.0","null","<div style=""font-size:60px;"">+</div>","null","","","","",""
"","image-button-response","197","175803","0.0-197.0","null","stimuli/images_hvm10/im88.png","","","null","88","4","3"
"","html-button-response","198","176834","0.0-198.0","1031","","","","0","","",""
"","html-keyboard-response","199","177837","0.0-199.0","null","<div style=""font-size:60px;"">+</div>","null","","","","",""
"","image-button-response","200","178339","0.0-200.0","null","stimuli/images_hvm10/im47.png","","","null","47","2","8"
"","html-button-response","201","179715","0.0-201.0","1375","","","","0","","",""
"","html-keyboard-response","202","180716","0.0-202.0","null","<div style=""font-size:60px;"">+</div>","null","","","","",""
"","image-button-response","203","181217","0.0-203.0","null","stimuli/images_hvm10/im95.png","","","null","95","4","1"
"","html-button-response","204","181859","0.0-204.0","642","","","","0","","",""
"","html-keyboard-response","205","182865","0.0-205.0","null","<div style=""font-size:60px;"">+</div>","null","","","","",""
"","image-button-response","206","183366","0.0-206.0","null","stimuli/images_hvm10/im89.png","","","null","89","4","9"
"","html-button-response","207","184252","0.0-207.0","885","","","","0","","",""
"","html-keyboard-response","208","185254","0.0-208.0","null","<div style=""font-size:60px;"">+</div>","null","","","","",""
"","image-button-response","209","185755","0.0-209.0","null","stimuli/images_hvm10/im90.png","","","null","90","4","8"
"","html-button-response","210","186499","0.0-210.0","743","","","","0","","",""
"","html-keyboard-response","211","187502","0.0-211.0","null","<div style=""font-size:60px;"">+</div>","null","","","","",""
"","image-button-response","212","188006","0.0-212.0","null","stimuli/images_hvm10/im98.png","","","null","98","2","4"
"","html-button-response","213","189013","0.0-213.0","1005","","","","0","","",""
"","html-keyboard-response","214","190015","0.0-214.0","null","<div style=""font-size:60px;"">+</div>","null","","","","",""
"","image-button-response","215","190520","0.0-215.0","null","stimuli/images_hvm10/im96.png","","","null","96","3","4"
"","html-button-response","216","191445","0.0-216.0","923","","","","1","","",""
"","html-keyboard-response","217","192449","0.0-217.0","null","<div style=""font-size:60px;"">+</div>","null","","","","",""
"","image-button-response","218","192953","0.0-218.0","null","stimuli/images_hvm10/im97.png","","","null","97","0","4"
"","html-button-response","219","193644","0.0-219.0","691","","","","1","","",""
"","html-keyboard-response","220","194647","0.0-220.0","null","<div style=""font-size:60px;"">+</div>","null","","","","",""
"","image-button-response","221","195148","0.0-221.0","null","stimuli/images_hvm10/im99.png","","","null","99","8","4"
"","html-button-response","222","195877","0.0-222.0","727","","","","1","","",""
"","html-keyboard-response","223","196881","0.0-223.0","null","<div style=""font-size:60px;"">+</div>","null","","","","",""
"","image-button-response","224","197387","0.0-224.0","null","stimuli/images_hvm10/im101.png","","","null","101","5","7"
"","html-button-response","225","198350","0.0-225.0","961","","","","1","","",""
"","html-keyboard-response","226","199355","0.0-226.0","null","<div style=""font-size:60px;"">+</div>","null","","","","",""
"","image-button-response","227","199856","0.0-227.0","null","stimuli/images_hvm10/im100.png","","","null","100","3","5"
"","html-button-response","228","200454","0.0-228.0","595","","","","1","","",""
"","html-keyboard-response","229","201457","0.0-229.0","null","<div style=""font-size:60px;"">+</div>","null","","","","",""
"","image-button-response","230","201964","0.0-230.0","null","stimuli/images_hvm10/im56.png","","","null","56","9","2"
"","html-button-response","231","202750","0.0-231.0","786","","","","1","","",""
"","html-keyboard-response","232","203756","0.0-232.0","null","<div style=""font-size:60px;"">+</div>","null","","","","",""
"","image-button-response","233","204259","0.0-233.0","null","stimuli/images_hvm10/im10.png","","","null","10","0","8"
"","html-button-response","234","205207","0.0-234.0","947","","","","0","","",""
"","html-keyboard-response","235","206211","0.0-235.0","null","<div style=""font-size:60px;"">+</div>","null","","","","",""
"","image-button-response","236","206714","0.0-236.0","null","stimuli/images_hvm10/im102.png","","","null","102","5","4"
"","html-button-response","237","207335","0.0-237.0","621","","","","0","","",""
"","html-keyboard-response","238","208338","0.0-238.0","null","<div style=""font-size:60px;"">+</div>","null","","","","",""
"","image-button-response","239","208844","0.0-239.0","null","stimuli/images_hvm10/im105.png","","","null","105","8","5"
"","html-button-response","240","209647","0.0-240.0","803","","","","1","","",""
"","html-keyboard-response","241","210651","0.0-241.0","null","<div style=""font-size:60px;"">+</div>","null","","","","",""
"","image-button-response","242","211152","0.0-242.0","null","stimuli/images_hvm10/im103.png","","","null","103","5","3"
"","html-button-response","243","211904","0.0-243.0","750","","","","0","","",""
"","html-keyboard-response","244","212908","0.0-244.0","null","<div style=""font-size:60px;"">+</div>","null","","","","",""
"","image-button-response","245","213411","0.0-245.0","null","stimuli/images_hvm10/im104.png","","","null","104","7","5"
"","html-button-response","246","214200","0.0-246.0","788","","","","1","","",""
"","html-keyboard-response","247","215201","0.0-247.0","null","<div style=""font-size:60px;"">+</div>","null","","","","",""
"","image-button-response","248","215702","0.0-248.0","null","stimuli/images_hvm10/im12.png","","","null","12","8","0"
"","html-button-response","249","216656","0.0-249.0","953","","","","1","","",""
"","html-keyboard-response","250","217659","0.0-250.0","null","<div style=""font-size:60px;"">+</div>","null","","","","",""
"","image-button-response","251","218160","0.0-251.0","null","stimuli/images_hvm10/im106.png","","","null","106","0","5"
"","html-button-response","252","218872","0.0-252.0","712","","","","1","","",""
"","html-keyboard-response","253","219873","0.0-253.0","null","<div style=""font-size:60px;"">+</div>","null","","","","",""
"","image-button-response","254","220374","0.0-254.0","null","stimuli/images_hvm10/im107.png","","","null","107","5","0"
"","html-button-response","255","221337","0.0-255.0","962","","","","0","","",""
"","html-keyboard-response","256","222340","0.0-256.0","null","<div style=""font-size:60px;"">+</div>","null","","","","",""
"","image-button-response","257","222841","0.0-257.0","null","stimuli/images_hvm10/im109.png","","","null","109","5","2"
"","html-button-response","258","223465","0.0-258.0","624","","","","0","","",""
"","html-keyboard-response","259","224468","0.0-259.0","null","<div style=""font-size:60px;"">+</div>","null","","","","",""
"","image-button-response","260","224968","0.0-260.0","null","stimuli/images_hvm10/im57.png","","","null","57","7","2"
"","html-button-response","261","225617","0.0-261.0","648","","","","1","","",""
"","html-keyboard-response","262","226618","0.0-262.0","null","<div style=""font-size:60px;"">+</div>","null","","","","",""
"","image-button-response","263","227124","0.0-263.0","null","stimuli/images_hvm10/im48.png","","","null","48","3","2"
"","html-button-response","264","228578","0.0-264.0","1455","","","","1","","",""
"","html-keyboard-response","265","229579","0.0-265.0","null","<div style=""font-size:60px;"">+</div>","null","","","","",""
"","image-button-response","266","230081","0.0-266.0","null","stimuli/images_hvm10/im58.png","","","null","58","2","8"
"","html-button-response","267","230986","0.0-267.0","905","","","","0","","",""
"","html-keyboard-response","268","231989","0.0-268.0","null","<div style=""font-size:60px;"">+</div>","null","","","","",""
"","image-button-response","269","232492","0.0-269.0","null","stimuli/images_hvm10/im59.png","","","null","59","2","6"
"","html-button-response","270","233138","0.0-270.0","646","","","","0","","",""
"","html-keyboard-response","271","234142","0.0-271.0","null","<div style=""font-size:60px;"">+</div>","null","","","","",""
"","image-button-response","272","234644","0.0-272.0","null","stimuli/images_hvm10/im108.png","","","null","108","9","5"
"","html-button-response","273","235812","0.0-273.0","1167","","","","1","","",""
"","html-keyboard-response","274","236815","0.0-274.0","null","<div style=""font-size:60px;"">+</div>","null","","","","",""
"","image-button-response","275","237315","0.0-275.0","null","stimuli/images_hvm10/im3.png","","","null","3","1","0"
"","html-button-response","276","238571","0.0-276.0","1255","","","","1","","",""
"","html-keyboard-response","277","239575","0.0-277.0","null","<div style=""font-size:60px;"">+</div>","null","","","","",""
"","image-button-response","278","240076","0.0-278.0","null","stimuli/images_hvm10/im50.png","","","null","50","2","1"
"","html-button-response","279","240772","0.0-279.0","695","","","","0","","",""
"","html-keyboard-response","280","241775","0.0-280.0","null","<div style=""font-size:60px;"">+</div>","null","","","","",""
"","image-button-response","281","242279","0.0-281.0","null","stimuli/images_hvm10/im110.png","","","null","110","8","5"
"","html-button-response","282","242940","0.0-282.0","660","","","","1","","",""
"","html-keyboard-response","283","243942","0.0-283.0","null","<div style=""font-size:60px;"">+</div>","null","","","","",""
"","image-button-response","284","244443","0.0-284.0","null","stimuli/images_hvm10/im63.png","","","null","63","3","9"
"","html-button-response","285","245244","0.0-285.0","800","","","","0","","",""
"","html-keyboard-response","286","246247","0.0-286.0","null","<div style=""font-size:60px;"">+</div>","null","","","","",""
"","image-button-response","287","246750","0.0-287.0","null","stimuli/images_hvm10/im111.png","","","null","111","5","6"
"","html-button-response","288","247373","0.0-288.0","623","","","","0","","",""
"","html-keyboard-response","289","248373","0.0-289.0","null","<div style=""font-size:60px;"">+</div>","null","","","","",""
"","image-button-response","290","248875","0.0-290.0","null","stimuli/images_hvm10/im113.png","","","null","113","3","5"
"","html-button-response","291","249685","0.0-291.0","808","","","","1","","",""
"","html-keyboard-response","292","250687","0.0-292.0","null","<div style=""font-size:60px;"">+</div>","null","","","","",""
"","image-button-response","293","251187","0.0-293.0","null","stimuli/images_hvm10/im114.png","","","null","114","2","5"
"","html-button-response","294","251741","0.0-294.0","552","","","","1","","",""
"","html-keyboard-response","295","252744","0.0-295.0","null","<div style=""font-size:60px;"">+</div>","null","","","","",""
"","image-button-response","296","253246","0.0-296.0","null","stimuli/images_hvm10/im115.png","","","null","115","1","5"
"","html-button-response","297","253822","0.0-297.0","575","","","","1","","",""
"","html-keyboard-response","298","254826","0.0-298.0","null","<div style=""font-size:60px;"">+</div>","null","","","","",""
"","image-button-response","299","255329","0.0-299.0","null","stimuli/images_hvm10/im51.png","","","null","51","2","4"
"","html-button-response","300","256325","0.0-300.0","995","","","","0","","",""
"","html-keyboard-response","301","257328","0.0-301.0","null","<div style=""font-size:60px;"">+</div>","null","","","","",""
"","image-button-response","302","257829","0.0-302.0","null","stimuli/images_hvm10/im112.png","","","null","112","5","2"
"","html-button-response","303","258469","0.0-303.0","641","","","","0","","",""
"","html-keyboard-response","304","259472","0.0-304.0","null","<div style=""font-size:60px;"">+</div>","null","","","","",""
"","image-button-response","305","259975","0.0-305.0","null","stimuli/images_hvm10/im118.png","","","null","118","1","5"
"","html-button-response","306","260903","0.0-306.0","928","","","","1","","",""
"","html-keyboard-response","307","261908","0.0-307.0","null","<div style=""font-size:60px;"">+</div>","null","","","","",""
"","image-button-response","308","262415","0.0-308.0","null","stimuli/images_hvm10/im15.png","","","null","15","0","1"
"","html-button-response","309","263229","0.0-309.0","813","","","","0","","",""
"","html-keyboard-response","310","264231","0.0-310.0","null","<div style=""font-size:60px;"">+</div>","null","","","","",""
"","image-button-response","311","264734","0.0-311.0","null","stimuli/images_hvm10/im60.png","","","null","60","3","0"
"","html-button-response","312","265536","0.0-312.0","799","","","","0","","",""
"","html-keyboard-response","313","266539","0.0-313.0","null","<div style=""font-size:60px;"">+</div>","null","","","","",""
"","image-button-response","314","267040","0.0-314.0","null","stimuli/images_hvm10/im62.png","","","null","62","5","3"
"","html-button-response","315","267816","0.0-315.0","775","","","","0","","",""
"","html-keyboard-response","316","268819","0.0-316.0","null","<div style=""font-size:60px;"">+</div>","null","","","","",""
"","image-button-response","317","269321","0.0-317.0","null","stimuli/images_hvm10/im117.png","","","null","117","5","2"
"","html-button-response","318","269983","0.0-318.0","661","","","","0","","",""
"","html-keyboard-response","319","270988","0.0-319.0","null","<div style=""font-size:60px;"">+</div>","null","","","","",""
"","image-button-response","320","271489","0.0-320.0","null","stimuli/images_hvm10/im116.png","","","null","116","9","5"
"","html-button-response","321","272239","0.0-321.0","750","","","","1","","",""
"","html-keyboard-response","322","273241","0.0-322.0","null","<div style=""font-size:60px;"">+</div>","null","","","","",""
"","image-button-response","323","273742","0.0-323.0","null","stimuli/images_hvm10/im119.png","","","null","119","5","6"
"","html-button-response","324","274664","0.0-324.0","920","","","","0","","",""
"","html-keyboard-response","325","275666","0.0-325.0","null","<div style=""font-size:60px;"">+</div>","null","","","","",""
"","image-button-response","326","276172","0.0-326.0","null","stimuli/images_hvm10/im124.png","","","null","124","6","0"
"","html-button-response","327","277264","0.0-327.0","1091","","","","0","","",""
"","html-keyboard-response","328","278268","0.0-328.0","null","<div style=""font-size:60px;"">+</div>","null","","","","",""
"","image-button-response","329","278768","0.0-329.0","null","stimuli/images_hvm10/im14.png","","","null","14","6","0"
"","html-button-response","330","279504","0.0-330.0","734","","","","1","","",""
"","html-keyboard-response","331","280505","0.0-331.0","null","<div style=""font-size:60px;"">+</div>","null","","","","",""
"","image-button-response","332","281006","0.0-332.0","null","stimuli/images_hvm10/im49.png","","","null","49","2","3"
"","html-button-response","333","282425","0.0-333.0","1418","","","","0","","",""
"","html-keyboard-response","334","283426","0.0-334.0","null","<div style=""font-size:60px;"">+</div>","null","","","","",""
"","image-button-response","335","283927","0.0-335.0","null","stimuli/images_hvm10/im125.png","","","null","125","6","4"
"","html-button-response","336","284722","0.0-336.0","795","","","","0","","",""
"","html-keyboard-response","337","285723","0.0-337.0","null","<div style=""font-size:60px;"">+</div>","null","","","","",""
"","image-button-response","338","286223","0.0-338.0","null","stimuli/images_hvm10/im61.png","","","null","61","6","3"
"","html-button-response","339","286898","0.0-339.0","675","","","","1","","",""
"","html-keyboard-response","340","287899","0.0-340.0","null","<div style=""font-size:60px;"">+</div>","null","","","","",""
"","image-button-response","341","288402","0.0-341.0","null","stimuli/images_hvm10/im120.png","","","null","120","6","3"
"","html-button-response","342","289195","0.0-342.0","791","","","","0","","",""
"","html-keyboard-response","343","290196","0.0-343.0","null","<div style=""font-size:60px;"">+</div>","null","","","","",""
"","image-button-response","344","290697","0.0-344.0","null","stimuli/images_hvm10/im13.png","","","null","13","5","0"
"","html-button-response","345","291346","0.0-345.0","648","","","","1","","",""
"","html-keyboard-response","346","292347","0.0-346.0","null","<div style=""font-size:60px;"">+</div>","null","","","","",""
"","image-button-response","347","292849","0.0-347.0","null","stimuli/images_hvm10/im122.png","","","null","122","4","6"
"","html-button-response","348","293715","0.0-348.0","865","","","","1","","",""
"","html-keyboard-response","349","294717","0.0-349.0","null","<div style=""font-size:60px;"">+</div>","null","","","","",""
"","image-button-response","350","295218","0.0-350.0","null","stimuli/images_hvm10/im121.png","","","null","121","6","8"
"","html-button-response","351","296090","0.0-351.0","872","","","","0","","",""
"","html-keyboard-response","352","297092","0.0-352.0","null","<div style=""font-size:60px;"">+</div>","null","","","","",""
"","image-button-response","353","297593","0.0-353.0","null","stimuli/images_hvm10/im123.png","","","null","123","6","0"
"","html-button-response","354","298123","0.0-354.0","529","","","","0","","",""
"","html-keyboard-response","355","299126","0.0-355.0","null","<div style=""font-size:60px;"">+</div>","null","","","","",""
"","image-button-response","356","299628","0.0-356.0","null","stimuli/images_hvm10/im27.png","","","null","27","1","5"
"","html-button-response","357","300324","0.0-357.0","695","","","","0","","",""
"","html-keyboard-response","358","301326","0.0-358.0","null","<div style=""font-size:60px;"">+</div>","null","","","","",""
"","image-button-response","359","301828","0.0-359.0","null","stimuli/images_hvm10/im126.png","","","null","126","6","2"
"","html-button-response","360","302428","0.0-360.0","598","","","","0","","",""
"","html-keyboard-response","361","303428","0.0-361.0","null","<div style=""font-size:60px;"">+</div>","null","","","","",""
"","image-button-response","362","303929","0.0-362.0","null","stimuli/images_hvm10/im54.png","","","null","54","2","5"
"","html-button-response","363","304509","0.0-363.0","579","","","","0","","",""
"","html-keyboard-response","364","305510","0.0-364.0","null","<div style=""font-size:60px;"">+</div>","null","","","","",""
"","image-button-response","365","306012","0.0-365.0","null","stimuli/images_hvm10/im23.png","","","null","23","6","1"
"","html-button-response","366","306741","0.0-366.0","728","","","","1","","",""
"","html-keyboard-response","367","307745","0.0-367.0","null","<div style=""font-size:60px;"">+</div>","null","","","","",""
"","image-button-response","368","308250","0.0-368.0","null","stimuli/images_hvm10/im127.png","","","null","127","6","0"
"","html-button-response","369","309028","0.0-369.0","778","","","","0","","",""
"","html-keyboard-response","370","310031","0.0-370.0","null","<div style=""font-size:60px;"">+</div>","null","","","","",""
"","image-button-response","371","310531","0.0-371.0","null","stimuli/images_hvm10/im19.png","","","null","19","0","4"
"","html-button-response","372","311101","0.0-372.0","569","","","","0","","",""
"","html-keyboard-response","373","312106","0.0-373.0","null","<div style=""font-size:60px;"">+</div>","null","","","","",""
"","image-button-response","374","312610","0.0-374.0","null","stimuli/images_hvm10/im18.png","","","null","18","0","3"
"","html-button-response","375","313093","0.0-375.0","483","","","","0","","",""
"","html-keyboard-response","376","314095","0.0-376.0","null","<div style=""font-size:60px;"">+</div>","null","","","","",""
"","image-button-response","377","314597","0.0-377.0","null","stimuli/images_hvm10/im52.png","","","null","52","5","2"
"","html-button-response","378","315294","0.0-378.0","697","","","","1","","",""
"","html-keyboard-response","379","316297","0.0-379.0","null","<div style=""font-size:60px;"">+</div>","null","","","","",""
"","image-button-response","380","316798","0.0-380.0","null","stimuli/images_hvm10/im24.png","","","null","24","2","1"
"","html-button-response","381","317623","0.0-381.0","823","","","","1","","",""
"","html-keyboard-response","382","318625","0.0-382.0","null","<div style=""font-size:60px;"">+</div>","null","","","","",""
"","image-button-response","383","319126","0.0-383.0","null","stimuli/images_hvm10/im55.png","","","null","55","2","0"
"","html-button-response","384","319727","0.0-384.0","601","","","","0","","",""
"","html-keyboard-response","385","320729","0.0-385.0","null","<div style=""font-size:60px;"">+</div>","null","","","","",""
"","image-button-response","386","321236","0.0-386.0","null","stimuli/images_hvm10/im53.png","","","null","53","2","5"
"","html-button-response","387","321766","0.0-387.0","531","","","","0","","",""
"","html-keyboard-response","388","322769","0.0-388.0","null","<div style=""font-size:60px;"">+</div>","null","","","","",""
"","image-button-response","389","323270","0.0-389.0","null","stimuli/images_hvm10/im147.png","","","null","147","7","5"
"","html-button-response","390","324039","0.0-390.0","769","","","","0","","",""
"","html-keyboard-response","391","325042","0.0-391.0","null","<div style=""font-size:60px;"">+</div>","null","","","","",""
"","image-button-response","392","325544","0.0-392.0","null","stimuli/images_hvm10/im192.png","","","null","192","9","6"
"","html-button-response","393","326064","0.0-393.0","520","","","","0","","",""
"","html-keyboard-response","394","327067","0.0-394.0","null","<div style=""font-size:60px;"">+</div>","null","","","","",""
"","image-button-response","395","327569","0.0-395.0","null","stimuli/images_hvm10/im160.png","","","null","160","8","3"
"","html-button-response","396","328152","0.0-396.0","581","","","","0","","",""
"","html-keyboard-response","397","329155","0.0-397.0","null","<div style=""font-size:60px;"">+</div>","null","","","","",""
"","image-button-response","398","329661","0.0-398.0","null","stimuli/images_hvm10/im193.png","","","null","193","7","9"
"","html-button-response","399","330481","0.0-399.0","819","","","","1","","",""
"","html-keyboard-response","400","331484","0.0-400.0","null","<div style=""font-size:60px;"">+</div>","null","","","","",""
"","image-button-response","401","331986","0.0-401.0","null","stimuli/images_hvm10/im162.png","","","null","162","8","4"
"","html-button-response","402","332592","0.0-402.0","606","","","","0","","",""
"","html-keyboard-response","403","333595","0.0-403.0","null","<div style=""font-size:60px;"">+</div>","null","","","","",""
"","image-button-response","404","334098","0.0-404.0","null","stimuli/images_hvm10/im194.png","","","null","194","5","9"
"","html-button-response","405","334729","0.0-405.0","632","","","","1","","",""
"","html-keyboard-response","406","335733","0.0-406.0","null","<div style=""font-size:60px;"">+</div>","null","","","","",""
"","image-button-response","407","336233","0.0-407.0","null","stimuli/images_hvm10/im195.png","","","null","195","6","9"
"","html-button-response","408","337112","0.0-408.0","877","","","","1","","",""
"","html-keyboard-response","409","338117","0.0-409.0","null","<div style=""font-size:60px;"">+</div>","null","","","","",""
"","image-button-response","410","338623","0.0-410.0","null","stimuli/images_hvm10/im196.png","","","null","196","9","6"
"","html-button-response","411","339263","0.0-411.0","640","","","","0","","",""
"","html-keyboard-response","412","340264","0.0-412.0","null","<div style=""font-size:60px;"">+</div>","null","","","","",""
"","image-button-response","413","340767","0.0-413.0","null","stimuli/images_hvm10/im197.png","","","null","197","9","4"
"","html-button-response","414","341239","0.0-414.0","472","","","","0","","",""
"","html-keyboard-response","415","342242","0.0-415.0","null","<div style=""font-size:60px;"">+</div>","null","","","","",""
"","image-button-response","416","342744","0.0-416.0","null","stimuli/images_hvm10/im198.png","","","null","198","9","1"
"","html-button-response","417","343311","0.0-417.0","568","","","","0","","",""
"","html-keyboard-response","418","344313","0.0-418.0","null","<div style=""font-size:60px;"">+</div>","null","","","","",""
"","image-button-response","419","344818","0.0-419.0","null","stimuli/images_hvm10/im161.png","","","null","161","8","5"
"","html-button-response","420","345392","0.0-420.0","573","","","","0","","",""
"","html-keyboard-response","421","346397","0.0-421.0","null","<div style=""font-size:60px;"">+</div>","null","","","","",""
"","image-button-response","422","346898","0.0-422.0","null","stimuli/images_hvm10/im132.png","","","null","132","9","6"
"","html-button-response","423","348031","0.0-423.0","1132","","","","1","","",""
"","html-keyboard-response","424","349031","0.0-424.0","null","<div style=""font-size:60px;"">+</div>","null","","","","",""
"","image-button-response","425","349535","0.0-425.0","null","stimuli/images_hvm10/im163.png","","","null","163","8","2"
"","html-button-response","426","350184","0.0-426.0","649","","","","0","","",""
"","html-keyboard-response","427","351188","0.0-427.0","null","<div style=""font-size:60px;"">+</div>","null","","","","",""
"","image-button-response","428","351694","0.0-428.0","null","stimuli/images_hvm10/im166.png","","","null","166","2","8"
"","html-button-response","429","352544","0.0-429.0","849","","","","0","","",""
"","html-keyboard-response","430","353548","0.0-430.0","null","<div style=""font-size:60px;"">+</div>","null","","","","",""
"","image-button-response","431","354050","0.0-431.0","null","stimuli/images_hvm10/im129.png","","","null","129","9","6"
"","html-button-response","432","355064","0.0-432.0","1012","","","","0","","",""
"","html-keyboard-response","433","356069","0.0-433.0","null","<div style=""font-size:60px;"">+</div>","null","","","","",""
"","image-button-response","434","356570","0.0-434.0","null","stimuli/images_hvm10/im128.png","","","null","128","6","0"
"","html-button-response","435","357448","0.0-435.0","878","","","","0","","",""
"","html-keyboard-response","436","358451","0.0-436.0","null","<div style=""font-size:60px;"">+</div>","null","","","","",""
"","image-button-response","437","358952","0.0-437.0","null","stimuli/images_hvm10/im164.png","","","null","164","8","6"
"","html-button-response","438","359879","0.0-438.0","926","","","","0","","",""
"","html-keyboard-response","439","360882","0.0-439.0","null","<div style=""font-size:60px;"">+</div>","null","","","","",""
"","image-button-response","440","361383","0.0-440.0","null","stimuli/images_hvm10/im165.png","","","null","165","1","8"
"","html-button-response","441","362501","0.0-441.0","1117","","","","1","","",""
"","html-keyboard-response","442","363505","0.0-442.0","null","<div style=""font-size:60px;"">+</div>","null","","","","",""
"","image-button-response","443","364008","0.0-443.0","null","stimuli/images_hvm10/im133.png","","","null","133","6","4"
"","html-button-response","444","364701","0.0-444.0","692","","","","0","","",""
"","html-keyboard-response","445","365704","0.0-445.0","null","<div style=""font-size:60px;"">+</div>","null","","","","",""
"","image-button-response","446","366207","0.0-446.0","null","stimuli/images_hvm10/im167.png","","","null","167","8","4"
"","html-button-response","447","366773","0.0-447.0","566","","","","0","","",""
"","html-keyboard-response","448","367776","0.0-448.0","null","<div style=""font-size:60px;"">+</div>","null","","","","",""
"","image-button-response","449","368277","0.0-449.0","null","stimuli/images_hvm10/im168.png","","","null","168","1","8"
"","html-button-response","450","369061","0.0-450.0","783","","","","1","","",""
"","html-keyboard-response","451","370063","0.0-451.0","null","<div style=""font-size:60px;"">+</div>","null","","","","",""
"","image-button-response","452","370568","0.0-452.0","null","stimuli/images_hvm10/im170.png","","","null","170","8","0"
"","html-button-response","453","371686","0.0-453.0","1117","","","","0","","",""
"","html-keyboard-response","454","372689","0.0-454.0","null","<div style=""font-size:60px;"">+</div>","null","","","","",""
"","image-button-response","455","373191","0.0-455.0","null","stimuli/images_hvm10/im171.png","","","null","171","8","2"
"","html-button-response","456","373726","0.0-456.0","533","","","","0","","",""
"","html-keyboard-response","457","374729","0.0-457.0","null","<div style=""font-size:60px;"">+</div>","null","","","","",""
"","image-button-response","458","375232","0.0-458.0","null","stimuli/images_hvm10/im169.png","","","null","169","8","6"
"","html-button-response","459","375791","0.0-459.0","559","","","","0","","",""
"","html-keyboard-response","460","376795","0.0-460.0","null","<div style=""font-size:60px;"">+</div>","null","","","","",""
"","image-button-response","461","377298","0.0-461.0","null","stimuli/images_hvm10/im146.png","","","null","146","7","0"
"","html-button-response","462","378143","0.0-462.0","843","","","","0","","",""
"","html-keyboard-response","463","379146","0.0-463.0","null","<div style=""font-size:60px;"">+</div>","null","","","","",""
"","image-button-response","464","379647","0.0-464.0","null","stimuli/images_hvm10/im134.png","","","null","134","9","6"
"","html-button-response","465","380383","0.0-465.0","735","","","","0","","",""
"","html-keyboard-response","466","381385","0.0-466.0","null","<div style=""font-size:60px;"">+</div>","null","","","","",""
"","image-button-response","467","381888","0.0-467.0","null","stimuli/images_hvm10/im149.png","","","null","149","3","7"
"","html-button-response","468","382615","0.0-468.0","726","","","","1","","",""
"","html-keyboard-response","469","383617","0.0-469.0","null","<div style=""font-size:60px;"">+</div>","null","","","","",""
"","image-button-response","470","384119","0.0-470.0","null","stimuli/images_hvm10/im135.png","","","null","135","6","0"
"","html-button-response","471","385024","0.0-471.0","904","","","","0","","",""
"","html-keyboard-response","472","386024","0.0-472.0","null","<div style=""font-size:60px;"">+</div>","null","","","","",""
"","image-button-response","473","386525","0.0-473.0","null","stimuli/images_hvm10/im173.png","","","null","173","8","3"
"","html-button-response","474","387073","0.0-474.0","546","","","","0","","",""
"","html-keyboard-response","475","388077","0.0-475.0","null","<div style=""font-size:60px;"">+</div>","null","","","","",""
"","image-button-response","476","388581","0.0-476.0","null","stimuli/images_hvm10/im130.png","","","null","130","9","6"
"","html-button-response","477","389658","0.0-477.0","1076","","","","1","","",""
"","html-keyboard-response","478","390660","0.0-478.0","null","<div style=""font-size:60px;"">+</div>","null","","","","",""
"","image-button-response","479","391161","0.0-479.0","null","stimuli/images_hvm10/im144.png","","","null","144","1","7"
"","html-button-response","480","391953","0.0-480.0","790","","","","1","","",""
"","html-keyboard-response","481","392957","0.0-481.0","null","<div style=""font-size:60px;"">+</div>","null","","","","",""
"","image-button-response","482","393458","0.0-482.0","null","stimuli/images_hvm10/im148.png","","","null","148","7","3"
"","html-button-response","483","394082","0.0-483.0","621","","","","0","","",""
"","html-keyboard-response","484","395084","0.0-484.0","null","<div style=""font-size:60px;"">+</div>","null","","","","",""
"","image-button-response","485","395590","0.0-485.0","null","stimuli/images_hvm10/im174.png","","","null","174","8","6"
"","html-button-response","486","396105","0.0-486.0","514","","","","0","","",""
"","html-keyboard-response","487","397111","0.0-487.0","null","<div style=""font-size:60px;"">+</div>","null","","","","",""
"","image-button-response","488","397613","0.0-488.0","null","stimuli/images_hvm10/im172.png","","","null","172","8","7"
"","html-button-response","489","398466","0.0-489.0","852","","","","0","","",""
"","html-keyboard-response","490","399469","0.0-490.0","null","<div style=""font-size:60px;"">+</div>","null","","","","",""
"","image-button-response","491","399973","0.0-491.0","null","stimuli/images_hvm10/im175.png","","","null","175","8","1"
"","html-button-response","492","400507","0.0-492.0","533","","","","0","","",""
"","html-keyboard-response","493","401509","0.0-493.0","null","<div style=""font-size:60px;"">+</div>","null","","","","",""
"","image-button-response","494","402010","0.0-494.0","null","stimuli/images_hvm10/im184.png","","","null","184","6","9"
"","html-button-response","495","402627","0.0-495.0","615","","","","1","","",""
"","html-keyboard-response","496","403630","0.0-496.0","null","<div style=""font-size:60px;"">+</div>","null","","","","",""
"","image-button-response","497","404133","0.0-497.0","null","stimuli/images_hvm10/im131.png","","","null","131","9","6"
"","html-button-response","498","404955","0.0-498.0","821","","","","1","","",""
"","html-keyboard-response","499","405957","0.0-499.0","null","<div style=""font-size:60px;"">+</div>","null","","","","",""
"","image-button-response","500","406457","0.0-500.0","null","stimuli/images_hvm10/im145.png","","","null","145","7","6"
"","html-button-response","501","407075","0.0-501.0","615","","","","0","","",""
"","html-keyboard-response","502","408078","0.0-502.0","null","<div style=""font-size:60px;"">+</div>","null","","","","",""
"","image-button-response","503","408578","0.0-503.0","null","stimuli/images_hvm10/im150.png","","","null","150","3","7"
"","html-button-response","504","409499","0.0-504.0","919","","","","1","","",""
"","html-keyboard-response","505","410502","0.0-505.0","null","<div style=""font-size:60px;"">+</div>","null","","","","",""
"","image-button-response","506","411005","0.0-506.0","null","stimuli/images_hvm10/im151.png","","","null","151","7","4"
"","html-button-response","507","412010","0.0-507.0","1006","","","","0","","",""
"","html-keyboard-response","508","413012","0.0-508.0","null","<div style=""font-size:60px;"">+</div>","null","","","","",""
"","image-button-response","509","413513","0.0-509.0","null","stimuli/images_hvm10/im137.png","","","null","137","6","7"
"","html-button-response","510","414650","0.0-510.0","1136","","","","1","","",""
"","html-keyboard-response","511","415653","0.0-511.0","null","<div style=""font-size:60px;"">+</div>","null","","","","",""
"","image-button-response","512","416156","0.0-512.0","null","stimuli/images_hvm10/im141.png","","","null","141","7","9"
"","html-button-response","513","417122","0.0-513.0","966","","","","0","","",""
"","html-keyboard-response","514","418122","0.0-514.0","null","<div style=""font-size:60px;"">+</div>","null","","","","",""
"","image-button-response","515","418626","0.0-515.0","null","stimuli/images_hvm10/im181.png","","","null","181","2","9"
"","html-button-response","516","419491","0.0-516.0","864","","","","1","","",""
"","html-keyboard-response","517","420494","0.0-517.0","null","<div style=""font-size:60px;"">+</div>","null","","","","",""
"","image-button-response","518","420996","0.0-518.0","null","stimuli/images_hvm10/im185.png","","","null","185","4","9"
"","html-button-response","519","421578","0.0-519.0","581","","","","1","","",""
"","html-keyboard-response","520","422579","0.0-520.0","null","<div style=""font-size:60px;"">+</div>","null","","","","",""
"","image-button-response","521","423082","0.0-521.0","null","stimuli/images_hvm10/im183.png","","","null","183","6","9"
"","html-button-response","522","424417","0.0-522.0","1335","","","","1","","",""
"","html-keyboard-response","523","425420","0.0-523.0","null","<div style=""font-size:60px;"">+</div>","null","","","","",""
"","image-button-response","524","425921","0.0-524.0","null","stimuli/images_hvm10/im142.png","","","null","142","7","5"
"","html-button-response","525","426625","0.0-525.0","703","","","","0","","",""
"","html-keyboard-response","526","427628","0.0-526.0","null","<div style=""font-size:60px;"">+</div>","null","","","","",""
"","image-button-response","527","428129","0.0-527.0","null","stimuli/images_hvm10/im177.png","","","null","177","3","8"
"","html-button-response","528","428994","0.0-528.0","864","","","","1","","",""
"","html-keyboard-response","529","429995","0.0-529.0","null","<div style=""font-size:60px;"">+</div>","null","","","","",""
"","image-button-response","530","430497","0.0-530.0","null","stimuli/images_hvm10/im176.png","","","null","176","2","8"
"","html-button-response","531","431171","0.0-531.0","672","","","","1","","",""
"","html-keyboard-response","532","432173","0.0-532.0","null","<div style=""font-size:60px;"">+</div>","null","","","","",""
"","image-button-response","533","432673","0.0-533.0","null","stimuli/images_hvm10/im180.png","","","null","180","3","9"
"","html-button-response","534","433274","0.0-534.0","600","","","","1","","",""
"","html-keyboard-response","535","434279","0.0-535.0","null","<div style=""font-size:60px;"">+</div>","null","","","","",""
"","image-button-response","536","434780","0.0-536.0","null","stimuli/images_hvm10/im138.png","","","null","138","6","2"
"","html-button-response","537","435601","0.0-537.0","820","","","","0","","",""
"","html-keyboard-response","538","436605","0.0-538.0","null","<div style=""font-size:60px;"">+</div>","null","","","","",""
"","image-button-response","539","437107","0.0-539.0","null","stimuli/images_hvm10/im182.png","","","null","182","8","9"
"","html-button-response","540","438523","0.0-540.0","1414","","","","1","","",""
"","html-keyboard-response","541","439525","0.0-541.0","null","<div style=""font-size:60px;"">+</div>","null","","","","",""
"","image-button-response","542","440026","0.0-542.0","null","stimuli/images_hvm10/im152.png","","","null","152","6","7"
"","html-button-response","543","440746","0.0-543.0","718","","","","1","","",""
"","html-keyboard-response","544","441748","0.0-544.0","null","<div style=""font-size:60px;"">+</div>","null","","","","",""
"","image-button-response","545","442249","0.0-545.0","null","stimuli/images_hvm10/im153.png","","","null","153","1","7"
"","html-button-response","546","442899","0.0-546.0","647","","","","1","","",""
"","html-keyboard-response","547","443901","0.0-547.0","null","<div style=""font-size:60px;"">+</div>","null","","","","",""
"","image-button-response","548","444402","0.0-548.0","null","stimuli/images_hvm10/im139.png","","","null","139","9","6"
"","html-button-response","549","445156","0.0-549.0","752","","","","1","","",""
"","html-keyboard-response","550","446158","0.0-550.0","null","<div style=""font-size:60px;"">+</div>","null","","","","",""
"","image-button-response","551","446660","0.0-551.0","null","stimuli/images_hvm10/im179.png","","","null","179","0","8"
"","html-button-response","552","447515","0.0-552.0","853","","","","0","","",""
"","html-keyboard-response","553","448521","0.0-553.0","null","<div style=""font-size:60px;"">+</div>","null","","","","",""
"","image-button-response","554","449024","0.0-554.0","null","stimuli/images_hvm10/im178.png","","","null","178","8","3"
"","html-button-response","555","449636","0.0-555.0","611","","","","0","","",""
"","html-keyboard-response","556","450639","0.0-556.0","null","<div style=""font-size:60px;"">+</div>","null","","","","",""
"","image-button-response","557","451142","0.0-557.0","null","stimuli/images_hvm10/im191.png","","","null","191","9","5"
"","html-button-response","558","451821","0.0-558.0","678","","","","0","","",""
"","html-keyboard-response","559","452823","0.0-559.0","null","<div style=""font-size:60px;"">+</div>","null","","","","",""
"","image-button-response","560","453325","0.0-560.0","null","stimuli/images_hvm10/im187.png","","","null","187","7","9"
"","html-button-response","561","453980","0.0-561.0","653","","","","1","","",""
"","html-keyboard-response","562","454983","0.0-562.0","null","<div style=""font-size:60px;"">+</div>","null","","","","",""
"","image-button-response","563","455485","0.0-563.0","null","stimuli/images_hvm10/im186.png","","","null","186","9","0"
"","html-button-response","564","456083","0.0-564.0","597","","","","0","","",""
"","html-keyboard-response","565","457085","0.0-565.0","null","<div style=""font-size:60px;"">+</div>","null","","","","",""
"","image-button-response","566","457586","0.0-566.0","null","stimuli/images_hvm10/im189.png","","","null","189","2","9"
"","html-button-response","567","458162","0.0-567.0","576","","","","1","","",""
"","html-keyboard-response","568","459165","0.0-568.0","null","<div style=""font-size:60px;"">+</div>","null","","","","",""
"","image-button-response","569","459669","0.0-569.0","null","stimuli/images_hvm10/im190.png","","","null","190","9","2"
"","html-button-response","570","460420","0.0-570.0","749","","","","0","","",""
"","html-keyboard-response","571","461420","0.0-571.0","null","<div style=""font-size:60px;"">+</div>","null","","","","",""
"","image-button-response","572","461921","0.0-572.0","null","stimuli/images_hvm10/im156.png","","","null","156","7","1"
"","html-button-response","573","462541","0.0-573.0","620","","","","0","","",""
"","html-keyboard-response","574","463544","0.0-574.0","null","<div style=""font-size:60px;"">+</div>","null","","","","",""
"","image-button-response","575","464045","0.0-575.0","null","stimuli/images_hvm10/im136.png","","","null","136","0","6"
"","html-button-response","576","465141","0.0-576.0","1095","","","","1","","",""
"","html-keyboard-response","577","466144","0.0-577.0","null","<div style=""font-size:60px;"">+</div>","null","","","","",""
"","image-button-response","578","466645","0.0-578.0","null","stimuli/images_hvm10/im157.png","","","null","157","6","7"
"","html-button-response","579","467309","0.0-579.0","664","","","","1","","",""
"","html-keyboard-response","580","468313","0.0-580.0","null","<div style=""font-size:60px;"">+</div>","null","","","","",""
"","image-button-response","581","468814","0.0-581.0","null","stimuli/images_hvm10/im140.png","","","null","140","7","6"
"","html-button-response","582","469486","0.0-582.0","672","","","","0","","",""
"","html-keyboard-response","583","470489","0.0-583.0","null","<div style=""font-size:60px;"">+</div>","null","","","","",""
"","image-button-response","584","470992","0.0-584.0","null","stimuli/images_hvm10/im143.png","","","null","143","0","7"
"","html-button-response","585","471998","0.0-585.0","1007","","","","1","","",""
"","html-keyboard-response","586","473002","0.0-586.0","null","<div style=""font-size:60px;"">+</div>","null","","","","",""
"","image-button-response","587","473503","0.0-587.0","null","stimuli/images_hvm10/im158.png","","","null","158","5","7"
"","html-button-response","588","474183","0.0-588.0","677","","","","1","","",""
"","html-keyboard-response","589","475187","0.0-589.0","null","<div style=""font-size:60px;"">+</div>","null","","","","",""
"","image-button-response","590","475688","0.0-590.0","null","stimuli/images_hvm10/im188.png","","","null","188","9","4"
"","html-button-response","591","476288","0.0-591.0","598","","","","0","","",""
"","html-keyboard-response","592","477290","0.0-592.0","null","<div style=""font-size:60px;"">+</div>","null","","","","",""
"","image-button-response","593","477792","0.0-593.0","null","stimuli/images_hvm10/im155.png","","","null","155","3","7"
"","html-button-response","594","478391","0.0-594.0","598","","","","1","","",""
"","html-keyboard-response","595","479394","0.0-595.0","null","<div style=""font-size:60px;"">+</div>","null","","","","",""
"","image-button-response","596","479896","0.0-596.0","null","stimuli/images_hvm10/im159.png","","","null","159","7","4"
"","html-button-response","597","480639","0.0-597.0","744","","","","0","","",""
"","html-keyboard-response","598","481642","0.0-598.0","null","<div style=""font-size:60px;"">+</div>","null","","","","",""
"","image-button-response","599","482143","0.0-599.0","null","stimuli/images_hvm10/im154.png","","","null","154","4","7"
"","html-button-response","600","482865","0.0-600.0","720","","","","1","","",""
