"success","trial_type","trial_index","time_elapsed","internal_node_id","rt","stimulus","key_press","responses","button_pressed","images","left_choice","right_choice"
"true","fullscreen","0","5033","0.0-0.0","","","","","","","",""
"","html-keyboard-response","1","7239","0.0-1.0","2203.9000000059605","Welcome to the experiment. Press any key to begin.","32","","","","",""
"","survey-html-form","2","20461","0.0-2.0","13219.09999999404","","","{""p_id"":""5452"",""age"":""19"",""handedness"":""left"",""sex"":""female"",""other_sex"":""""}","","","",""
"","html-keyboard-response","3","45907","0.0-3.0","25444","<p>Please fixate at the center '+' sign which will appear once you press any key. Then, <strong> an image </strong> will be shown in the center of the screen.</p><p>The image will contain an object.This will be followed by a <strong> Choice Screen </strong> containing two objects. Please choose the option <strong>[Click on the object]</strong> that you think was present in the image<p>Press any key to begin.</p>","39","","","","",""
"","html-keyboard-response","4","48912","0.0-4.0","null","<div style=""font-size:60px;"">+</div>","null","","","","",""
"","image-button-response","5","49417","0.0-5.0","null","stimuli/images_hvm10/im136.png","","","null","136","3","6"
"","html-button-response","6","52819","0.0-6.0","3400.5999999940395","","","","0","","",""
"","html-keyboard-response","7","53824","0.0-7.0","null","<div style=""font-size:60px;"">+</div>","null","","","","",""
"","image-button-response","8","54329","0.0-8.0","null","stimuli/images_hvm10/im11.png","","","null","11","5","0"
"","html-button-response","9","55756","0.0-9.0","1425","","","","1","","",""
"","html-keyboard-response","10","56759","0.0-10.0","null","<div style=""font-size:60px;"">+</div>","null","","","","",""
"","image-button-response","11","57264","0.0-11.0","null","stimuli/images_hvm10/im50.png","","","null","50","6","2"
"","html-button-response","12","59754","0.0-12.0","2487.800000011921","","","","1","","",""
"","html-keyboard-response","13","60759","0.0-13.0","null","<div style=""font-size:60px;"">+</div>","null","","","","",""
"","image-button-response","14","61266","0.0-14.0","null","stimuli/images_hvm10/im64.png","","","null","64","2","3"
"","html-button-response","15","63004","0.0-15.0","1735.5999999940395","","","","1","","",""
"","html-keyboard-response","16","64006","0.0-16.0","null","<div style=""font-size:60px;"">+</div>","null","","","","",""
"","image-button-response","17","64507","0.0-17.0","null","stimuli/images_hvm10/im85.png","","","null","85","4","6"
"","html-button-response","18","65741","0.0-18.0","1232.2999999821186","","","","1","","",""
"","html-keyboard-response","19","66746","0.0-19.0","null","<div style=""font-size:60px;"">+</div>","null","","","","",""
"","image-button-response","20","67250","0.0-20.0","null","stimuli/images_hvm10/im51.png","","","null","51","2","0"
"","html-button-response","21","68044","0.0-21.0","791.5999999940395","","","","0","","",""
"","html-keyboard-response","22","69048","0.0-22.0","null","<div style=""font-size:60px;"">+</div>","null","","","","",""
"","image-button-response","23","69554","0.0-23.0","null","stimuli/images_hvm10/im15.png","","","null","15","0","6"
"","html-button-response","24","70383","0.0-24.0","827","","","","0","","",""
"","html-keyboard-response","25","71387","0.0-25.0","null","<div style=""font-size:60px;"">+</div>","null","","","","",""
"","image-button-response","26","71892","0.0-26.0","null","stimuli/images_hvm10/im86.png","","","null","86","8","4"
"","html-button-response","27","73324","0.0-27.0","1429.699999988079","","","","0","","",""
"","html-keyboard-response","28","74330","0.0-28.0","null","<div style=""font-size:60px;"">+</div>","null","","","","",""
"","image-button-response","29","74837","0.0-29.0","null","stimuli/images_hvm10/im42.png","","","null","42","2","0"
"","html-button-response","30","76321","0.0-30.0","1482.5","","","","1","","",""
"","html-keyboard-response","31","77324","0.0-31.0","null","<div style=""font-size:60px;"">+</div>","null","","","","",""
"","image-button-response","32","77829","0.0-32.0","null","stimuli/images_hvm10/im37.png","","","null","37","1","3"
"","html-button-response","33","79594","0.0-33.0","1763.9000000059605","","","","1","","",""
"","html-keyboard-response","34","80596","0.0-34.0","null","<div style=""font-size:60px;"">+</div>","null","","","","",""
"","image-button-response","35","81104","0.0-35.0","null","stimuli/images_hvm10/im55.png","","","null","55","8","2"
"","html-button-response","36","82463","0.0-36.0","1357.699999988079","","","","0","","",""
"","html-keyboard-response","37","83468","0.0-37.0","null","<div style=""font-size:60px;"">+</div>","null","","","","",""
"","image-button-response","38","83971","0.0-38.0","null","stimuli/images_hvm10/im52.png","","","null","52","2","8"
"","html-button-response","39","84901","0.0-39.0","928.5999999940395","","","","0","","",""
"","html-keyboard-response","40","85905","0.0-40.0","null","<div style=""font-size:60px;"">+</div>","null","","","","",""
"","image-button-response","41","86412","0.0-41.0","null","stimuli/images_hvm10/im87.png","","","null","87","4","0"
"","html-button-response","42","87517","0.0-42.0","1103.300000011921","","","","0","","",""
"","html-keyboard-response","43","88523","0.0-43.0","null","<div style=""font-size:60px;"">+</div>","null","","","","",""
"","image-button-response","44","89030","0.0-44.0","null","stimuli/images_hvm10/im25.png","","","null","25","4","1"
"","html-button-response","45","90805","0.0-45.0","1773.4000000059605","","","","1","","",""
"","html-keyboard-response","46","91812","0.0-46.0","null","<div style=""font-size:60px;"">+</div>","null","","","","",""
"","image-button-response","47","92314","0.0-47.0","null","stimuli/images_hvm10/im33.png","","","null","33","1","4"
"","html-button-response","48","93259","0.0-48.0","943.5","","","","0","","",""
"","html-keyboard-response","49","94266","0.0-49.0","null","<div style=""font-size:60px;"">+</div>","null","","","","",""
"","image-button-response","50","94770","0.0-50.0","null","stimuli/images_hvm10/im5.png","","","null","5","0","2"
"","html-button-response","51","95477","0.0-51.0","706","","","","0","","",""
"","html-keyboard-response","52","96479","0.0-52.0","null","<div style=""font-size:60px;"">+</div>","null","","","","",""
"","image-button-response","53","96981","0.0-53.0","null","stimuli/images_hvm10/im24.png","","","null","24","1","5"
"","html-button-response","54","97826","0.0-54.0","843.2999999821186","","","","0","","",""
"","html-keyboard-response","55","98827","0.0-55.0","null","<div style=""font-size:60px;"">+</div>","null","","","","",""
"","image-button-response","56","99329","0.0-56.0","null","stimuli/images_hvm10/im28.png","","","null","28","5","1"
"","html-button-response","57","100279","0.0-57.0","948.8000000119209","","","","1","","",""
"","html-keyboard-response","58","101283","0.0-58.0","null","<div style=""font-size:60px;"">+</div>","null","","","","",""
"","image-button-response","59","101789","0.0-59.0","null","stimuli/images_hvm10/im61.png","","","null","61","2","3"
"","html-button-response","60","102529","0.0-60.0","738.7000000178814","","","","1","","",""
"","html-keyboard-response","61","103534","0.0-61.0","null","<div style=""font-size:60px;"">+</div>","null","","","","",""
"","image-button-response","62","104036","0.0-62.0","null","stimuli/images_hvm10/im76.png","","","null","76","3","5"
"","html-button-response","63","104965","0.0-63.0","927.7999999821186","","","","0","","",""
"","html-keyboard-response","64","105971","0.0-64.0","null","<div style=""font-size:60px;"">+</div>","null","","","","",""
"","image-button-response","65","106475","0.0-65.0","null","stimuli/images_hvm10/im102.png","","","null","102","5","3"
"","html-button-response","66","107118","0.0-66.0","641.5999999940395","","","","0","","",""
"","html-keyboard-response","67","108123","0.0-67.0","null","<div style=""font-size:60px;"">+</div>","null","","","","",""
"","image-button-response","68","108630","0.0-68.0","null","stimuli/images_hvm10/im158.png","","","null","158","2","7"
"","html-button-response","69","109675","0.0-69.0","1043.8999999761581","","","","1","","",""
"","html-keyboard-response","70","110681","0.0-70.0","null","<div style=""font-size:60px;"">+</div>","null","","","","",""
"","image-button-response","71","111184","0.0-71.0","null","stimuli/images_hvm10/im147.png","","","null","147","7","3"
"","html-button-response","72","111991","0.0-72.0","805.1999999880791","","","","0","","",""
"","html-keyboard-response","73","112994","0.0-73.0","null","<div style=""font-size:60px;"">+</div>","null","","","","",""
"","image-button-response","74","113496","0.0-74.0","null","stimuli/images_hvm10/im4.png","","","null","4","7","0"
"","html-button-response","75","114211","0.0-75.0","713.5999999940395","","","","1","","",""
"","html-keyboard-response","76","115216","0.0-76.0","null","<div style=""font-size:60px;"">+</div>","null","","","","",""
"","image-button-response","77","115720","0.0-77.0","null","stimuli/images_hvm10/im131.png","","","null","131","4","6"
"","html-button-response","78","116527","0.0-78.0","806.5","","","","1","","",""
"","html-keyboard-response","79","117532","0.0-79.0","null","<div style=""font-size:60px;"">+</div>","null","","","","",""
"","image-button-response","80","118039","0.0-80.0","null","stimuli/images_hvm10/im69.png","","","null","69","9","3"
"","html-button-response","81","118750","0.0-81.0","709.5999999940395","","","","1","","",""
"","html-keyboard-response","82","119752","0.0-82.0","null","<div style=""font-size:60px;"">+</div>","null","","","","",""
"","image-button-response","83","120257","0.0-83.0","null","stimuli/images_hvm10/im159.png","","","null","159","7","0"
"","html-button-response","84","121150","0.0-84.0","891.8999999761581","","","","0","","",""
"","html-keyboard-response","85","122153","0.0-85.0","null","<div style=""font-size:60px;"">+</div>","null","","","","",""
"","image-button-response","86","122660","0.0-86.0","null","stimuli/images_hvm10/im101.png","","","null","101","5","8"
"","html-button-response","87","123768","0.0-87.0","1105.5999999940395","","","","0","","",""
"","html-keyboard-response","88","124773","0.0-88.0","null","<div style=""font-size:60px;"">+</div>","null","","","","",""
"","image-button-response","89","125275","0.0-89.0","null","stimuli/images_hvm10/im66.png","","","null","66","9","3"
"","html-button-response","90","126070","0.0-90.0","794","","","","1","","",""
"","html-keyboard-response","91","127075","0.0-91.0","null","<div style=""font-size:60px;"">+</div>","null","","","","",""
"","image-button-response","92","127580","0.0-92.0","null","stimuli/images_hvm10/im167.png","","","null","167","8","4"
"","html-button-response","93","128425","0.0-93.0","843","","","","0","","",""
"","html-keyboard-response","94","129429","0.0-94.0","null","<div style=""font-size:60px;"">+</div>","null","","","","",""
"","image-button-response","95","129934","0.0-95.0","null","stimuli/images_hvm10/im154.png","","","null","154","2","7"
"","html-button-response","96","130774","0.0-96.0","838.7999999821186","","","","1","","",""
"","html-keyboard-response","97","131780","0.0-97.0","null","<div style=""font-size:60px;"">+</div>","null","","","","",""
"","image-button-response","98","132284","0.0-98.0","null","stimuli/images_hvm10/im116.png","","","null","116","5","3"
"","html-button-response","99","132927","0.0-99.0","640.9000000059605","","","","0","","",""
"","html-keyboard-response","100","133931","0.0-100.0","null","<div style=""font-size:60px;"">+</div>","null","","","","",""
"","image-button-response","101","134434","0.0-101.0","null","stimuli/images_hvm10/im36.png","","","null","36","1","7"
"","html-button-response","102","135194","0.0-102.0","759.1999999880791","","","","0","","",""
"","html-keyboard-response","103","136200","0.0-103.0","null","<div style=""font-size:60px;"">+</div>","null","","","","",""
"","image-button-response","104","136703","0.0-104.0","null","stimuli/images_hvm10/im2.png","","","null","2","0","1"
"","html-button-response","105","137711","0.0-105.0","1006.3000000119209","","","","0","","",""
"","html-keyboard-response","106","138716","0.0-106.0","null","<div style=""font-size:60px;"">+</div>","null","","","","",""
"","image-button-response","107","139218","0.0-107.0","null","stimuli/images_hvm10/im143.png","","","null","143","7","1"
"","html-button-response","108","139981","0.0-108.0","761.3000000119209","","","","1","","",""
"","html-keyboard-response","109","140983","0.0-109.0","null","<div style=""font-size:60px;"">+</div>","null","","","","",""
"","image-button-response","110","141486","0.0-110.0","null","stimuli/images_hvm10/im62.png","","","null","62","3","7"
"","html-button-response","111","142135","0.0-111.0","647.5","","","","0","","",""
"","html-keyboard-response","112","143138","0.0-112.0","null","<div style=""font-size:60px;"">+</div>","null","","","","",""
"","image-button-response","113","143640","0.0-113.0","null","stimuli/images_hvm10/im186.png","","","null","186","7","9"
"","html-button-response","114","144306","0.0-114.0","664.5","","","","1","","",""
"","html-keyboard-response","115","145311","0.0-115.0","null","<div style=""font-size:60px;"">+</div>","null","","","","",""
"","image-button-response","116","145817","0.0-116.0","null","stimuli/images_hvm10/im70.png","","","null","70","6","3"
"","html-button-response","117","146641","0.0-117.0","821.9000000059605","","","","1","","",""
"","html-keyboard-response","118","147647","0.0-118.0","null","<div style=""font-size:60px;"">+</div>","null","","","","",""
"","image-button-response","119","148150","0.0-119.0","null","stimuli/images_hvm10/im57.png","","","null","57","2","6"
"","html-button-response","120","148792","0.0-120.0","640.8000000119209","","","","0","","",""
"","html-keyboard-response","121","149797","0.0-121.0","null","<div style=""font-size:60px;"">+</div>","null","","","","",""
"","image-button-response","122","150304","0.0-122.0","null","stimuli/images_hvm10/im38.png","","","null","38","1","6"
"","html-button-response","123","150962","0.0-123.0","656.1000000238419","","","","0","","",""
"","html-keyboard-response","124","151967","0.0-124.0","null","<div style=""font-size:60px;"">+</div>","null","","","","",""
"","image-button-response","125","152474","0.0-125.0","null","stimuli/images_hvm10/im162.png","","","null","162","8","2"
"","html-button-response","126","153147","0.0-126.0","671","","","","0","","",""
"","html-keyboard-response","127","154153","0.0-127.0","null","<div style=""font-size:60px;"">+</div>","null","","","","",""
"","image-button-response","128","154660","0.0-128.0","null","stimuli/images_hvm10/im71.png","","","null","71","3","9"
"","html-button-response","129","155415","0.0-129.0","753.5999999940395","","","","0","","",""
"","html-keyboard-response","130","156419","0.0-130.0","null","<div style=""font-size:60px;"">+</div>","null","","","","",""
"","image-button-response","131","156924","0.0-131.0","null","stimuli/images_hvm10/im93.png","","","null","93","4","6"
"","html-button-response","132","157618","0.0-132.0","692.4000000059605","","","","0","","",""
"","html-keyboard-response","133","158622","0.0-133.0","null","<div style=""font-size:60px;"">+</div>","null","","","","",""
"","image-button-response","134","159127","0.0-134.0","null","stimuli/images_hvm10/im151.png","","","null","151","0","7"
"","html-button-response","135","159854","0.0-135.0","725.5999999940395","","","","1","","",""
"","html-keyboard-response","136","160858","0.0-136.0","null","<div style=""font-size:60px;"">+</div>","null","","","","",""
"","image-button-response","137","161362","0.0-137.0","null","stimuli/images_hvm10/im6.png","","","null","6","0","4"
"","html-button-response","138","162233","0.0-138.0","869.7000000178814","","","","0","","",""
"","html-keyboard-response","139","163238","0.0-139.0","null","<div style=""font-size:60px;"">+</div>","null","","","","",""
"","image-button-response","140","163745","0.0-140.0","null","stimuli/images_hvm10/im135.png","","","null","135","6","2"
"","html-button-response","141","164449","0.0-141.0","703.1999999880791","","","","0","","",""
"","html-keyboard-response","142","165453","0.0-142.0","null","<div style=""font-size:60px;"">+</div>","null","","","","",""
"","image-button-response","143","165956","0.0-143.0","null","stimuli/images_hvm10/im13.png","","","null","13","0","2"
"","html-button-response","144","166552","0.0-144.0","594.4000000059605","","","","0","","",""
"","html-keyboard-response","145","167556","0.0-145.0","null","<div style=""font-size:60px;"">+</div>","null","","","","",""
"","image-button-response","146","168057","0.0-146.0","null","stimuli/images_hvm10/im132.png","","","null","132","3","6"
"","html-button-response","147","168738","0.0-147.0","679.6000000238419","","","","1","","",""
"","html-keyboard-response","148","169743","0.0-148.0","null","<div style=""font-size:60px;"">+</div>","null","","","","",""
"","image-button-response","149","170250","0.0-149.0","null","stimuli/images_hvm10/im170.png","","","null","170","8","9"
"","html-button-response","150","170902","0.0-150.0","651.6999999880791","","","","0","","",""
"","html-keyboard-response","151","171907","0.0-151.0","null","<div style=""font-size:60px;"">+</div>","null","","","","",""
"","image-button-response","152","172412","0.0-152.0","null","stimuli/images_hvm10/im117.png","","","null","117","1","5"
"","html-button-response","153","173118","0.0-153.0","704.2000000178814","","","","1","","",""
"","html-keyboard-response","154","174124","0.0-154.0","null","<div style=""font-size:60px;"">+</div>","null","","","","",""
"","image-button-response","155","174630","0.0-155.0","null","stimuli/images_hvm10/im26.png","","","null","26","5","1"
"","html-button-response","156","175617","0.0-156.0","986.2999999821186","","","","1","","",""
"","html-keyboard-response","157","176623","0.0-157.0","null","<div style=""font-size:60px;"">+</div>","null","","","","",""
"","image-button-response","158","177130","0.0-158.0","null","stimuli/images_hvm10/im75.png","","","null","75","0","3"
"","html-button-response","159","177866","0.0-159.0","734.4000000059605","","","","1","","",""
"","html-keyboard-response","160","178871","0.0-160.0","null","<div style=""font-size:60px;"">+</div>","null","","","","",""
"","image-button-response","161","179378","0.0-161.0","null","stimuli/images_hvm10/im98.png","","","null","98","4","5"
"","html-button-response","162","180058","0.0-162.0","678.4000000059605","","","","0","","",""
"","html-keyboard-response","163","181063","0.0-163.0","null","<div style=""font-size:60px;"">+</div>","null","","","","",""
"","image-button-response","164","181570","0.0-164.0","null","stimuli/images_hvm10/im67.png","","","null","67","9","3"
"","html-button-response","165","182260","0.0-165.0","688.0999999940395","","","","1","","",""
"","html-keyboard-response","166","183266","0.0-166.0","null","<div style=""font-size:60px;"">+</div>","null","","","","",""
"","image-button-response","167","183773","0.0-167.0","null","stimuli/images_hvm10/im14.png","","","null","14","1","0"
"","html-button-response","168","185411","0.0-168.0","1636.6000000238419","","","","1","","",""
"","html-keyboard-response","169","186413","0.0-169.0","null","<div style=""font-size:60px;"">+</div>","null","","","","",""
"","image-button-response","170","186919","0.0-170.0","null","stimuli/images_hvm10/im196.png","","","null","196","9","7"
"","html-button-response","171","187607","0.0-171.0","686.8000000119209","","","","0","","",""
"","html-keyboard-response","172","188611","0.0-172.0","null","<div style=""font-size:60px;"">+</div>","null","","","","",""
"","image-button-response","173","189114","0.0-173.0","null","stimuli/images_hvm10/im7.png","","","null","7","0","6"
"","html-button-response","174","189679","0.0-174.0","563.2000000178814","","","","0","","",""
"","html-keyboard-response","175","190682","0.0-175.0","null","<div style=""font-size:60px;"">+</div>","null","","","","",""
"","image-button-response","176","191187","0.0-176.0","null","stimuli/images_hvm10/im104.png","","","null","104","1","5"
"","html-button-response","177","192595","0.0-177.0","1407.199999988079","","","","1","","",""
"","html-keyboard-response","178","193601","0.0-178.0","null","<div style=""font-size:60px;"">+</div>","null","","","","",""
"","image-button-response","179","194104","0.0-179.0","null","stimuli/images_hvm10/im188.png","","","null","188","3","9"
"","html-button-response","180","194792","0.0-180.0","686.6999999880791","","","","1","","",""
"","html-keyboard-response","181","195797","0.0-181.0","null","<div style=""font-size:60px;"">+</div>","null","","","","",""
"","image-button-response","182","196299","0.0-182.0","null","stimuli/images_hvm10/im103.png","","","null","103","0","5"
"","html-button-response","183","196942","0.0-183.0","641.5","","","","1","","",""
"","html-keyboard-response","184","197948","0.0-184.0","null","<div style=""font-size:60px;"">+</div>","null","","","","",""
"","image-button-response","185","198454","0.0-185.0","null","stimuli/images_hvm10/im10.png","","","null","10","8","0"
"","html-button-response","186","199152","0.0-186.0","696.6999999880791","","","","1","","",""
"","html-keyboard-response","187","200154","0.0-187.0","null","<div style=""font-size:60px;"">+</div>","null","","","","",""
"","image-button-response","188","200660","0.0-188.0","null","stimuli/images_hvm10/im35.png","","","null","35","1","7"
"","html-button-response","189","201717","0.0-189.0","1055.7999999821186","","","","0","","",""
"","html-keyboard-response","190","202722","0.0-190.0","null","<div style=""font-size:60px;"">+</div>","null","","","","",""
"","image-button-response","191","203224","0.0-191.0","null","stimuli/images_hvm10/im149.png","","","null","149","7","5"
"","html-button-response","192","203975","0.0-192.0","749.8000000119209","","","","0","","",""
"","html-keyboard-response","193","204981","0.0-193.0","null","<div style=""font-size:60px;"">+</div>","null","","","","",""
"","image-button-response","194","205483","0.0-194.0","null","stimuli/images_hvm10/im40.png","","","null","40","2","4"
"","html-button-response","195","206162","0.0-195.0","677","","","","0","","",""
"","html-keyboard-response","196","207167","0.0-196.0","null","<div style=""font-size:60px;"">+</div>","null","","","","",""
"","image-button-response","197","207670","0.0-197.0","null","stimuli/images_hvm10/im191.png","","","null","191","9","1"
"","html-button-response","198","208329","0.0-198.0","658.5","","","","0","","",""
"","html-keyboard-response","199","209335","0.0-199.0","null","<div style=""font-size:60px;"">+</div>","null","","","","",""
"","image-button-response","200","209838","0.0-200.0","null","stimuli/images_hvm10/im54.png","","","null","54","9","2"
"","html-button-response","201","210717","0.0-201.0","877.6999999880791","","","","1","","",""
"","html-keyboard-response","202","211721","0.0-202.0","null","<div style=""font-size:60px;"">+</div>","null","","","","",""
"","image-button-response","203","212222","0.0-203.0","null","stimuli/images_hvm10/im182.png","","","null","182","9","2"
"","html-button-response","204","212666","0.0-204.0","441.80000001192093","","","","0","","",""
"","html-keyboard-response","205","213671","0.0-205.0","null","<div style=""font-size:60px;"">+</div>","null","","","","",""
"","image-button-response","206","214173","0.0-206.0","null","stimuli/images_hvm10/im107.png","","","null","107","5","3"
"","html-button-response","207","214802","0.0-207.0","627.9000000059605","","","","0","","",""
"","html-keyboard-response","208","215806","0.0-208.0","null","<div style=""font-size:60px;"">+</div>","null","","","","",""
"","image-button-response","209","216308","0.0-209.0","null","stimuli/images_hvm10/im156.png","","","null","156","0","7"
"","html-button-response","210","216981","0.0-210.0","671.3000000119209","","","","1","","",""
"","html-keyboard-response","211","217985","0.0-211.0","null","<div style=""font-size:60px;"">+</div>","null","","","","",""
"","image-button-response","212","218488","0.0-212.0","null","stimuli/images_hvm10/im164.png","","","null","164","1","8"
"","html-button-response","213","220335","0.0-213.0","1845.0999999940395","","","","0","","",""
"","html-keyboard-response","214","221341","0.0-214.0","null","<div style=""font-size:60px;"">+</div>","null","","","","",""
"","image-button-response","215","221843","0.0-215.0","null","stimuli/images_hvm10/im99.png","","","null","99","6","4"
"","html-button-response","216","222455","0.0-216.0","609","","","","1","","",""
"","html-keyboard-response","217","223460","0.0-217.0","null","<div style=""font-size:60px;"">+</div>","null","","","","",""
"","image-button-response","218","223962","0.0-218.0","null","stimuli/images_hvm10/im45.png","","","null","45","3","2"
"","html-button-response","219","225655","0.0-219.0","1691.199999988079","","","","1","","",""
"","html-keyboard-response","220","226657","0.0-220.0","null","<div style=""font-size:60px;"">+</div>","null","","","","",""
"","image-button-response","221","227162","0.0-221.0","null","stimuli/images_hvm10/im53.png","","","null","53","2","7"
"","html-button-response","222","227888","0.0-222.0","724.6999999880791","","","","0","","",""
"","html-keyboard-response","223","228894","0.0-223.0","null","<div style=""font-size:60px;"">+</div>","null","","","","",""
"","image-button-response","224","229400","0.0-224.0","null","stimuli/images_hvm10/im166.png","","","null","166","8","2"
"","html-button-response","225","230175","0.0-225.0","772.5999999940395","","","","0","","",""
"","html-keyboard-response","226","231180","0.0-226.0","null","<div style=""font-size:60px;"">+</div>","null","","","","",""
"","image-button-response","227","231682","0.0-227.0","null","stimuli/images_hvm10/im100.png","","","null","100","5","7"
"","html-button-response","228","232277","0.0-228.0","593.1999999880791","","","","0","","",""
"","html-keyboard-response","229","233281","0.0-229.0","null","<div style=""font-size:60px;"">+</div>","null","","","","",""
"","image-button-response","230","233782","0.0-230.0","null","stimuli/images_hvm10/im29.png","","","null","29","8","1"
"","html-button-response","231","234448","0.0-231.0","664.4000000059605","","","","1","","",""
"","html-keyboard-response","232","235453","0.0-232.0","null","<div style=""font-size:60px;"">+</div>","null","","","","",""
"","image-button-response","233","235957","0.0-233.0","null","stimuli/images_hvm10/im183.png","","","null","183","5","9"
"","html-button-response","234","236602","0.0-234.0","643.8999999761581","","","","1","","",""
"","html-keyboard-response","235","237605","0.0-235.0","null","<div style=""font-size:60px;"">+</div>","null","","","","",""
"","image-button-response","236","238108","0.0-236.0","null","stimuli/images_hvm10/im0.png","","","null","0","0","1"
"","html-button-response","237","239188","0.0-237.0","1078.2000000178814","","","","0","","",""
"","html-keyboard-response","238","240194","0.0-238.0","null","<div style=""font-size:60px;"">+</div>","null","","","","",""
"","image-button-response","239","240697","0.0-239.0","null","stimuli/images_hvm10/im174.png","","","null","174","8","1"
"","html-button-response","240","241265","0.0-240.0","566.5999999940395","","","","0","","",""
"","html-keyboard-response","241","242269","0.0-241.0","null","<div style=""font-size:60px;"">+</div>","null","","","","",""
"","image-button-response","242","242774","0.0-242.0","null","stimuli/images_hvm10/im112.png","","","null","112","9","5"
"","html-button-response","243","243336","0.0-243.0","560.9000000059605","","","","1","","",""
"","html-keyboard-response","244","244341","0.0-244.0","null","<div style=""font-size:60px;"">+</div>","null","","","","",""
"","image-button-response","245","244847","0.0-245.0","null","stimuli/images_hvm10/im125.png","","","null","125","6","8"
"","html-button-response","246","245769","0.0-246.0","921.5999999940395","","","","0","","",""
"","html-keyboard-response","247","246773","0.0-247.0","null","<div style=""font-size:60px;"">+</div>","null","","","","",""
"","image-button-response","248","247277","0.0-248.0","null","stimuli/images_hvm10/im58.png","","","null","58","6","2"
"","html-button-response","249","247803","0.0-249.0","524.2999999821186","","","","1","","",""
"","html-keyboard-response","250","248807","0.0-250.0","null","<div style=""font-size:60px;"">+</div>","null","","","","",""
"","image-button-response","251","249310","0.0-251.0","null","stimuli/images_hvm10/im171.png","","","null","171","8","7"
"","html-button-response","252","249935","0.0-252.0","623.2999999821186","","","","0","","",""
"","html-keyboard-response","253","250937","0.0-253.0","null","<div style=""font-size:60px;"">+</div>","null","","","","",""
"","image-button-response","254","251442","0.0-254.0","null","stimuli/images_hvm10/im160.png","","","null","160","1","8"
"","html-button-response","255","252118","0.0-255.0","674.5999999940395","","","","1","","",""
"","html-keyboard-response","256","253123","0.0-256.0","null","<div style=""font-size:60px;"">+</div>","null","","","","",""
"","image-button-response","257","253628","0.0-257.0","null","stimuli/images_hvm10/im22.png","","","null","22","1","8"
"","html-button-response","258","254219","0.0-258.0","589.8000000119209","","","","0","","",""
"","html-keyboard-response","259","255223","0.0-259.0","null","<div style=""font-size:60px;"">+</div>","null","","","","",""
"","image-button-response","260","255725","0.0-260.0","null","stimuli/images_hvm10/im59.png","","","null","59","2","8"
"","html-button-response","261","256572","0.0-261.0","845.4000000059605","","","","0","","",""
"","html-keyboard-response","262","257576","0.0-262.0","null","<div style=""font-size:60px;"">+</div>","null","","","","",""
"","image-button-response","263","258109","0.0-263.0","null","stimuli/images_hvm10/im32.png","","","null","32","4","1"
"","html-button-response","264","258854","0.0-264.0","744","","","","1","","",""
"","html-keyboard-response","265","259859","0.0-265.0","null","<div style=""font-size:60px;"">+</div>","null","","","","",""
"","image-button-response","266","260366","0.0-266.0","null","stimuli/images_hvm10/im150.png","","","null","150","2","7"
"","html-button-response","267","261307","0.0-267.0","939.7000000178814","","","","1","","",""
"","html-keyboard-response","268","262310","0.0-268.0","null","<div style=""font-size:60px;"">+</div>","null","","","","",""
"","image-button-response","269","262814","0.0-269.0","null","stimuli/images_hvm10/im165.png","","","null","165","8","3"
"","html-button-response","270","263723","0.0-270.0","907.8000000119209","","","","0","","",""
"","html-keyboard-response","271","264727","0.0-271.0","null","<div style=""font-size:60px;"">+</div>","null","","","","",""
"","image-button-response","272","265230","0.0-272.0","null","stimuli/images_hvm10/im44.png","","","null","44","9","2"
"","html-button-response","273","265959","0.0-273.0","727.0999999940395","","","","1","","",""
"","html-keyboard-response","274","266963","0.0-274.0","null","<div style=""font-size:60px;"">+</div>","null","","","","",""
"","image-button-response","275","267466","0.0-275.0","null","stimuli/images_hvm10/im133.png","","","null","133","6","7"
"","html-button-response","276","268176","0.0-276.0","709.8000000119209","","","","0","","",""
"","html-keyboard-response","277","269182","0.0-277.0","null","<div style=""font-size:60px;"">+</div>","null","","","","",""
"","image-button-response","278","269690","0.0-278.0","null","stimuli/images_hvm10/im77.png","","","null","77","6","3"
"","html-button-response","279","270420","0.0-279.0","728.7000000178814","","","","1","","",""
"","html-keyboard-response","280","271425","0.0-280.0","null","<div style=""font-size:60px;"">+</div>","null","","","","",""
"","image-button-response","281","271931","0.0-281.0","null","stimuli/images_hvm10/im128.png","","","null","128","8","6"
"","html-button-response","282","273971","0.0-282.0","2038","","","","0","","",""
"","html-keyboard-response","283","274972","0.0-283.0","null","<div style=""font-size:60px;"">+</div>","null","","","","",""
"","image-button-response","284","275475","0.0-284.0","null","stimuli/images_hvm10/im18.png","","","null","18","3","0"
"","html-button-response","285","276224","0.0-285.0","747.3000000119209","","","","1","","",""
"","html-keyboard-response","286","277225","0.0-286.0","null","<div style=""font-size:60px;"">+</div>","null","","","","",""
"","image-button-response","287","277727","0.0-287.0","null","stimuli/images_hvm10/im185.png","","","null","185","9","8"
"","html-button-response","288","278643","0.0-288.0","914.1000000238419","","","","0","","",""
"","html-keyboard-response","289","279646","0.0-289.0","null","<div style=""font-size:60px;"">+</div>","null","","","","",""
"","image-button-response","290","280148","0.0-290.0","null","stimuli/images_hvm10/im73.png","","","null","73","6","3"
"","html-button-response","291","281143","0.0-291.0","993.3000000119209","","","","1","","",""
"","html-keyboard-response","292","282149","0.0-292.0","null","<div style=""font-size:60px;"">+</div>","null","","","","",""
"","image-button-response","293","282656","0.0-293.0","null","stimuli/images_hvm10/im39.png","","","null","39","1","4"
"","html-button-response","294","283345","0.0-294.0","687.4000000059605","","","","0","","",""
"","html-keyboard-response","295","284346","0.0-295.0","null","<div style=""font-size:60px;"">+</div>","null","","","","",""
"","image-button-response","296","284850","0.0-296.0","null","stimuli/images_hvm10/im148.png","","","null","148","9","7"
"","html-button-response","297","285828","0.0-297.0","976.4000000059605","","","","1","","",""
"","html-keyboard-response","298","286834","0.0-298.0","null","<div style=""font-size:60px;"">+</div>","null","","","","",""
"","image-button-response","299","287339","0.0-299.0","null","stimuli/images_hvm10/im178.png","","","null","178","8","2"
"","html-button-response","300","288046","0.0-300.0","705.3000000119209","","","","0","","",""
"","html-keyboard-response","301","289049","0.0-301.0","null","<div style=""font-size:60px;"">+</div>","null","","","","",""
"","image-button-response","302","289550","0.0-302.0","null","stimuli/images_hvm10/im113.png","","","null","113","5","9"
"","html-button-response","303","290096","0.0-303.0","544.0999999940395","","","","0","","",""
"","html-keyboard-response","304","291100","0.0-304.0","null","<div style=""font-size:60px;"">+</div>","null","","","","",""
"","image-button-response","305","291607","0.0-305.0","null","stimuli/images_hvm10/im181.png","","","null","181","3","9"
"","html-button-response","306","292098","0.0-306.0","486.90000000596046","","","","1","","",""
"","html-keyboard-response","307","293104","0.0-307.0","null","<div style=""font-size:60px;"">+</div>","null","","","","",""
"","image-button-response","308","293608","0.0-308.0","null","stimuli/images_hvm10/im16.png","","","null","16","2","0"
"","html-button-response","309","294266","0.0-309.0","656.5","","","","1","","",""
"","html-keyboard-response","310","295270","0.0-310.0","null","<div style=""font-size:60px;"">+</div>","null","","","","",""
"","image-button-response","311","295777","0.0-311.0","null","stimuli/images_hvm10/im137.png","","","null","137","1","6"
"","html-button-response","312","296719","0.0-312.0","940.0999999940395","","","","1","","",""
"","html-keyboard-response","313","297722","0.0-313.0","null","<div style=""font-size:60px;"">+</div>","null","","","","",""
"","image-button-response","314","298224","0.0-314.0","null","stimuli/images_hvm10/im1.png","","","null","1","0","2"
"","html-button-response","315","298706","0.0-315.0","480.2999999821186","","","","0","","",""
"","html-keyboard-response","316","299712","0.0-316.0","null","<div style=""font-size:60px;"">+</div>","null","","","","",""
"","image-button-response","317","300217","0.0-317.0","null","stimuli/images_hvm10/im34.png","","","null","34","8","1"
"","html-button-response","318","301242","0.0-318.0","1024.5","","","","1","","",""
"","html-keyboard-response","319","302246","0.0-319.0","null","<div style=""font-size:60px;"">+</div>","null","","","","",""
"","image-button-response","320","302753","0.0-320.0","null","stimuli/images_hvm10/im129.png","","","null","129","4","6"
"","html-button-response","321","303493","0.0-321.0","739","","","","1","","",""
"","html-keyboard-response","322","304499","0.0-322.0","null","<div style=""font-size:60px;"">+</div>","null","","","","",""
"","image-button-response","323","305002","0.0-323.0","null","stimuli/images_hvm10/im157.png","","","null","157","7","2"
"","html-button-response","324","305761","0.0-324.0","757.0999999940395","","","","0","","",""
"","html-keyboard-response","325","306762","0.0-325.0","null","<div style=""font-size:60px;"">+</div>","null","","","","",""
"","image-button-response","326","307264","0.0-326.0","null","stimuli/images_hvm10/im60.png","","","null","60","2","3"
"","html-button-response","327","307893","0.0-327.0","627.5","","","","1","","",""
"","html-keyboard-response","328","308897","0.0-328.0","null","<div style=""font-size:60px;"">+</div>","null","","","","",""
"","image-button-response","329","309404","0.0-329.0","null","stimuli/images_hvm10/im92.png","","","null","92","4","6"
"","html-button-response","330","309943","0.0-330.0","538.0999999940395","","","","0","","",""
"","html-keyboard-response","331","310949","0.0-331.0","null","<div style=""font-size:60px;"">+</div>","null","","","","",""
"","image-button-response","332","311452","0.0-332.0","null","stimuli/images_hvm10/im20.png","","","null","20","1","6"
"","html-button-response","333","312180","0.0-333.0","726.4000000059605","","","","0","","",""
"","html-keyboard-response","334","313182","0.0-334.0","null","<div style=""font-size:60px;"">+</div>","null","","","","",""
"","image-button-response","335","313683","0.0-335.0","null","stimuli/images_hvm10/im190.png","","","null","190","9","2"
"","html-button-response","336","314296","0.0-336.0","611.5999999940395","","","","0","","",""
"","html-keyboard-response","337","315301","0.0-337.0","null","<div style=""font-size:60px;"">+</div>","null","","","","",""
"","image-button-response","338","315808","0.0-338.0","null","stimuli/images_hvm10/im175.png","","","null","175","8","4"
"","html-button-response","339","316713","0.0-339.0","903.2999999821186","","","","0","","",""
"","html-keyboard-response","340","317718","0.0-340.0","null","<div style=""font-size:60px;"">+</div>","null","","","","",""
"","image-button-response","341","318221","0.0-341.0","null","stimuli/images_hvm10/im180.png","","","null","180","4","9"
"","html-button-response","342","318864","0.0-342.0","640.7999999821186","","","","1","","",""
"","html-keyboard-response","343","319868","0.0-343.0","null","<div style=""font-size:60px;"">+</div>","null","","","","",""
"","image-button-response","344","320376","0.0-344.0","null","stimuli/images_hvm10/im68.png","","","null","68","7","3"
"","html-button-response","345","321132","0.0-345.0","754.4000000059605","","","","1","","",""
"","html-keyboard-response","346","322137","0.0-346.0","null","<div style=""font-size:60px;"">+</div>","null","","","","",""
"","image-button-response","347","322641","0.0-347.0","null","stimuli/images_hvm10/im46.png","","","null","46","0","2"
"","html-button-response","348","323257","0.0-348.0","614.0999999940395","","","","1","","",""
"","html-keyboard-response","349","324258","0.0-349.0","null","<div style=""font-size:60px;"">+</div>","null","","","","",""
"","image-button-response","350","324763","0.0-350.0","null","stimuli/images_hvm10/im142.png","","","null","142","7","2"
"","html-button-response","351","325325","0.0-351.0","560.8000000119209","","","","0","","",""
"","html-keyboard-response","352","326329","0.0-352.0","null","<div style=""font-size:60px;"">+</div>","null","","","","",""
"","image-button-response","353","326833","0.0-353.0","null","stimuli/images_hvm10/im161.png","","","null","161","4","8"
"","html-button-response","354","327493","0.0-354.0","658.5","","","","1","","",""
"","html-keyboard-response","355","328498","0.0-355.0","null","<div style=""font-size:60px;"">+</div>","null","","","","",""
"","image-button-response","356","329002","0.0-356.0","null","stimuli/images_hvm10/im43.png","","","null","43","6","2"
"","html-button-response","357","329677","0.0-357.0","673.3000000119209","","","","1","","",""
"","html-keyboard-response","358","330678","0.0-358.0","null","<div style=""font-size:60px;"">+</div>","null","","","","",""
"","image-button-response","359","331184","0.0-359.0","null","stimuli/images_hvm10/im12.png","","","null","12","5","0"
"","html-button-response","360","331892","0.0-360.0","706.5","","","","1","","",""
"","html-keyboard-response","361","332898","0.0-361.0","null","<div style=""font-size:60px;"">+</div>","null","","","","",""
"","image-button-response","362","333401","0.0-362.0","null","stimuli/images_hvm10/im195.png","","","null","195","6","9"
"","html-button-response","363","334010","0.0-363.0","607.0999999940395","","","","1","","",""
"","html-keyboard-response","364","335011","0.0-364.0","null","<div style=""font-size:60px;"">+</div>","null","","","","",""
"","image-button-response","365","335515","0.0-365.0","null","stimuli/images_hvm10/im9.png","","","null","9","0","7"
"","html-button-response","366","336129","0.0-366.0","611.4000000059605","","","","0","","",""
"","html-keyboard-response","367","337135","0.0-367.0","null","<div style=""font-size:60px;"">+</div>","null","","","","",""
"","image-button-response","368","337638","0.0-368.0","null","stimuli/images_hvm10/im177.png","","","null","177","4","8"
"","html-button-response","369","338447","0.0-369.0","807.6999999880791","","","","1","","",""
"","html-keyboard-response","370","339453","0.0-370.0","null","<div style=""font-size:60px;"">+</div>","null","","","","",""
"","image-button-response","371","339958","0.0-371.0","null","stimuli/images_hvm10/im152.png","","","null","152","7","0"
"","html-button-response","372","340712","0.0-372.0","751.6999999880791","","","","0","","",""
"","html-keyboard-response","373","341717","0.0-373.0","null","<div style=""font-size:60px;"">+</div>","null","","","","",""
"","image-button-response","374","342220","0.0-374.0","null","stimuli/images_hvm10/im49.png","","","null","49","2","4"
"","html-button-response","375","343045","0.0-375.0","823.5","","","","0","","",""
"","html-keyboard-response","376","344051","0.0-376.0","null","<div style=""font-size:60px;"">+</div>","null","","","","",""
"","image-button-response","377","344554","0.0-377.0","null","stimuli/images_hvm10/im193.png","","","null","193","6","9"
"","html-button-response","378","345229","0.0-378.0","673.2999999821186","","","","1","","",""
"","html-keyboard-response","379","346234","0.0-379.0","null","<div style=""font-size:60px;"">+</div>","null","","","","",""
"","image-button-response","380","346737","0.0-380.0","null","stimuli/images_hvm10/im110.png","","","null","110","8","5"
"","html-button-response","381","347728","0.0-381.0","989.6000000238419","","","","1","","",""
"","html-keyboard-response","382","348733","0.0-382.0","null","<div style=""font-size:60px;"">+</div>","null","","","","",""
"","image-button-response","383","349236","0.0-383.0","null","stimuli/images_hvm10/im173.png","","","null","173","8","2"
"","html-button-response","384","349829","0.0-384.0","591.5","","","","0","","",""
"","html-keyboard-response","385","350833","0.0-385.0","null","<div style=""font-size:60px;"">+</div>","null","","","","",""
"","image-button-response","386","351340","0.0-386.0","null","stimuli/images_hvm10/im47.png","","","null","47","2","9"
"","html-button-response","387","352747","0.0-387.0","1404.7999999821186","","","","1","","",""
"","html-keyboard-response","388","353749","0.0-388.0","null","<div style=""font-size:60px;"">+</div>","null","","","","",""
"","image-button-response","389","354251","0.0-389.0","null","stimuli/images_hvm10/im17.png","","","null","17","0","2"
"","html-button-response","390","354833","0.0-390.0","580.2999999821186","","","","0","","",""
"","html-keyboard-response","391","355837","0.0-391.0","null","<div style=""font-size:60px;"">+</div>","null","","","","",""
"","image-button-response","392","356339","0.0-392.0","null","stimuli/images_hvm10/im153.png","","","null","153","5","7"
"","html-button-response","393","357067","0.0-393.0","725.9000000059605","","","","1","","",""
"","html-keyboard-response","394","358073","0.0-394.0","null","<div style=""font-size:60px;"">+</div>","null","","","","",""
"","image-button-response","395","358577","0.0-395.0","null","stimuli/images_hvm10/im140.png","","","null","140","7","6"
"","html-button-response","396","359417","0.0-396.0","838.5","","","","0","","",""
"","html-keyboard-response","397","360422","0.0-397.0","null","<div style=""font-size:60px;"">+</div>","null","","","","",""
"","image-button-response","398","360924","0.0-398.0","null","stimuli/images_hvm10/im81.png","","","null","81","8","4"
"","html-button-response","399","361801","0.0-399.0","875.4000000059605","","","","1","","",""
"","html-keyboard-response","400","362805","0.0-400.0","null","<div style=""font-size:60px;"">+</div>","null","","","","",""
"","image-button-response","401","363308","0.0-401.0","null","stimuli/images_hvm10/im108.png","","","null","108","5","7"
"","html-button-response","402","364416","0.0-402.0","1106.5","","","","0","","",""
"","html-keyboard-response","403","365418","0.0-403.0","null","<div style=""font-size:60px;"">+</div>","null","","","","",""
"","image-button-response","404","365925","0.0-404.0","null","stimuli/images_hvm10/im194.png","","","null","194","7","9"
"","html-button-response","405","366535","0.0-405.0","609.5","","","","1","","",""
"","html-keyboard-response","406","367541","0.0-406.0","null","<div style=""font-size:60px;"">+</div>","null","","","","",""
"","image-button-response","407","368048","0.0-407.0","null","stimuli/images_hvm10/im119.png","","","null","119","5","7"
"","html-button-response","408","368551","0.0-408.0","501.59999999403954","","","","0","","",""
"","html-keyboard-response","409","369553","0.0-409.0","null","<div style=""font-size:60px;"">+</div>","null","","","","",""
"","image-button-response","410","370057","0.0-410.0","null","stimuli/images_hvm10/im198.png","","","null","198","9","4"
"","html-button-response","411","370702","0.0-411.0","642.5","","","","0","","",""
"","html-keyboard-response","412","371706","0.0-412.0","null","<div style=""font-size:60px;"">+</div>","null","","","","",""
"","image-button-response","413","372210","0.0-413.0","null","stimuli/images_hvm10/im189.png","","","null","189","9","5"
"","html-button-response","414","372654","0.0-414.0","442.60000002384186","","","","0","","",""
"","html-keyboard-response","415","373659","0.0-415.0","null","<div style=""font-size:60px;"">+</div>","null","","","","",""
"","image-button-response","416","374162","0.0-416.0","null","stimuli/images_hvm10/im179.png","","","null","179","8","6"
"","html-button-response","417","375107","0.0-417.0","943.9000000059605","","","","0","","",""
"","html-keyboard-response","418","376113","0.0-418.0","null","<div style=""font-size:60px;"">+</div>","null","","","","",""
"","image-button-response","419","376615","0.0-419.0","null","stimuli/images_hvm10/im197.png","","","null","197","9","7"
"","html-button-response","420","377143","0.0-420.0","526.5999999940395","","","","0","","",""
"","html-keyboard-response","421","378148","0.0-421.0","null","<div style=""font-size:60px;"">+</div>","null","","","","",""
"","image-button-response","422","378651","0.0-422.0","null","stimuli/images_hvm10/im172.png","","","null","172","8","0"
"","html-button-response","423","379262","0.0-423.0","610.6000000238419","","","","0","","",""
"","html-keyboard-response","424","380267","0.0-424.0","null","<div style=""font-size:60px;"">+</div>","null","","","","",""
"","image-button-response","425","380773","0.0-425.0","null","stimuli/images_hvm10/im105.png","","","null","105","1","5"
"","html-button-response","426","383139","0.0-426.0","2364","","","","1","","",""
"","html-keyboard-response","427","384142","0.0-427.0","null","<div style=""font-size:60px;"">+</div>","null","","","","",""
"","image-button-response","428","384644","0.0-428.0","null","stimuli/images_hvm10/im30.png","","","null","30","4","1"
"","html-button-response","429","385528","0.0-429.0","882.4000000059605","","","","1","","",""
"","html-keyboard-response","430","386530","0.0-430.0","null","<div style=""font-size:60px;"">+</div>","null","","","","",""
"","image-button-response","431","387032","0.0-431.0","null","stimuli/images_hvm10/im65.png","","","null","65","7","3"
"","html-button-response","432","387792","0.0-432.0","758","","","","1","","",""
"","html-keyboard-response","433","388797","0.0-433.0","null","<div style=""font-size:60px;"">+</div>","null","","","","",""
"","image-button-response","434","389301","0.0-434.0","null","stimuli/images_hvm10/im3.png","","","null","3","0","7"
"","html-button-response","435","389978","0.0-435.0","675.7000000178814","","","","0","","",""
"","html-keyboard-response","436","390984","0.0-436.0","null","<div style=""font-size:60px;"">+</div>","null","","","","",""
"","image-button-response","437","391486","0.0-437.0","null","stimuli/images_hvm10/im27.png","","","null","27","1","6"
"","html-button-response","438","392262","0.0-438.0","774.2000000178814","","","","0","","",""
"","html-keyboard-response","439","393265","0.0-439.0","null","<div style=""font-size:60px;"">+</div>","null","","","","",""
"","image-button-response","440","393767","0.0-440.0","null","stimuli/images_hvm10/im63.png","","","null","63","3","1"
"","html-button-response","441","394533","0.0-441.0","764.5","","","","0","","",""
"","html-keyboard-response","442","395537","0.0-442.0","null","<div style=""font-size:60px;"">+</div>","null","","","","",""
"","image-button-response","443","396042","0.0-443.0","null","stimuli/images_hvm10/im31.png","","","null","31","1","7"
"","html-button-response","444","396734","0.0-444.0","689","","","","0","","",""
"","html-keyboard-response","445","397738","0.0-445.0","null","<div style=""font-size:60px;"">+</div>","null","","","","",""
"","image-button-response","446","398243","0.0-446.0","null","stimuli/images_hvm10/im94.png","","","null","94","4","5"
"","html-button-response","447","398737","0.0-447.0","492.30000001192093","","","","0","","",""
"","html-keyboard-response","448","399738","0.0-448.0","null","<div style=""font-size:60px;"">+</div>","null","","","","",""
"","image-button-response","449","400243","0.0-449.0","null","stimuli/images_hvm10/im88.png","","","null","88","4","8"
"","html-button-response","450","400923","0.0-450.0","679","","","","0","","",""
"","html-keyboard-response","451","401928","0.0-451.0","null","<div style=""font-size:60px;"">+</div>","null","","","","",""
"","image-button-response","452","402433","0.0-452.0","null","stimuli/images_hvm10/im192.png","","","null","192","9","7"
"","html-button-response","453","403061","0.0-453.0","625.7999999821186","","","","0","","",""
"","html-keyboard-response","454","404065","0.0-454.0","null","<div style=""font-size:60px;"">+</div>","null","","","","",""
"","image-button-response","455","404572","0.0-455.0","null","stimuli/images_hvm10/im78.png","","","null","78","8","3"
"","html-button-response","456","405414","0.0-456.0","840","","","","1","","",""
"","html-keyboard-response","457","406417","0.0-457.0","null","<div style=""font-size:60px;"">+</div>","null","","","","",""
"","image-button-response","458","406920","0.0-458.0","null","stimuli/images_hvm10/im146.png","","","null","146","7","9"
"","html-button-response","459","407600","0.0-459.0","678.6000000238419","","","","0","","",""
"","html-keyboard-response","460","408602","0.0-460.0","null","<div style=""font-size:60px;"">+</div>","null","","","","",""
"","image-button-response","461","409106","0.0-461.0","null","stimuli/images_hvm10/im163.png","","","null","163","8","1"
"","html-button-response","462","409669","0.0-462.0","561.7999999821186","","","","0","","",""
"","html-keyboard-response","463","410674","0.0-463.0","null","<div style=""font-size:60px;"">+</div>","null","","","","",""
"","image-button-response","464","411179","0.0-464.0","null","stimuli/images_hvm10/im41.png","","","null","41","2","3"
"","html-button-response","465","411823","0.0-465.0","642.1000000238419","","","","0","","",""
"","html-keyboard-response","466","412828","0.0-466.0","null","<div style=""font-size:60px;"">+</div>","null","","","","",""
"","image-button-response","467","413335","0.0-467.0","null","stimuli/images_hvm10/im23.png","","","null","23","9","1"
"","html-button-response","468","413992","0.0-468.0","655.0999999940395","","","","1","","",""
"","html-keyboard-response","469","414995","0.0-469.0","null","<div style=""font-size:60px;"">+</div>","null","","","","",""
"","image-button-response","470","415501","0.0-470.0","null","stimuli/images_hvm10/im184.png","","","null","184","6","9"
"","html-button-response","471","416107","0.0-471.0","605.3000000119209","","","","1","","",""
"","html-keyboard-response","472","417113","0.0-472.0","null","<div style=""font-size:60px;"">+</div>","null","","","","",""
"","image-button-response","473","417620","0.0-473.0","null","stimuli/images_hvm10/im83.png","","","null","83","4","3"
"","html-button-response","474","418275","0.0-474.0","653.1999999880791","","","","0","","",""
"","html-keyboard-response","475","419279","0.0-475.0","null","<div style=""font-size:60px;"">+</div>","null","","","","",""
"","image-button-response","476","419782","0.0-476.0","null","stimuli/images_hvm10/im169.png","","","null","169","8","5"
"","html-button-response","477","420426","0.0-477.0","642.0999999940395","","","","0","","",""
"","html-keyboard-response","478","421431","0.0-478.0","null","<div style=""font-size:60px;"">+</div>","null","","","","",""
"","image-button-response","479","421937","0.0-479.0","null","stimuli/images_hvm10/im155.png","","","null","155","3","7"
"","html-button-response","480","422642","0.0-480.0","703.2000000178814","","","","1","","",""
"","html-keyboard-response","481","423643","0.0-481.0","null","<div style=""font-size:60px;"">+</div>","null","","","","",""
"","image-button-response","482","424148","0.0-482.0","null","stimuli/images_hvm10/im168.png","","","null","168","8","4"
"","html-button-response","483","424626","0.0-483.0","476.7000000178814","","","","0","","",""
"","html-keyboard-response","484","425629","0.0-484.0","null","<div style=""font-size:60px;"">+</div>","null","","","","",""
"","image-button-response","485","426135","0.0-485.0","null","stimuli/images_hvm10/im187.png","","","null","187","9","6"
"","html-button-response","486","426773","0.0-486.0","636.7000000178814","","","","0","","",""
"","html-keyboard-response","487","427778","0.0-487.0","null","<div style=""font-size:60px;"">+</div>","null","","","","",""
"","image-button-response","488","428283","0.0-488.0","null","stimuli/images_hvm10/im144.png","","","null","144","0","7"
"","html-button-response","489","429089","0.0-489.0","804.7000000178814","","","","1","","",""
"","html-keyboard-response","490","430094","0.0-490.0","null","<div style=""font-size:60px;"">+</div>","null","","","","",""
"","image-button-response","491","430598","0.0-491.0","null","stimuli/images_hvm10/im122.png","","","null","122","0","6"
"","html-button-response","492","431221","0.0-492.0","622.0999999940395","","","","0","","",""
"","html-keyboard-response","493","432227","0.0-493.0","null","<div style=""font-size:60px;"">+</div>","null","","","","",""
"","image-button-response","494","432732","0.0-494.0","null","stimuli/images_hvm10/im134.png","","","null","134","6","5"
"","html-button-response","495","433407","0.0-495.0","673","","","","0","","",""
"","html-keyboard-response","496","434411","0.0-496.0","null","<div style=""font-size:60px;"">+</div>","null","","","","",""
"","image-button-response","497","434916","0.0-497.0","null","stimuli/images_hvm10/im21.png","","","null","21","3","1"
"","html-button-response","498","435706","0.0-498.0","788.5999999940395","","","","1","","",""
"","html-keyboard-response","499","436712","0.0-499.0","null","<div style=""font-size:60px;"">+</div>","null","","","","",""
"","image-button-response","500","437218","0.0-500.0","null","stimuli/images_hvm10/im145.png","","","null","145","7","3"
"","html-button-response","501","437807","0.0-501.0","588.1999999880791","","","","0","","",""
"","html-keyboard-response","502","438811","0.0-502.0","null","<div style=""font-size:60px;"">+</div>","null","","","","",""
"","image-button-response","503","439317","0.0-503.0","null","stimuli/images_hvm10/im106.png","","","null","106","6","5"
"","html-button-response","504","439960","0.0-504.0","640","","","","1","","",""
"","html-keyboard-response","505","440963","0.0-505.0","null","<div style=""font-size:60px;"">+</div>","null","","","","",""
"","image-button-response","506","441465","0.0-506.0","null","stimuli/images_hvm10/im48.png","","","null","48","5","2"
"","html-button-response","507","442047","0.0-507.0","581","","","","0","","",""
"","html-keyboard-response","508","443050","0.0-508.0","null","<div style=""font-size:60px;"">+</div>","null","","","","",""
"","image-button-response","509","443552","0.0-509.0","null","stimuli/images_hvm10/im82.png","","","null","82","7","4"
"","html-button-response","510","444315","0.0-510.0","761.5","","","","1","","",""
"","html-keyboard-response","511","445320","0.0-511.0","null","<div style=""font-size:60px;"">+</div>","null","","","","",""
"","image-button-response","512","445823","0.0-512.0","null","stimuli/images_hvm10/im8.png","","","null","8","5","0"
"","html-button-response","513","446513","0.0-513.0","688.8000000119209","","","","1","","",""
"","html-keyboard-response","514","447518","0.0-514.0","null","<div style=""font-size:60px;"">+</div>","null","","","","",""
"","image-button-response","515","448020","0.0-515.0","null","stimuli/images_hvm10/im109.png","","","null","109","5","1"
"","html-button-response","516","448781","0.0-516.0","759.9000000059605","","","","0","","",""
"","html-keyboard-response","517","449785","0.0-517.0","null","<div style=""font-size:60px;"">+</div>","null","","","","",""
"","image-button-response","518","450288","0.0-518.0","null","stimuli/images_hvm10/im84.png","","","null","84","4","8"
"","html-button-response","519","451002","0.0-519.0","712","","","","0","","",""
"","html-keyboard-response","520","452008","0.0-520.0","null","<div style=""font-size:60px;"">+</div>","null","","","","",""
"","image-button-response","521","452513","0.0-521.0","null","stimuli/images_hvm10/im123.png","","","null","123","6","4"
"","html-button-response","522","453087","0.0-522.0","573","","","","0","","",""
"","html-keyboard-response","523","454092","0.0-523.0","null","<div style=""font-size:60px;"">+</div>","null","","","","",""
"","image-button-response","524","454599","0.0-524.0","null","stimuli/images_hvm10/im111.png","","","null","111","9","5"
"","html-button-response","525","455258","0.0-525.0","657.1000000238419","","","","1","","",""
"","html-keyboard-response","526","456263","0.0-526.0","null","<div style=""font-size:60px;"">+</div>","null","","","","",""
"","image-button-response","527","456767","0.0-527.0","null","stimuli/images_hvm10/im115.png","","","null","115","5","1"
"","html-button-response","528","457527","0.0-528.0","758.6999999880791","","","","0","","",""
"","html-keyboard-response","529","458532","0.0-529.0","null","<div style=""font-size:60px;"">+</div>","null","","","","",""
"","image-button-response","530","459036","0.0-530.0","null","stimuli/images_hvm10/im114.png","","","null","114","5","7"
"","html-button-response","531","459629","0.0-531.0","591.1999999880791","","","","0","","",""
"","html-keyboard-response","532","460633","0.0-532.0","null","<div style=""font-size:60px;"">+</div>","null","","","","",""
"","image-button-response","533","461135","0.0-533.0","null","stimuli/images_hvm10/im126.png","","","null","126","4","6"
"","html-button-response","534","461728","0.0-534.0","591","","","","1","","",""
"","html-keyboard-response","535","462734","0.0-535.0","null","<div style=""font-size:60px;"">+</div>","null","","","","",""
"","image-button-response","536","463240","0.0-536.0","null","stimuli/images_hvm10/im89.png","","","null","89","8","4"
"","html-button-response","537","463960","0.0-537.0","718.3000000119209","","","","1","","",""
"","html-keyboard-response","538","464961","0.0-538.0","null","<div style=""font-size:60px;"">+</div>","null","","","","",""
"","image-button-response","539","465465","0.0-539.0","null","stimuli/images_hvm10/im91.png","","","null","91","4","7"
"","html-button-response","540","466076","0.0-540.0","609.9000000059605","","","","0","","",""
"","html-keyboard-response","541","467082","0.0-541.0","null","<div style=""font-size:60px;"">+</div>","null","","","","",""
"","image-button-response","542","467589","0.0-542.0","null","stimuli/images_hvm10/im72.png","","","null","72","3","7"
"","html-button-response","543","468444","0.0-543.0","853.6000000238419","","","","0","","",""
"","html-keyboard-response","544","469449","0.0-544.0","null","<div style=""font-size:60px;"">+</div>","null","","","","",""
"","image-button-response","545","469954","0.0-545.0","null","stimuli/images_hvm10/im120.png","","","null","120","6","9"
"","html-button-response","546","470614","0.0-546.0","658.0999999940395","","","","0","","",""
"","html-keyboard-response","547","471619","0.0-547.0","null","<div style=""font-size:60px;"">+</div>","null","","","","",""
"","image-button-response","548","472125","0.0-548.0","null","stimuli/images_hvm10/im56.png","","","null","56","4","2"
"","html-button-response","549","472818","0.0-549.0","691.7999999821186","","","","1","","",""
"","html-keyboard-response","550","473824","0.0-550.0","null","<div style=""font-size:60px;"">+</div>","null","","","","",""
"","image-button-response","551","474328","0.0-551.0","null","stimuli/images_hvm10/im97.png","","","null","97","5","4"
"","html-button-response","552","475037","0.0-552.0","706.5","","","","1","","",""
"","html-keyboard-response","553","476041","0.0-553.0","null","<div style=""font-size:60px;"">+</div>","null","","","","",""
"","image-button-response","554","476544","0.0-554.0","null","stimuli/images_hvm10/im130.png","","","null","130","6","0"
"","html-button-response","555","477604","0.0-555.0","1058","","","","1","","",""
"","html-keyboard-response","556","478611","0.0-556.0","null","<div style=""font-size:60px;"">+</div>","null","","","","",""
"","image-button-response","557","479118","0.0-557.0","null","stimuli/images_hvm10/im79.png","","","null","79","3","8"
"","html-button-response","558","479788","0.0-558.0","668.5999999940395","","","","0","","",""
"","html-keyboard-response","559","480792","0.0-559.0","null","<div style=""font-size:60px;"">+</div>","null","","","","",""
"","image-button-response","560","481299","0.0-560.0","null","stimuli/images_hvm10/im141.png","","","null","141","5","7"
"","html-button-response","561","481843","0.0-561.0","541.8000000119209","","","","1","","",""
"","html-keyboard-response","562","482847","0.0-562.0","null","<div style=""font-size:60px;"">+</div>","null","","","","",""
"","image-button-response","563","483349","0.0-563.0","null","stimuli/images_hvm10/im90.png","","","null","90","7","4"
"","html-button-response","564","483959","0.0-564.0","608.1999999880791","","","","1","","",""
"","html-keyboard-response","565","484965","0.0-565.0","null","<div style=""font-size:60px;"">+</div>","null","","","","",""
"","image-button-response","566","485470","0.0-566.0","null","stimuli/images_hvm10/im118.png","","","null","118","5","3"
"","html-button-response","567","486045","0.0-567.0","572.5","","","","0","","",""
"","html-keyboard-response","568","487051","0.0-568.0","null","<div style=""font-size:60px;"">+</div>","null","","","","",""
"","image-button-response","569","487552","0.0-569.0","null","stimuli/images_hvm10/im96.png","","","null","96","1","4"
"","html-button-response","570","488631","0.0-570.0","1077.800000011921","","","","0","","",""
"","html-keyboard-response","571","489636","0.0-571.0","null","<div style=""font-size:60px;"">+</div>","null","","","","",""
"","image-button-response","572","490143","0.0-572.0","null","stimuli/images_hvm10/im138.png","","","null","138","6","0"
"","html-button-response","573","491167","0.0-573.0","1023.1000000238419","","","","1","","",""
"","html-keyboard-response","574","492170","0.0-574.0","null","<div style=""font-size:60px;"">+</div>","null","","","","",""
"","image-button-response","575","492671","0.0-575.0","null","stimuli/images_hvm10/im127.png","","","null","127","2","6"
"","html-button-response","576","493333","0.0-576.0","660.8000000119209","","","","1","","",""
"","html-keyboard-response","577","494339","0.0-577.0","null","<div style=""font-size:60px;"">+</div>","null","","","","",""
"","image-button-response","578","494842","0.0-578.0","null","stimuli/images_hvm10/im139.png","","","null","139","1","6"
"","html-button-response","579","495517","0.0-579.0","673.2000000178814","","","","1","","",""
"","html-keyboard-response","580","496522","0.0-580.0","null","<div style=""font-size:60px;"">+</div>","null","","","","",""
"","image-button-response","581","497028","0.0-581.0","null","stimuli/images_hvm10/im124.png","","","null","124","9","6"
"","html-button-response","582","497748","0.0-582.0","718.2999999821186","","","","1","","",""
"","html-keyboard-response","583","498754","0.0-583.0","null","<div style=""font-size:60px;"">+</div>","null","","","","",""
"","image-button-response","584","499260","0.0-584.0","null","stimuli/images_hvm10/im95.png","","","null","95","7","4"
"","html-button-response","585","500081","0.0-585.0","819.5","","","","1","","",""
"","html-keyboard-response","586","501082","0.0-586.0","null","<div style=""font-size:60px;"">+</div>","null","","","","",""
"","image-button-response","587","501587","0.0-587.0","null","stimuli/images_hvm10/im74.png","","","null","74","3","4"
"","html-button-response","588","502128","0.0-588.0","539.9000000059605","","","","0","","",""
"","html-keyboard-response","589","503135","0.0-589.0","null","<div style=""font-size:60px;"">+</div>","null","","","","",""
"","image-button-response","590","503640","0.0-590.0","null","stimuli/images_hvm10/im19.png","","","null","19","0","4"
"","html-button-response","591","504249","0.0-591.0","607.3000000119209","","","","0","","",""
"","html-keyboard-response","592","505253","0.0-592.0","null","<div style=""font-size:60px;"">+</div>","null","","","","",""
"","image-button-response","593","505758","0.0-593.0","null","stimuli/images_hvm10/im121.png","","","null","121","6","3"
"","html-button-response","594","506535","0.0-594.0","775.2000000178814","","","","0","","",""
"","html-keyboard-response","595","507538","0.0-595.0","null","<div style=""font-size:60px;"">+</div>","null","","","","",""
"","image-button-response","596","508043","0.0-596.0","null","stimuli/images_hvm10/im176.png","","","null","176","4","8"
"","html-button-response","597","508721","0.0-597.0","676.4000000059605","","","","0","","",""
"","html-keyboard-response","598","509726","0.0-598.0","null","<div style=""font-size:60px;"">+</div>","null","","","","",""
"","image-button-response","599","510231","0.0-599.0","null","stimuli/images_hvm10/im80.png","","","null","80","5","4"
"","html-button-response","600","511189","0.0-600.0","956","","","","1","","",""
