success,trial_type,trial_index,time_elapsed,internal_node_id,rt,stimulus,key_press,responses,button_pressed,images,left_choice,right_choice
TRUE,fullscreen,0,7232,0.0-0.0,,,,,,,,
,html-keyboard-response,1,10219,0.0-1.0,2983.5,Welcome to the experiment. Press any key to begin.,32,,,,,
,survey-html-form,2,36528,0.0-2.0,26303.1,,,"{""p_id"":""8150"",""age"":""19"",""handedness"":""right"",""sex"":""female"",""other_sex"":""""}",,,,
,html-keyboard-response,3,81541,0.0-3.0,45013,"<p>Please fixate at the center '+' sign which will appear once you press any key. Then, <strong> an image </strong> will be shown in the center of the screen.</p><p>The image will contain an object.This will be followed by a <strong> Choice Screen </strong> containing two objects. Please choose the option <strong>[Click on the object]</strong> that you think was present in the image<p>Press any key to begin.</p>",32,,,,,
,html-keyboard-response,4,84551,0.0-4.0,null,"<div style=""font-size:60px;"">+</div>",null,,,,,
,image-button-response,5,85058,0.0-5.0,null,stimuli/images_hvm10/im130.png,,,null,130,1,6
,html-button-response,6,87814,0.0-6.0,2752.7,,,,0,,,
,html-keyboard-response,7,88819,0.0-7.0,null,"<div style=""font-size:60px;"">+</div>",null,,,,,
,image-button-response,8,89324,0.0-8.0,null,stimuli/images_hvm10/im191.png,,,null,191,3,9
,html-button-response,9,90589,0.0-9.0,1263.5,,,,1,,,
,html-keyboard-response,10,91592,0.0-10.0,null,"<div style=""font-size:60px;"">+</div>",null,,,,,
,image-button-response,11,92096,0.0-11.0,null,stimuli/images_hvm10/im119.png,,,null,119,8,5
,html-button-response,12,93204,0.0-12.0,1105.9,,,,1,,,
,html-keyboard-response,13,94207,0.0-13.0,null,"<div style=""font-size:60px;"">+</div>",null,,,,,
,image-button-response,14,94716,0.0-14.0,null,stimuli/images_hvm10/im129.png,,,null,129,0,6
,html-button-response,15,96368,0.0-15.0,1649.4,,,,1,,,
,html-keyboard-response,16,97372,0.0-16.0,null,"<div style=""font-size:60px;"">+</div>",null,,,,,
,image-button-response,17,97882,0.0-17.0,null,stimuli/images_hvm10/im126.png,,,null,126,6,5
,html-button-response,18,99071,0.0-18.0,1185.8,,,,0,,,
,html-keyboard-response,19,100077,0.0-19.0,null,"<div style=""font-size:60px;"">+</div>",null,,,,,
,image-button-response,20,100587,0.0-20.0,null,stimuli/images_hvm10/im134.png,,,null,134,6,2
,html-button-response,21,102104,0.0-21.0,1515.3,,,,0,,,
,html-keyboard-response,22,103107,0.0-22.0,null,"<div style=""font-size:60px;"">+</div>",null,,,,,
,image-button-response,23,103610,0.0-23.0,null,stimuli/images_hvm10/im140.png,,,null,140,7,6
,html-button-response,24,104752,0.0-24.0,1138.7,,,,0,,,
,html-keyboard-response,25,105755,0.0-25.0,null,"<div style=""font-size:60px;"">+</div>",null,,,,,
,image-button-response,26,106263,0.0-26.0,null,stimuli/images_hvm10/im112.png,,,null,112,5,8
,html-button-response,27,107144,0.0-27.0,877.8999996,,,,0,,,
,html-keyboard-response,28,108151,0.0-28.0,null,"<div style=""font-size:60px;"">+</div>",null,,,,,
,image-button-response,29,108657,0.0-29.0,null,stimuli/images_hvm10/im128.png,,,null,128,6,4
,html-button-response,30,109736,0.0-30.0,1077,,,,1,,,
,html-keyboard-response,31,110745,0.0-31.0,null,"<div style=""font-size:60px;"">+</div>",null,,,,,
,image-button-response,32,111255,0.0-32.0,null,stimuli/images_hvm10/im121.png,,,null,121,6,2
,html-button-response,33,112208,0.0-33.0,950,,,,0,,,
,html-keyboard-response,34,113214,0.0-34.0,null,"<div style=""font-size:60px;"">+</div>",null,,,,,
,image-button-response,35,113720,0.0-35.0,null,stimuli/images_hvm10/im110.png,,,null,110,1,5
,html-button-response,36,114522,0.0-36.0,799.4000001,,,,1,,,
,html-keyboard-response,37,115524,0.0-37.0,null,"<div style=""font-size:60px;"">+</div>",null,,,,,
,image-button-response,38,116028,0.0-38.0,null,stimuli/images_hvm10/im124.png,,,null,124,6,0
,html-button-response,39,117372,0.0-39.0,1340.8,,,,0,,,
,html-keyboard-response,40,118377,0.0-40.0,null,"<div style=""font-size:60px;"">+</div>",null,,,,,
,image-button-response,41,118884,0.0-41.0,null,stimuli/images_hvm10/im127.png,,,null,127,0,6
,html-button-response,42,119788,0.0-42.0,900.8000002,,,,1,,,
,html-keyboard-response,43,120790,0.0-43.0,null,"<div style=""font-size:60px;"">+</div>",null,,,,,
,image-button-response,44,121300,0.0-44.0,null,stimuli/images_hvm10/im106.png,,,null,106,5,8
,html-button-response,45,122115,0.0-45.0,812.5999999,,,,0,,,
,html-keyboard-response,46,123118,0.0-46.0,null,"<div style=""font-size:60px;"">+</div>",null,,,,,
,image-button-response,47,123626,0.0-47.0,null,stimuli/images_hvm10/im125.png,,,null,125,6,9
,html-button-response,48,124655,0.0-48.0,1026.1,,,,0,,,
,html-keyboard-response,49,125660,0.0-49.0,null,"<div style=""font-size:60px;"">+</div>",null,,,,,
,image-button-response,50,126165,0.0-50.0,null,stimuli/images_hvm10/im104.png,,,null,104,8,5
,html-button-response,51,127401,0.0-51.0,1232.5,,,,0,,,
,html-keyboard-response,52,128404,0.0-52.0,null,"<div style=""font-size:60px;"">+</div>",null,,,,,
,image-button-response,53,128914,0.0-53.0,null,stimuli/images_hvm10/im103.png,,,null,103,8,5
,html-button-response,54,129645,0.0-54.0,728.1000004,,,,1,,,
,html-keyboard-response,55,130654,0.0-55.0,null,"<div style=""font-size:60px;"">+</div>",null,,,,,
,image-button-response,56,131165,0.0-56.0,null,stimuli/images_hvm10/im150.png,,,null,150,7,2
,html-button-response,57,133607,0.0-57.0,2439.3,,,,0,,,
,html-keyboard-response,58,134608,0.0-58.0,null,"<div style=""font-size:60px;"">+</div>",null,,,,,
,image-button-response,59,135117,0.0-59.0,null,stimuli/images_hvm10/im192.png,,,null,192,6,9
,html-button-response,60,135893,0.0-60.0,774.5999999,,,,1,,,
,html-keyboard-response,61,136899,0.0-61.0,null,"<div style=""font-size:60px;"">+</div>",null,,,,,
,image-button-response,62,137405,0.0-62.0,null,stimuli/images_hvm10/im153.png,,,null,153,0,7
,html-button-response,63,138514,0.0-63.0,1106.7,,,,1,,,
,html-keyboard-response,64,139519,0.0-64.0,null,"<div style=""font-size:60px;"">+</div>",null,,,,,
,image-button-response,65,140025,0.0-65.0,null,stimuli/images_hvm10/im155.png,,,null,155,3,7
,html-button-response,66,141001,0.0-66.0,973.3999996,,,,1,,,
,html-keyboard-response,67,142009,0.0-67.0,null,"<div style=""font-size:60px;"">+</div>",null,,,,,
,image-button-response,68,142517,0.0-68.0,null,stimuli/images_hvm10/im193.png,,,null,193,1,9
,html-button-response,69,143234,0.0-69.0,714.4000001,,,,1,,,
,html-keyboard-response,70,144241,0.0-70.0,null,"<div style=""font-size:60px;"">+</div>",null,,,,,
,image-button-response,71,144751,0.0-71.0,null,stimuli/images_hvm10/im111.png,,,null,111,3,5
,html-button-response,72,145530,0.0-72.0,777,,,,1,,,
,html-keyboard-response,73,146535,0.0-73.0,null,"<div style=""font-size:60px;"">+</div>",null,,,,,
,image-button-response,74,147040,0.0-74.0,null,stimuli/images_hvm10/im115.png,,,null,115,5,0
,html-button-response,75,148705,0.0-75.0,1662.2,,,,1,,,
,html-keyboard-response,76,149711,0.0-76.0,null,"<div style=""font-size:60px;"">+</div>",null,,,,,
,image-button-response,77,150221,0.0-77.0,null,stimuli/images_hvm10/im142.png,,,null,142,4,7
,html-button-response,78,151083,0.0-78.0,859.3000002,,,,1,,,
,html-keyboard-response,79,152085,0.0-79.0,null,"<div style=""font-size:60px;"">+</div>",null,,,,,
,image-button-response,80,152593,0.0-80.0,null,stimuli/images_hvm10/im146.png,,,null,146,2,7
,html-button-response,81,153540,0.0-81.0,944,,,,1,,,
,html-keyboard-response,82,154548,0.0-82.0,null,"<div style=""font-size:60px;"">+</div>",null,,,,,
,image-button-response,83,155057,0.0-83.0,null,stimuli/images_hvm10/im180.png,,,null,180,9,6
,html-button-response,84,155989,0.0-84.0,929.3999996,,,,0,,,
,html-keyboard-response,85,156997,0.0-85.0,null,"<div style=""font-size:60px;"">+</div>",null,,,,,
,image-button-response,86,157507,0.0-86.0,null,stimuli/images_hvm10/im179.png,,,null,179,8,1
,html-button-response,87,158440,0.0-87.0,929.6999998,,,,1,,,
,html-keyboard-response,88,159446,0.0-88.0,null,"<div style=""font-size:60px;"">+</div>",null,,,,,
,image-button-response,89,159957,0.0-89.0,null,stimuli/images_hvm10/im156.png,,,null,156,2,7
,html-button-response,90,160823,0.0-90.0,864,,,,1,,,
,html-keyboard-response,91,161831,0.0-91.0,null,"<div style=""font-size:60px;"">+</div>",null,,,,,
,image-button-response,92,162336,0.0-92.0,null,stimuli/images_hvm10/im162.png,,,null,162,5,8
,html-button-response,93,163544,0.0-93.0,1205.1,,,,1,,,
,html-keyboard-response,94,164552,0.0-94.0,null,"<div style=""font-size:60px;"">+</div>",null,,,,,
,image-button-response,95,165059,0.0-95.0,null,stimuli/images_hvm10/im147.png,,,null,147,7,2
,html-button-response,96,166025,0.0-96.0,963.1999998,,,,0,,,
,html-keyboard-response,97,167030,0.0-97.0,null,"<div style=""font-size:60px;"">+</div>",null,,,,,
,image-button-response,98,167540,0.0-98.0,null,stimuli/images_hvm10/im114.png,,,null,114,2,5
,html-button-response,99,168237,0.0-99.0,694.4000001,,,,1,,,
,html-keyboard-response,100,169244,0.0-100.0,null,"<div style=""font-size:60px;"">+</div>",null,,,,,
,image-button-response,101,169751,0.0-101.0,null,stimuli/images_hvm10/im79.png,,,null,79,0,3
,html-button-response,102,170540,0.0-102.0,786.5999999,,,,1,,,
,html-keyboard-response,103,171545,0.0-103.0,null,"<div style=""font-size:60px;"">+</div>",null,,,,,
,image-button-response,104,172055,0.0-104.0,null,stimuli/images_hvm10/im165.png,,,null,165,8,0
,html-button-response,105,172928,0.0-105.0,870.5,,,,1,,,
,html-keyboard-response,106,173937,0.0-106.0,null,"<div style=""font-size:60px;"">+</div>",null,,,,,
,image-button-response,107,174443,0.0-107.0,null,stimuli/images_hvm10/im6.png,,,null,6,3,0
,html-button-response,108,175309,0.0-108.0,862.7000003,,,,1,,,
,html-keyboard-response,109,176316,0.0-109.0,null,"<div style=""font-size:60px;"">+</div>",null,,,,,
,image-button-response,110,176824,0.0-110.0,null,stimuli/images_hvm10/im15.png,,,null,15,0,6
,html-button-response,111,177667,0.0-111.0,840.4000001,,,,0,,,
,html-keyboard-response,112,178676,0.0-112.0,null,"<div style=""font-size:60px;"">+</div>",null,,,,,
,image-button-response,113,179186,0.0-113.0,null,stimuli/images_hvm10/im17.png,,,null,17,7,0
,html-button-response,114,179952,0.0-114.0,762.8000002,,,,1,,,
,html-keyboard-response,115,180954,0.0-115.0,null,"<div style=""font-size:60px;"">+</div>",null,,,,,
,image-button-response,116,181463,0.0-116.0,null,stimuli/images_hvm10/im48.png,,,null,48,2,7
,html-button-response,117,183027,0.0-117.0,1561.6,,,,0,,,
,html-keyboard-response,118,184029,0.0-118.0,null,"<div style=""font-size:60px;"">+</div>",null,,,,,
,image-button-response,119,184538,0.0-119.0,null,stimuli/images_hvm10/im113.png,,,null,113,9,5
,html-button-response,120,185250,0.0-120.0,710.0999999,,,,1,,,
,html-keyboard-response,121,186255,0.0-121.0,null,"<div style=""font-size:60px;"">+</div>",null,,,,,
,image-button-response,122,186762,0.0-122.0,null,stimuli/images_hvm10/im120.png,,,null,120,3,6
,html-button-response,123,187574,0.0-123.0,810.3000002,,,,1,,,
,html-keyboard-response,124,188582,0.0-124.0,null,"<div style=""font-size:60px;"">+</div>",null,,,,,
,image-button-response,125,189092,0.0-125.0,null,stimuli/images_hvm10/im161.png,,,null,161,8,6
,html-button-response,126,189881,0.0-126.0,786.3000002,,,,0,,,
,html-keyboard-response,127,190883,0.0-127.0,null,"<div style=""font-size:60px;"">+</div>",null,,,,,
,image-button-response,128,191387,0.0-128.0,null,stimuli/images_hvm10/im8.png,,,null,8,2,0
,html-button-response,129,192119,0.0-129.0,729.9000001,,,,1,,,
,html-keyboard-response,130,193122,0.0-130.0,null,"<div style=""font-size:60px;"">+</div>",null,,,,,
,image-button-response,131,193628,0.0-131.0,null,stimuli/images_hvm10/im36.png,,,null,36,1,9
,html-button-response,132,194698,0.0-132.0,1068.5,,,,0,,,
,html-keyboard-response,133,195703,0.0-133.0,null,"<div style=""font-size:60px;"">+</div>",null,,,,,
,image-button-response,134,196212,0.0-134.0,null,stimuli/images_hvm10/im173.png,,,null,173,3,8
,html-button-response,135,196972,0.0-135.0,757.9000001,,,,1,,,
,html-keyboard-response,136,197981,0.0-136.0,null,"<div style=""font-size:60px;"">+</div>",null,,,,,
,image-button-response,137,198487,0.0-137.0,null,stimuli/images_hvm10/im4.png,,,null,4,0,2
,html-button-response,138,199295,0.0-138.0,805.6999998,,,,0,,,
,html-keyboard-response,139,200297,0.0-139.0,null,"<div style=""font-size:60px;"">+</div>",null,,,,,
,image-button-response,140,200800,0.0-140.0,null,stimuli/images_hvm10/im190.png,,,null,190,9,8
,html-button-response,141,201786,0.0-141.0,983.4000001,,,,0,,,
,html-keyboard-response,142,202795,0.0-142.0,null,"<div style=""font-size:60px;"">+</div>",null,,,,,
,image-button-response,143,203298,0.0-143.0,null,stimuli/images_hvm10/im57.png,,,null,57,2,8
,html-button-response,144,204174,0.0-144.0,873.5999999,,,,0,,,
,html-keyboard-response,145,205183,0.0-145.0,null,"<div style=""font-size:60px;"">+</div>",null,,,,,
,image-button-response,146,205689,0.0-146.0,null,stimuli/images_hvm10/im187.png,,,null,187,9,2
,html-button-response,147,206501,0.0-147.0,809.5999999,,,,0,,,
,html-keyboard-response,148,207510,0.0-148.0,null,"<div style=""font-size:60px;"">+</div>",null,,,,,
,image-button-response,149,208015,0.0-149.0,null,stimuli/images_hvm10/im167.png,,,null,167,8,4
,html-button-response,150,208753,0.0-150.0,735.4000001,,,,0,,,
,html-keyboard-response,151,209758,0.0-151.0,null,"<div style=""font-size:60px;"">+</div>",null,,,,,
,image-button-response,152,210265,0.0-152.0,null,stimuli/images_hvm10/im72.png,,,null,72,3,2
,html-button-response,153,211143,0.0-153.0,874.5,,,,0,,,
,html-keyboard-response,154,212147,0.0-154.0,null,"<div style=""font-size:60px;"">+</div>",null,,,,,
,image-button-response,155,212652,0.0-155.0,null,stimuli/images_hvm10/im170.png,,,null,170,2,8
,html-button-response,156,213481,0.0-156.0,826.9000001,,,,1,,,
,html-keyboard-response,157,214490,0.0-157.0,null,"<div style=""font-size:60px;"">+</div>",null,,,,,
,image-button-response,158,215000,0.0-158.0,null,stimuli/images_hvm10/im51.png,,,null,51,2,9
,html-button-response,159,215806,0.0-159.0,802.5,,,,0,,,
,html-keyboard-response,160,216812,0.0-160.0,null,"<div style=""font-size:60px;"">+</div>",null,,,,,
,image-button-response,161,217315,0.0-161.0,null,stimuli/images_hvm10/im185.png,,,null,185,9,7
,html-button-response,162,218056,0.0-162.0,738.6000004,,,,0,,,
,html-keyboard-response,163,219060,0.0-163.0,null,"<div style=""font-size:60px;"">+</div>",null,,,,,
,image-button-response,164,219567,0.0-164.0,null,stimuli/images_hvm10/im71.png,,,null,71,9,3
,html-button-response,165,220541,0.0-165.0,971.9000001,,,,1,,,
,html-keyboard-response,166,221546,0.0-166.0,null,"<div style=""font-size:60px;"">+</div>",null,,,,,
,image-button-response,167,222057,0.0-167.0,null,stimuli/images_hvm10/im166.png,,,null,166,3,8
,html-button-response,168,223784,0.0-168.0,1724.8,,,,1,,,
,html-keyboard-response,169,224789,0.0-169.0,null,"<div style=""font-size:60px;"">+</div>",null,,,,,
,image-button-response,170,225294,0.0-170.0,null,stimuli/images_hvm10/im148.png,,,null,148,1,7
,html-button-response,171,226707,0.0-171.0,1410.2,,,,1,,,
,html-keyboard-response,172,227709,0.0-172.0,null,"<div style=""font-size:60px;"">+</div>",null,,,,,
,image-button-response,173,228216,0.0-173.0,null,stimuli/images_hvm10/im182.png,,,null,182,9,5
,html-button-response,174,228852,0.0-174.0,633.6999998,,,,0,,,
,html-keyboard-response,175,229861,0.0-175.0,null,"<div style=""font-size:60px;"">+</div>",null,,,,,
,image-button-response,176,230369,0.0-176.0,null,stimuli/images_hvm10/im95.png,,,null,95,4,9
,html-button-response,177,231273,0.0-177.0,900.4000001,,,,0,,,
,html-keyboard-response,178,232274,0.0-178.0,null,"<div style=""font-size:60px;"">+</div>",null,,,,,
,image-button-response,179,232777,0.0-179.0,null,stimuli/images_hvm10/im31.png,,,null,31,1,4
,html-button-response,180,233667,0.0-180.0,886.5999999,,,,1,,,
,html-keyboard-response,181,234675,0.0-181.0,null,"<div style=""font-size:60px;"">+</div>",null,,,,,
,image-button-response,182,235185,0.0-182.0,null,stimuli/images_hvm10/im102.png,,,null,102,5,1
,html-button-response,183,235896,0.0-183.0,708.4000001,,,,0,,,
,html-keyboard-response,184,236902,0.0-184.0,null,"<div style=""font-size:60px;"">+</div>",null,,,,,
,image-button-response,185,237411,0.0-185.0,null,stimuli/images_hvm10/im23.png,,,null,23,0,1
,html-button-response,186,238214,0.0-186.0,801,,,,1,,,
,html-keyboard-response,187,239219,0.0-187.0,null,"<div style=""font-size:60px;"">+</div>",null,,,,,
,image-button-response,188,239727,0.0-188.0,null,stimuli/images_hvm10/im181.png,,,null,181,3,9
,html-button-response,189,240494,0.0-189.0,764.9000001,,,,1,,,
,html-keyboard-response,190,241502,0.0-190.0,null,"<div style=""font-size:60px;"">+</div>",null,,,,,
,image-button-response,191,242012,0.0-191.0,null,stimuli/images_hvm10/im92.png,,,null,92,0,4
,html-button-response,192,242871,0.0-192.0,856.6999998,,,,1,,,
,html-keyboard-response,193,243872,0.0-193.0,null,"<div style=""font-size:60px;"">+</div>",null,,,,,
,image-button-response,194,244380,0.0-194.0,null,stimuli/images_hvm10/im189.png,,,null,189,6,9
,html-button-response,195,245050,0.0-195.0,667.6999998,,,,1,,,
,html-keyboard-response,196,246051,0.0-196.0,null,"<div style=""font-size:60px;"">+</div>",null,,,,,
,image-button-response,197,246555,0.0-197.0,null,stimuli/images_hvm10/im43.png,,,null,43,6,2
,html-button-response,198,247933,0.0-198.0,1376.2,,,,1,,,
,html-keyboard-response,199,248942,0.0-199.0,null,"<div style=""font-size:60px;"">+</div>",null,,,,,
,image-button-response,200,249445,0.0-200.0,null,stimuli/images_hvm10/im40.png,,,null,40,0,2
,html-button-response,201,250374,0.0-201.0,926.0999999,,,,1,,,
,html-keyboard-response,202,251375,0.0-202.0,null,"<div style=""font-size:60px;"">+</div>",null,,,,,
,image-button-response,203,251882,0.0-203.0,null,stimuli/images_hvm10/im69.png,,,null,69,3,9
,html-button-response,204,252740,0.0-204.0,855.5,,,,0,,,
,html-keyboard-response,205,253748,0.0-205.0,null,"<div style=""font-size:60px;"">+</div>",null,,,,,
,image-button-response,206,254254,0.0-206.0,null,stimuli/images_hvm10/im90.png,,,null,90,4,0
,html-button-response,207,255080,0.0-207.0,823.0999999,,,,0,,,
,html-keyboard-response,208,256088,0.0-208.0,null,"<div style=""font-size:60px;"">+</div>",null,,,,,
,image-button-response,209,256591,0.0-209.0,null,stimuli/images_hvm10/im66.png,,,null,66,6,3
,html-button-response,210,257338,0.0-210.0,743.5999999,,,,1,,,
,html-keyboard-response,211,258343,0.0-211.0,null,"<div style=""font-size:60px;"">+</div>",null,,,,,
,image-button-response,212,258851,0.0-212.0,null,stimuli/images_hvm10/im196.png,,,null,196,9,0
,html-button-response,213,259573,0.0-213.0,719.7000003,,,,0,,,
,html-keyboard-response,214,260579,0.0-214.0,null,"<div style=""font-size:60px;"">+</div>",null,,,,,
,image-button-response,215,261087,0.0-215.0,null,stimuli/images_hvm10/im123.png,,,null,123,6,5
,html-button-response,216,261772,0.0-216.0,682.4000001,,,,0,,,
,html-keyboard-response,217,262774,0.0-217.0,null,"<div style=""font-size:60px;"">+</div>",null,,,,,
,image-button-response,218,263278,0.0-218.0,null,stimuli/images_hvm10/im158.png,,,null,158,7,0
,html-button-response,219,264069,0.0-219.0,788.2000003,,,,0,,,
,html-keyboard-response,220,265072,0.0-220.0,null,"<div style=""font-size:60px;"">+</div>",null,,,,,
,image-button-response,221,265582,0.0-221.0,null,stimuli/images_hvm10/im144.png,,,null,144,7,5
,html-button-response,222,266300,0.0-222.0,715,,,,0,,,
,html-keyboard-response,223,267308,0.0-223.0,null,"<div style=""font-size:60px;"">+</div>",null,,,,,
,image-button-response,224,267818,0.0-224.0,null,stimuli/images_hvm10/im184.png,,,null,184,9,2
,html-button-response,225,268473,0.0-225.0,652.4000001,,,,0,,,
,html-keyboard-response,226,269477,0.0-226.0,null,"<div style=""font-size:60px;"">+</div>",null,,,,,
,image-button-response,227,269981,0.0-227.0,null,stimuli/images_hvm10/im50.png,,,null,50,6,2
,html-button-response,228,270682,0.0-228.0,698.5,,,,1,,,
,html-keyboard-response,229,271690,0.0-229.0,null,"<div style=""font-size:60px;"">+</div>",null,,,,,
,image-button-response,230,272195,0.0-230.0,null,stimuli/images_hvm10/im39.png,,,null,39,1,6
,html-button-response,231,272979,0.0-231.0,780.5,,,,0,,,
,html-keyboard-response,232,273982,0.0-232.0,null,"<div style=""font-size:60px;"">+</div>",null,,,,,
,image-button-response,233,274493,0.0-233.0,null,stimuli/images_hvm10/im131.png,,,null,131,6,9
,html-button-response,234,275345,0.0-234.0,848.5,,,,0,,,
,html-keyboard-response,235,276353,0.0-235.0,null,"<div style=""font-size:60px;"">+</div>",null,,,,,
,image-button-response,236,276856,0.0-236.0,null,stimuli/images_hvm10/im157.png,,,null,157,0,7
,html-button-response,237,277682,0.0-237.0,824.4000001,,,,1,,,
,html-keyboard-response,238,278689,0.0-238.0,null,"<div style=""font-size:60px;"">+</div>",null,,,,,
,image-button-response,239,279193,0.0-239.0,null,stimuli/images_hvm10/im30.png,,,null,30,1,7
,html-button-response,240,280106,0.0-240.0,909.3000002,,,,1,,,
,html-keyboard-response,241,281110,0.0-241.0,null,"<div style=""font-size:60px;"">+</div>",null,,,,,
,image-button-response,242,281613,0.0-242.0,null,stimuli/images_hvm10/im91.png,,,null,91,4,1
,html-button-response,243,282649,0.0-243.0,1033,,,,0,,,
,html-keyboard-response,244,283652,0.0-244.0,null,"<div style=""font-size:60px;"">+</div>",null,,,,,
,image-button-response,245,284159,0.0-245.0,null,stimuli/images_hvm10/im80.png,,,null,80,7,4
,html-button-response,246,284951,0.0-246.0,790.2999997,,,,1,,,
,html-keyboard-response,247,285956,0.0-247.0,null,"<div style=""font-size:60px;"">+</div>",null,,,,,
,image-button-response,248,286462,0.0-248.0,null,stimuli/images_hvm10/im65.png,,,null,65,3,7
,html-button-response,249,287226,0.0-249.0,761.8000002,,,,0,,,
,html-keyboard-response,250,288234,0.0-250.0,null,"<div style=""font-size:60px;"">+</div>",null,,,,,
,image-button-response,251,288741,0.0-251.0,null,stimuli/images_hvm10/im81.png,,,null,81,5,4
,html-button-response,252,289595,0.0-252.0,851.2000003,,,,1,,,
,html-keyboard-response,253,290602,0.0-253.0,null,"<div style=""font-size:60px;"">+</div>",null,,,,,
,image-button-response,254,291112,0.0-254.0,null,stimuli/images_hvm10/im52.png,,,null,52,0,2
,html-button-response,255,292311,0.0-255.0,1197.8,,,,0,,,
,html-keyboard-response,256,293316,0.0-256.0,null,"<div style=""font-size:60px;"">+</div>",null,,,,,
,image-button-response,257,293826,0.0-257.0,null,stimuli/images_hvm10/im25.png,,,null,25,1,7
,html-button-response,258,295659,0.0-258.0,1831,,,,0,,,
,html-keyboard-response,259,296667,0.0-259.0,null,"<div style=""font-size:60px;"">+</div>",null,,,,,
,image-button-response,260,297176,0.0-260.0,null,stimuli/images_hvm10/im132.png,,,null,132,6,5
,html-button-response,261,297981,0.0-261.0,802.9000001,,,,0,,,
,html-keyboard-response,262,298984,0.0-262.0,null,"<div style=""font-size:60px;"">+</div>",null,,,,,
,image-button-response,263,299487,0.0-263.0,null,stimuli/images_hvm10/im178.png,,,null,178,5,8
,html-button-response,264,300333,0.0-264.0,844.3999996,,,,1,,,
,html-keyboard-response,265,301342,0.0-265.0,null,"<div style=""font-size:60px;"">+</div>",null,,,,,
,image-button-response,266,301852,0.0-266.0,null,stimuli/images_hvm10/im160.png,,,null,160,6,8
,html-button-response,267,302832,0.0-267.0,977.6000004,,,,1,,,
,html-keyboard-response,268,303834,0.0-268.0,null,"<div style=""font-size:60px;"">+</div>",null,,,,,
,image-button-response,269,304344,0.0-269.0,null,stimuli/images_hvm10/im145.png,,,null,145,7,3
,html-button-response,270,305209,0.0-270.0,862.9000001,,,,0,,,
,html-keyboard-response,271,306215,0.0-271.0,null,"<div style=""font-size:60px;"">+</div>",null,,,,,
,image-button-response,272,306725,0.0-272.0,null,stimuli/images_hvm10/im96.png,,,null,96,4,3
,html-button-response,273,307629,0.0-273.0,901.1999998,,,,0,,,
,html-keyboard-response,274,308636,0.0-274.0,null,"<div style=""font-size:60px;"">+</div>",null,,,,,
,image-button-response,275,309140,0.0-275.0,null,stimuli/images_hvm10/im29.png,,,null,29,8,1
,html-button-response,276,309926,0.0-276.0,784.2000003,,,,1,,,
,html-keyboard-response,277,310935,0.0-277.0,null,"<div style=""font-size:60px;"">+</div>",null,,,,,
,image-button-response,278,311445,0.0-278.0,null,stimuli/images_hvm10/im68.png,,,null,68,2,3
,html-button-response,279,312150,0.0-279.0,702.4000001,,,,1,,,
,html-keyboard-response,280,313159,0.0-280.0,null,"<div style=""font-size:60px;"">+</div>",null,,,,,
,image-button-response,281,313663,0.0-281.0,null,stimuli/images_hvm10/im198.png,,,null,198,9,4
,html-button-response,282,314379,0.0-282.0,714.1999998,,,,0,,,
,html-keyboard-response,283,315383,0.0-283.0,null,"<div style=""font-size:60px;"">+</div>",null,,,,,
,image-button-response,284,315886,0.0-284.0,null,stimuli/images_hvm10/im3.png,,,null,3,2,0
,html-button-response,285,316678,0.0-285.0,789.7999997,,,,1,,,
,html-keyboard-response,286,317684,0.0-286.0,null,"<div style=""font-size:60px;"">+</div>",null,,,,,
,image-button-response,287,318194,0.0-287.0,null,stimuli/images_hvm10/im143.png,,,null,143,7,6
,html-button-response,288,319078,0.0-288.0,881.1000004,,,,0,,,
,html-keyboard-response,289,320083,0.0-289.0,null,"<div style=""font-size:60px;"">+</div>",null,,,,,
,image-button-response,290,320586,0.0-290.0,null,stimuli/images_hvm10/im74.png,,,null,74,0,3
,html-button-response,291,321276,0.0-291.0,687.5999999,,,,1,,,
,html-keyboard-response,292,322278,0.0-292.0,null,"<div style=""font-size:60px;"">+</div>",null,,,,,
,image-button-response,293,322783,0.0-293.0,null,stimuli/images_hvm10/im62.png,,,null,62,3,6
,html-button-response,294,323595,0.0-294.0,808.8000002,,,,0,,,
,html-keyboard-response,295,324601,0.0-295.0,null,"<div style=""font-size:60px;"">+</div>",null,,,,,
,image-button-response,296,325110,0.0-296.0,null,stimuli/images_hvm10/im164.png,,,null,164,6,8
,html-button-response,297,325908,0.0-297.0,795.7000003,,,,1,,,
,html-keyboard-response,298,326912,0.0-298.0,null,"<div style=""font-size:60px;"">+</div>",null,,,,,
,image-button-response,299,327417,0.0-299.0,null,stimuli/images_hvm10/im41.png,,,null,41,2,4
,html-button-response,300,328102,0.0-300.0,682.0999999,,,,0,,,
,html-keyboard-response,301,329107,0.0-301.0,null,"<div style=""font-size:60px;"">+</div>",null,,,,,
,image-button-response,302,329611,0.0-302.0,null,stimuli/images_hvm10/im13.png,,,null,13,0,5
,html-button-response,303,330410,0.0-303.0,796.6999998,,,,0,,,
,html-keyboard-response,304,331412,0.0-304.0,null,"<div style=""font-size:60px;"">+</div>",null,,,,,
,image-button-response,305,331916,0.0-305.0,null,stimuli/images_hvm10/im70.png,,,null,70,3,7
,html-button-response,306,332626,0.0-306.0,707.6999998,,,,0,,,
,html-keyboard-response,307,333635,0.0-307.0,null,"<div style=""font-size:60px;"">+</div>",null,,,,,
,image-button-response,308,334142,0.0-308.0,null,stimuli/images_hvm10/im194.png,,,null,194,9,4
,html-button-response,309,334906,0.0-309.0,760.6000004,,,,0,,,
,html-keyboard-response,310,335915,0.0-310.0,null,"<div style=""font-size:60px;"">+</div>",null,,,,,
,image-button-response,311,336425,0.0-311.0,null,stimuli/images_hvm10/im59.png,,,null,59,2,0
,html-button-response,312,337489,0.0-312.0,1060.3,,,,0,,,
,html-keyboard-response,313,338494,0.0-313.0,null,"<div style=""font-size:60px;"">+</div>",null,,,,,
,image-button-response,314,338997,0.0-314.0,null,stimuli/images_hvm10/im105.png,,,null,105,3,5
,html-button-response,315,339650,0.0-315.0,651.2999997,,,,1,,,
,html-keyboard-response,316,340655,0.0-316.0,null,"<div style=""font-size:60px;"">+</div>",null,,,,,
,image-button-response,317,341163,0.0-317.0,null,stimuli/images_hvm10/im77.png,,,null,77,8,3
,html-button-response,318,341889,0.0-318.0,723.5,,,,1,,,
,html-keyboard-response,319,342891,0.0-319.0,null,"<div style=""font-size:60px;"">+</div>",null,,,,,
,image-button-response,320,343397,0.0-320.0,null,stimuli/images_hvm10/im9.png,,,null,9,6,0
,html-button-response,321,344184,0.0-321.0,785.1000004,,,,1,,,
,html-keyboard-response,322,345189,0.0-322.0,null,"<div style=""font-size:60px;"">+</div>",null,,,,,
,image-button-response,323,345696,0.0-323.0,null,stimuli/images_hvm10/im76.png,,,null,76,3,1
,html-button-response,324,346306,0.0-324.0,607.5999999,,,,0,,,
,html-keyboard-response,325,347307,0.0-325.0,null,"<div style=""font-size:60px;"">+</div>",null,,,,,
,image-button-response,326,347817,0.0-326.0,null,stimuli/images_hvm10/im54.png,,,null,54,2,0
,html-button-response,327,348495,0.0-327.0,675,,,,0,,,
,html-keyboard-response,328,349499,0.0-328.0,null,"<div style=""font-size:60px;"">+</div>",null,,,,,
,image-button-response,329,350004,0.0-329.0,null,stimuli/images_hvm10/im33.png,,,null,33,1,9
,html-button-response,330,350853,0.0-330.0,846.2999997,,,,0,,,
,html-keyboard-response,331,351859,0.0-331.0,null,"<div style=""font-size:60px;"">+</div>",null,,,,,
,image-button-response,332,352362,0.0-332.0,null,stimuli/images_hvm10/im136.png,,,null,136,6,8
,html-button-response,333,353420,0.0-333.0,1055.2,,,,0,,,
,html-keyboard-response,334,354422,0.0-334.0,null,"<div style=""font-size:60px;"">+</div>",null,,,,,
,image-button-response,335,354932,0.0-335.0,null,stimuli/images_hvm10/im89.png,,,null,89,4,7
,html-button-response,336,355691,0.0-336.0,756.8000002,,,,0,,,
,html-keyboard-response,337,356696,0.0-337.0,null,"<div style=""font-size:60px;"">+</div>",null,,,,,
,image-button-response,338,357204,0.0-338.0,null,stimuli/images_hvm10/im188.png,,,null,188,1,9
,html-button-response,339,357864,0.0-339.0,656.9000001,,,,1,,,
,html-keyboard-response,340,358870,0.0-340.0,null,"<div style=""font-size:60px;"">+</div>",null,,,,,
,image-button-response,341,359380,0.0-341.0,null,stimuli/images_hvm10/im183.png,,,null,183,4,9
,html-button-response,342,360193,0.0-342.0,809.5,,,,1,,,
,html-keyboard-response,343,361194,0.0-343.0,null,"<div style=""font-size:60px;"">+</div>",null,,,,,
,image-button-response,344,361704,0.0-344.0,null,stimuli/images_hvm10/im35.png,,,null,35,1,8
,html-button-response,345,362831,0.0-345.0,1123.4,,,,1,,,
,html-keyboard-response,346,363832,0.0-346.0,null,"<div style=""font-size:60px;"">+</div>",null,,,,,
,image-button-response,347,364342,0.0-347.0,null,stimuli/images_hvm10/im171.png,,,null,171,8,5
,html-button-response,348,365128,0.0-348.0,783.4000001,,,,0,,,
,html-keyboard-response,349,366131,0.0-349.0,null,"<div style=""font-size:60px;"">+</div>",null,,,,,
,image-button-response,350,366641,0.0-350.0,null,stimuli/images_hvm10/im67.png,,,null,67,8,3
,html-button-response,351,367385,0.0-351.0,740.5999999,,,,1,,,
,html-keyboard-response,352,368387,0.0-352.0,null,"<div style=""font-size:60px;"">+</div>",null,,,,,
,image-button-response,353,368896,0.0-353.0,null,stimuli/images_hvm10/im108.png,,,null,108,9,5
,html-button-response,354,371331,0.0-354.0,2432.5,,,,1,,,
,html-keyboard-response,355,372340,0.0-355.0,null,"<div style=""font-size:60px;"">+</div>",null,,,,,
,image-button-response,356,372843,0.0-356.0,null,stimuli/images_hvm10/im172.png,,,null,172,3,8
,html-button-response,357,373558,0.0-357.0,712.0999999,,,,1,,,
,html-keyboard-response,358,374560,0.0-358.0,null,"<div style=""font-size:60px;"">+</div>",null,,,,,
,image-button-response,359,375063,0.0-359.0,null,stimuli/images_hvm10/im22.png,,,null,22,1,3
,html-button-response,360,375793,0.0-360.0,727.6999998,,,,0,,,
,html-keyboard-response,361,376800,0.0-361.0,null,"<div style=""font-size:60px;"">+</div>",null,,,,,
,image-button-response,362,377304,0.0-362.0,null,stimuli/images_hvm10/im137.png,,,null,137,8,6
,html-button-response,363,378158,0.0-363.0,850.8000002,,,,1,,,
,html-keyboard-response,364,379160,0.0-364.0,null,"<div style=""font-size:60px;"">+</div>",null,,,,,
,image-button-response,365,379666,0.0-365.0,null,stimuli/images_hvm10/im53.png,,,null,53,9,2
,html-button-response,366,380468,0.0-366.0,798.8999996,,,,1,,,
,html-keyboard-response,367,381474,0.0-367.0,null,"<div style=""font-size:60px;"">+</div>",null,,,,,
,image-button-response,368,381978,0.0-368.0,null,stimuli/images_hvm10/im116.png,,,null,116,5,3
,html-button-response,369,382588,0.0-369.0,606.5999999,,,,0,,,
,html-keyboard-response,370,383594,0.0-370.0,null,"<div style=""font-size:60px;"">+</div>",null,,,,,
,image-button-response,371,384099,0.0-371.0,null,stimuli/images_hvm10/im44.png,,,null,44,9,2
,html-button-response,372,384781,0.0-372.0,678.8000002,,,,1,,,
,html-keyboard-response,373,385788,0.0-373.0,null,"<div style=""font-size:60px;"">+</div>",null,,,,,
,image-button-response,374,386293,0.0-374.0,null,stimuli/images_hvm10/im138.png,,,null,138,6,8
,html-button-response,375,387602,0.0-375.0,1306.6,,,,1,,,
,html-keyboard-response,376,388611,0.0-376.0,null,"<div style=""font-size:60px;"">+</div>",null,,,,,
,image-button-response,377,389119,0.0-377.0,null,stimuli/images_hvm10/im85.png,,,null,85,3,4
,html-button-response,378,390111,0.0-378.0,990,,,,1,,,
,html-keyboard-response,379,391120,0.0-379.0,null,"<div style=""font-size:60px;"">+</div>",null,,,,,
,image-button-response,380,391625,0.0-380.0,null,stimuli/images_hvm10/im169.png,,,null,169,8,2
,html-button-response,381,392312,0.0-381.0,685,,,,0,,,
,html-keyboard-response,382,393321,0.0-382.0,null,"<div style=""font-size:60px;"">+</div>",null,,,,,
,image-button-response,383,393831,0.0-383.0,null,stimuli/images_hvm10/im38.png,,,null,38,1,8
,html-button-response,384,395056,0.0-384.0,1223.1,,,,0,,,
,html-keyboard-response,385,396058,0.0-385.0,null,"<div style=""font-size:60px;"">+</div>",null,,,,,
,image-button-response,386,396567,0.0-386.0,null,stimuli/images_hvm10/im186.png,,,null,186,1,9
,html-button-response,387,397209,0.0-387.0,639,,,,1,,,
,html-keyboard-response,388,398218,0.0-388.0,null,"<div style=""font-size:60px;"">+</div>",null,,,,,
,image-button-response,389,398724,0.0-389.0,null,stimuli/images_hvm10/im174.png,,,null,174,8,3
,html-button-response,390,399815,0.0-390.0,1088.8,,,,0,,,
,html-keyboard-response,391,400823,0.0-391.0,null,"<div style=""font-size:60px;"">+</div>",null,,,,,
,image-button-response,392,401333,0.0-392.0,null,stimuli/images_hvm10/im99.png,,,null,99,4,9
,html-button-response,393,402120,0.0-393.0,784.5,,,,0,,,
,html-keyboard-response,394,403128,0.0-394.0,null,"<div style=""font-size:60px;"">+</div>",null,,,,,
,image-button-response,395,403631,0.0-395.0,null,stimuli/images_hvm10/im84.png,,,null,84,0,4
,html-button-response,396,404343,0.0-396.0,709.0999999,,,,1,,,
,html-keyboard-response,397,405348,0.0-397.0,null,"<div style=""font-size:60px;"">+</div>",null,,,,,
,image-button-response,398,405851,0.0-398.0,null,stimuli/images_hvm10/im175.png,,,null,175,6,8
,html-button-response,399,406611,0.0-399.0,757.0999999,,,,1,,,
,html-keyboard-response,400,407618,0.0-400.0,null,"<div style=""font-size:60px;"">+</div>",null,,,,,
,image-button-response,401,408122,0.0-401.0,null,stimuli/images_hvm10/im86.png,,,null,86,4,0
,html-button-response,402,409088,0.0-402.0,962.6999998,,,,1,,,
,html-keyboard-response,403,410089,0.0-403.0,null,"<div style=""font-size:60px;"">+</div>",null,,,,,
,image-button-response,404,410599,0.0-404.0,null,stimuli/images_hvm10/im21.png,,,null,21,1,8
,html-button-response,405,411502,0.0-405.0,900.0999999,,,,0,,,
,html-keyboard-response,406,412508,0.0-406.0,null,"<div style=""font-size:60px;"">+</div>",null,,,,,
,image-button-response,407,413018,0.0-407.0,null,stimuli/images_hvm10/im141.png,,,null,141,2,7
,html-button-response,408,413871,0.0-408.0,850.7999997,,,,1,,,
,html-keyboard-response,409,414874,0.0-409.0,null,"<div style=""font-size:60px;"">+</div>",null,,,,,
,image-button-response,410,415384,0.0-410.0,null,stimuli/images_hvm10/im2.png,,,null,2,7,0
,html-button-response,411,416243,0.0-411.0,857.2000003,,,,1,,,
,html-keyboard-response,412,417247,0.0-412.0,null,"<div style=""font-size:60px;"">+</div>",null,,,,,
,image-button-response,413,417758,0.0-413.0,null,stimuli/images_hvm10/im109.png,,,null,109,8,5
,html-button-response,414,418460,0.0-414.0,699.4000001,,,,1,,,
,html-keyboard-response,415,419467,0.0-415.0,null,"<div style=""font-size:60px;"">+</div>",null,,,,,
,image-button-response,416,419978,0.0-416.0,null,stimuli/images_hvm10/im60.png,,,null,60,7,3
,html-button-response,417,420641,0.0-417.0,660.2000003,,,,1,,,
,html-keyboard-response,418,421642,0.0-418.0,null,"<div style=""font-size:60px;"">+</div>",null,,,,,
,image-button-response,419,422152,0.0-419.0,null,stimuli/images_hvm10/im26.png,,,null,26,1,4
,html-button-response,420,423392,0.0-420.0,1236.4,,,,0,,,
,html-keyboard-response,421,424396,0.0-421.0,null,"<div style=""font-size:60px;"">+</div>",null,,,,,
,image-button-response,422,424902,0.0-422.0,null,stimuli/images_hvm10/im28.png,,,null,28,1,4
,html-button-response,423,425658,0.0-423.0,753.4000001,,,,1,,,
,html-keyboard-response,424,426660,0.0-424.0,null,"<div style=""font-size:60px;"">+</div>",null,,,,,
,image-button-response,425,427167,0.0-425.0,null,stimuli/images_hvm10/im7.png,,,null,7,0,2
,html-button-response,426,427741,0.0-426.0,571.2999997,,,,0,,,
,html-keyboard-response,427,428743,0.0-427.0,null,"<div style=""font-size:60px;"">+</div>",null,,,,,
,image-button-response,428,429251,0.0-428.0,null,stimuli/images_hvm10/im177.png,,,null,177,2,8
,html-button-response,429,429905,0.0-429.0,649.6000004,,,,1,,,
,html-keyboard-response,430,430909,0.0-430.0,null,"<div style=""font-size:60px;"">+</div>",null,,,,,
,image-button-response,431,431420,0.0-431.0,null,stimuli/images_hvm10/im159.png,,,null,159,7,2
,html-button-response,432,432049,0.0-432.0,626.0999999,,,,0,,,
,html-keyboard-response,433,433058,0.0-433.0,null,"<div style=""font-size:60px;"">+</div>",null,,,,,
,image-button-response,434,433562,0.0-434.0,null,stimuli/images_hvm10/im37.png,,,null,37,1,4
,html-button-response,435,434636,0.0-435.0,1070.3,,,,0,,,
,html-keyboard-response,436,435639,0.0-436.0,null,"<div style=""font-size:60px;"">+</div>",null,,,,,
,image-button-response,437,436146,0.0-437.0,null,stimuli/images_hvm10/im151.png,,,null,151,4,7
,html-button-response,438,436815,0.0-438.0,665.8000002,,,,1,,,
,html-keyboard-response,439,437817,0.0-439.0,null,"<div style=""font-size:60px;"">+</div>",null,,,,,
,image-button-response,440,438321,0.0-440.0,null,stimuli/images_hvm10/im24.png,,,null,24,1,5
,html-button-response,441,439042,0.0-441.0,718,,,,0,,,
,html-keyboard-response,442,440052,0.0-442.0,null,"<div style=""font-size:60px;"">+</div>",null,,,,,
,image-button-response,443,440558,0.0-443.0,null,stimuli/images_hvm10/im61.png,,,null,61,3,7
,html-button-response,444,441274,0.0-444.0,713.2000003,,,,0,,,
,html-keyboard-response,445,442279,0.0-445.0,null,"<div style=""font-size:60px;"">+</div>",null,,,,,
,image-button-response,446,442782,0.0-446.0,null,stimuli/images_hvm10/im197.png,,,null,197,9,3
,html-button-response,447,443426,0.0-447.0,640.9000001,,,,0,,,
,html-keyboard-response,448,444428,0.0-448.0,null,"<div style=""font-size:60px;"">+</div>",null,,,,,
,image-button-response,449,444938,0.0-449.0,null,stimuli/images_hvm10/im73.png,,,null,73,3,9
,html-button-response,450,445726,0.0-450.0,785.4000001,,,,0,,,
,html-keyboard-response,451,446729,0.0-451.0,null,"<div style=""font-size:60px;"">+</div>",null,,,,,
,image-button-response,452,447234,0.0-452.0,null,stimuli/images_hvm10/im45.png,,,null,45,0,2
,html-button-response,453,448403,0.0-453.0,1167.6,,,,0,,,
,html-keyboard-response,454,449406,0.0-454.0,null,"<div style=""font-size:60px;"">+</div>",null,,,,,
,image-button-response,455,449914,0.0-455.0,null,stimuli/images_hvm10/im56.png,,,null,56,7,2
,html-button-response,456,450459,0.0-456.0,542.3000002,,,,1,,,
,html-keyboard-response,457,451461,0.0-457.0,null,"<div style=""font-size:60px;"">+</div>",null,,,,,
,image-button-response,458,451969,0.0-458.0,null,stimuli/images_hvm10/im133.png,,,null,133,7,6
,html-button-response,459,452722,0.0-459.0,750.5,,,,1,,,
,html-keyboard-response,460,453724,0.0-460.0,null,"<div style=""font-size:60px;"">+</div>",null,,,,,
,image-button-response,461,454232,0.0-461.0,null,stimuli/images_hvm10/im135.png,,,null,135,6,1
,html-button-response,462,454882,0.0-462.0,648.1999998,,,,0,,,
,html-keyboard-response,463,455886,0.0-463.0,null,"<div style=""font-size:60px;"">+</div>",null,,,,,
,image-button-response,464,456396,0.0-464.0,null,stimuli/images_hvm10/im168.png,,,null,168,5,8
,html-button-response,465,457081,0.0-465.0,683.9000001,,,,1,,,
,html-keyboard-response,466,458085,0.0-466.0,null,"<div style=""font-size:60px;"">+</div>",null,,,,,
,image-button-response,467,458593,0.0-467.0,null,stimuli/images_hvm10/im98.png,,,null,98,4,7
,html-button-response,468,459504,0.0-468.0,909.4000001,,,,1,,,
,html-keyboard-response,469,460510,0.0-469.0,null,"<div style=""font-size:60px;"">+</div>",null,,,,,
,image-button-response,470,461015,0.0-470.0,null,stimuli/images_hvm10/im63.png,,,null,63,3,8
,html-button-response,471,461619,0.0-471.0,600.5,,,,0,,,
,html-keyboard-response,472,462627,0.0-472.0,null,"<div style=""font-size:60px;"">+</div>",null,,,,,
,image-button-response,473,463137,0.0-473.0,null,stimuli/images_hvm10/im49.png,,,null,49,2,8
,html-button-response,474,463960,0.0-474.0,819.7000003,,,,1,,,
,html-keyboard-response,475,464964,0.0-475.0,null,"<div style=""font-size:60px;"">+</div>",null,,,,,
,image-button-response,476,465471,0.0-476.0,null,stimuli/images_hvm10/im176.png,,,null,176,8,5
,html-button-response,477,466216,0.0-477.0,742.5,,,,0,,,
,html-keyboard-response,478,467220,0.0-478.0,null,"<div style=""font-size:60px;"">+</div>",null,,,,,
,image-button-response,479,467727,0.0-479.0,null,stimuli/images_hvm10/im149.png,,,null,149,8,7
,html-button-response,480,468389,0.0-480.0,659.2000003,,,,1,,,
,html-keyboard-response,481,469392,0.0-481.0,null,"<div style=""font-size:60px;"">+</div>",null,,,,,
,image-button-response,482,469895,0.0-482.0,null,stimuli/images_hvm10/im20.png,,,null,20,1,4
,html-button-response,483,470952,0.0-483.0,1053.6,,,,0,,,
,html-keyboard-response,484,471960,0.0-484.0,null,"<div style=""font-size:60px;"">+</div>",null,,,,,
,image-button-response,485,472466,0.0-485.0,null,stimuli/images_hvm10/im18.png,,,null,18,2,0
,html-button-response,486,473212,0.0-486.0,742.5,,,,1,,,
,html-keyboard-response,487,474220,0.0-487.0,null,"<div style=""font-size:60px;"">+</div>",null,,,,,
,image-button-response,488,474724,0.0-488.0,null,stimuli/images_hvm10/im78.png,,,null,78,7,3
,html-button-response,489,475422,0.0-489.0,695,,,,1,,,
,html-keyboard-response,490,476430,0.0-490.0,null,"<div style=""font-size:60px;"">+</div>",null,,,,,
,image-button-response,491,476934,0.0-491.0,null,stimuli/images_hvm10/im87.png,,,null,87,4,2
,html-button-response,492,477644,0.0-492.0,707.4000001,,,,0,,,
,html-keyboard-response,493,478648,0.0-493.0,null,"<div style=""font-size:60px;"">+</div>",null,,,,,
,image-button-response,494,479154,0.0-494.0,null,stimuli/images_hvm10/im82.png,,,null,82,8,4
,html-button-response,495,480066,0.0-495.0,908.6000004,,,,0,,,
,html-keyboard-response,496,481075,0.0-496.0,null,"<div style=""font-size:60px;"">+</div>",null,,,,,
,image-button-response,497,481581,0.0-497.0,null,stimuli/images_hvm10/im32.png,,,null,32,6,1
,html-button-response,498,482718,0.0-498.0,1134,,,,1,,,
,html-keyboard-response,499,483727,0.0-499.0,null,"<div style=""font-size:60px;"">+</div>",null,,,,,
,image-button-response,500,484235,0.0-500.0,null,stimuli/images_hvm10/im1.png,,,null,1,0,5
,html-button-response,501,484865,0.0-501.0,627.7999997,,,,0,,,
,html-keyboard-response,502,485874,0.0-502.0,null,"<div style=""font-size:60px;"">+</div>",null,,,,,
,image-button-response,503,486382,0.0-503.0,null,stimuli/images_hvm10/im101.png,,,null,101,5,0
,html-button-response,504,487455,0.0-504.0,1070.9,,,,1,,,
,html-keyboard-response,505,488462,0.0-505.0,null,"<div style=""font-size:60px;"">+</div>",null,,,,,
,image-button-response,506,488969,0.0-506.0,null,stimuli/images_hvm10/im163.png,,,null,163,8,0
,html-button-response,507,489617,0.0-507.0,644.0999999,,,,0,,,
,html-keyboard-response,508,490625,0.0-508.0,null,"<div style=""font-size:60px;"">+</div>",null,,,,,
,image-button-response,509,491129,0.0-509.0,null,stimuli/images_hvm10/im14.png,,,null,14,0,4
,html-button-response,510,491735,0.0-510.0,602.1000004,,,,0,,,
,html-keyboard-response,511,492737,0.0-511.0,null,"<div style=""font-size:60px;"">+</div>",null,,,,,
,image-button-response,512,493245,0.0-512.0,null,stimuli/images_hvm10/im100.png,,,null,100,8,5
,html-button-response,513,493814,0.0-513.0,566.1000004,,,,1,,,
,html-keyboard-response,514,494820,0.0-514.0,null,"<div style=""font-size:60px;"">+</div>",null,,,,,
,image-button-response,515,495329,0.0-515.0,null,stimuli/images_hvm10/im27.png,,,null,27,1,4
,html-button-response,516,496483,0.0-516.0,1152.2,,,,0,,,
,html-keyboard-response,517,497485,0.0-517.0,null,"<div style=""font-size:60px;"">+</div>",null,,,,,
,image-button-response,518,497995,0.0-518.0,null,stimuli/images_hvm10/im117.png,,,null,117,5,7
,html-button-response,519,498571,0.0-519.0,573.5999999,,,,0,,,
,html-keyboard-response,520,499573,0.0-520.0,null,"<div style=""font-size:60px;"">+</div>",null,,,,,
,image-button-response,521,500081,0.0-521.0,null,stimuli/images_hvm10/im139.png,,,null,139,6,1
,html-button-response,522,500925,0.0-522.0,842,,,,0,,,
,html-keyboard-response,523,501929,0.0-523.0,null,"<div style=""font-size:60px;"">+</div>",null,,,,,
,image-button-response,524,502432,0.0-524.0,null,stimuli/images_hvm10/im107.png,,,null,107,2,5
,html-button-response,525,502976,0.0-525.0,541.6999998,,,,1,,,
,html-keyboard-response,526,503977,0.0-526.0,null,"<div style=""font-size:60px;"">+</div>",null,,,,,
,image-button-response,527,504486,0.0-527.0,null,stimuli/images_hvm10/im75.png,,,null,75,3,4
,html-button-response,528,505206,0.0-528.0,717.8000002,,,,0,,,
,html-keyboard-response,529,506208,0.0-529.0,null,"<div style=""font-size:60px;"">+</div>",null,,,,,
,image-button-response,530,506718,0.0-530.0,null,stimuli/images_hvm10/im55.png,,,null,55,2,9
,html-button-response,531,507730,0.0-531.0,1010.2,,,,0,,,
,html-keyboard-response,532,508732,0.0-532.0,null,"<div style=""font-size:60px;"">+</div>",null,,,,,
,image-button-response,533,509240,0.0-533.0,null,stimuli/images_hvm10/im11.png,,,null,11,0,1
,html-button-response,534,509991,0.0-534.0,748.4000001,,,,0,,,
,html-keyboard-response,535,511000,0.0-535.0,null,"<div style=""font-size:60px;"">+</div>",null,,,,,
,image-button-response,536,511505,0.0-536.0,null,stimuli/images_hvm10/im97.png,,,null,97,2,4
,html-button-response,537,512254,0.0-537.0,747,,,,1,,,
,html-keyboard-response,538,513263,0.0-538.0,null,"<div style=""font-size:60px;"">+</div>",null,,,,,
,image-button-response,539,513772,0.0-539.0,null,stimuli/images_hvm10/im58.png,,,null,58,6,2
,html-button-response,540,514630,0.0-540.0,856.1000004,,,,1,,,
,html-keyboard-response,541,515632,0.0-541.0,null,"<div style=""font-size:60px;"">+</div>",null,,,,,
,image-button-response,542,516142,0.0-542.0,null,stimuli/images_hvm10/im152.png,,,null,152,7,3
,html-button-response,543,516834,0.0-543.0,689.2999997,,,,0,,,
,html-keyboard-response,544,517835,0.0-544.0,null,"<div style=""font-size:60px;"">+</div>",null,,,,,
,image-button-response,545,518343,0.0-545.0,null,stimuli/images_hvm10/im34.png,,,null,34,1,9
,html-button-response,546,519086,0.0-546.0,740.3999996,,,,0,,,
,html-keyboard-response,547,520093,0.0-547.0,null,"<div style=""font-size:60px;"">+</div>",null,,,,,
,image-button-response,548,520601,0.0-548.0,null,stimuli/images_hvm10/im19.png,,,null,19,7,0
,html-button-response,549,521351,0.0-549.0,746.7000003,,,,1,,,
,html-keyboard-response,550,522357,0.0-550.0,null,"<div style=""font-size:60px;"">+</div>",null,,,,,
,image-button-response,551,522860,0.0-551.0,null,stimuli/images_hvm10/im12.png,,,null,12,0,5
,html-button-response,552,523446,0.0-552.0,583.5999999,,,,0,,,
,html-keyboard-response,553,524454,0.0-553.0,null,"<div style=""font-size:60px;"">+</div>",null,,,,,
,image-button-response,554,524961,0.0-554.0,null,stimuli/images_hvm10/im88.png,,,null,88,9,4
,html-button-response,555,526367,0.0-555.0,1402.1,,,,1,,,
,html-keyboard-response,556,527376,0.0-556.0,null,"<div style=""font-size:60px;"">+</div>",null,,,,,
,image-button-response,557,527886,0.0-557.0,null,stimuli/images_hvm10/im0.png,,,null,0,0,6
,html-button-response,558,528575,0.0-558.0,686.6999998,,,,0,,,
,html-keyboard-response,559,529580,0.0-559.0,null,"<div style=""font-size:60px;"">+</div>",null,,,,,
,image-button-response,560,530090,0.0-560.0,null,stimuli/images_hvm10/im47.png,,,null,47,8,2
,html-button-response,561,530977,0.0-561.0,884.1000004,,,,0,,,
,html-keyboard-response,562,531982,0.0-562.0,null,"<div style=""font-size:60px;"">+</div>",null,,,,,
,image-button-response,563,532487,0.0-563.0,null,stimuli/images_hvm10/im122.png,,,null,122,6,5
,html-button-response,564,533692,0.0-564.0,1202.3,,,,1,,,
,html-keyboard-response,565,534701,0.0-565.0,null,"<div style=""font-size:60px;"">+</div>",null,,,,,
,image-button-response,566,535210,0.0-566.0,null,stimuli/images_hvm10/im10.png,,,null,10,0,4
,html-button-response,567,535866,0.0-567.0,653.8000002,,,,0,,,
,html-keyboard-response,568,536875,0.0-568.0,null,"<div style=""font-size:60px;"">+</div>",null,,,,,
,image-button-response,569,537379,0.0-569.0,null,stimuli/images_hvm10/im154.png,,,null,154,7,4
,html-button-response,570,538105,0.0-570.0,721.5999999,,,,0,,,
,html-keyboard-response,571,539112,0.0-571.0,null,"<div style=""font-size:60px;"">+</div>",null,,,,,
,image-button-response,572,539618,0.0-572.0,null,stimuli/images_hvm10/im16.png,,,null,16,0,9
,html-button-response,573,540178,0.0-573.0,557.3000002,,,,0,,,
,html-keyboard-response,574,541183,0.0-574.0,null,"<div style=""font-size:60px;"">+</div>",null,,,,,
,image-button-response,575,541686,0.0-575.0,null,stimuli/images_hvm10/im93.png,,,null,93,4,6
,html-button-response,576,542411,0.0-576.0,721.7000003,,,,0,,,
,html-keyboard-response,577,543418,0.0-577.0,null,"<div style=""font-size:60px;"">+</div>",null,,,,,
,image-button-response,578,543923,0.0-578.0,null,stimuli/images_hvm10/im42.png,,,null,42,2,0
,html-button-response,579,544734,0.0-579.0,807.1999998,,,,1,,,
,html-keyboard-response,580,545736,0.0-580.0,null,"<div style=""font-size:60px;"">+</div>",null,,,,,
,image-button-response,581,546247,0.0-581.0,null,stimuli/images_hvm10/im94.png,,,null,94,4,8
,html-button-response,582,546833,0.0-582.0,583,,,,0,,,
,html-keyboard-response,583,547834,0.0-583.0,null,"<div style=""font-size:60px;"">+</div>",null,,,,,
,image-button-response,584,548338,0.0-584.0,null,stimuli/images_hvm10/im118.png,,,null,118,5,2
,html-button-response,585,549036,0.0-585.0,696.5999999,,,,0,,,
,html-keyboard-response,586,550040,0.0-586.0,null,"<div style=""font-size:60px;"">+</div>",null,,,,,
,image-button-response,587,550545,0.0-587.0,null,stimuli/images_hvm10/im64.png,,,null,64,3,6
,html-button-response,588,551163,0.0-588.0,617.1999998,,,,0,,,
,html-keyboard-response,589,552172,0.0-589.0,null,"<div style=""font-size:60px;"">+</div>",null,,,,,
,image-button-response,590,552677,0.0-590.0,null,stimuli/images_hvm10/im46.png,,,null,46,1,2
,html-button-response,591,553255,0.0-591.0,576,,,,1,,,
,html-keyboard-response,592,554265,0.0-592.0,null,"<div style=""font-size:60px;"">+</div>",null,,,,,
,image-button-response,593,554769,0.0-593.0,null,stimuli/images_hvm10/im5.png,,,null,5,4,0
,html-button-response,594,555512,0.0-594.0,740.7999997,,,,1,,,
,html-keyboard-response,595,556517,0.0-595.0,null,"<div style=""font-size:60px;"">+</div>",null,,,,,
,image-button-response,596,557027,0.0-596.0,null,stimuli/images_hvm10/im83.png,,,null,83,4,0
,html-button-response,597,557772,0.0-597.0,742.9000001,,,,1,,,
,html-keyboard-response,598,558777,0.0-598.0,null,"<div style=""font-size:60px;"">+</div>",null,,,,,
,image-button-response,599,559285,0.0-599.0,null,stimuli/images_hvm10/im195.png,,,null,195,2,9
,html-button-response,600,559961,0.0-600.0,674.4000001,,,,1,,,