"rt","response","trial_type","trial_index","time_elapsed","internal_node_id","stimulus","response_type","key_press","avg_frame_time","center_x","center_y","trial","block","test_pos","test_inner_radius","test_outer_radius","ref_inner_radius","ref_outer_radius","test_bigger"
"21091","{""p_id"":""7380"",""age"":""21"",""handedness"":""right"",""sex"":""female"",""other_sex"":""""}","survey-html-form","0","21091","0.0-0.0","","","","","","","","","","","","","",""
"5619"," ","html-keyboard-response","1","26714","0.0-1.0","<p style=""color: white"">Welcome to the Size Judgment Experiment. <br>There will be 10 blocks in this experiment. <br>There will be 28 trials in each block. <br>You will be given a chance to take a break between blocks. <br>Press any key to start the experiment.</p>","","","","","","","","","","","","",""
"7598","arrowleft","psychophysics","2","34322","0.0-2.0","","key","arrowleft","16.69301098901099","960","448","","","","","","","",""
"1207","arrowleft","psychophysics","3","35530","0.0-3.0-0.0","","key","arrowleft","16.669444444444405","960","448","1","1","1","24","15","25","35","false"
"null","null","psychophysics","4","36536","0.0-3.0-1.0","","key","null","16.675593220338992","960","448","","","","","","","",""
"4191","arrowright","psychophysics","5","40729","0.0-3.0-0.1","","key","arrowright","16.682639999999985","960","448","2","1","1","24","15","25","35","true"
"null","null","psychophysics","6","41735","0.0-3.0-1.1","","key","null","16.688333333333382","960","448","","","","","","","",""
"1626","arrowright","psychophysics","7","43362","0.0-3.0-0.2","","key","arrowright","16.68500000000002","960","448","3","1","-1","27","15","25","35","false"
"null","null","psychophysics","8","44364","0.0-3.0-1.2","","key","null","16.69593220338979","960","448","","","","","","","",""
"3731","arrowleft","psychophysics","9","48096","0.0-3.0-0.3","","key","arrowleft","16.68547085201794","960","448","4","1","1","25","15","25","35","false"
"null","null","psychophysics","10","49103","0.0-3.0-1.3","","key","null","16.68271186440676","960","448","","","","","","","",""
"1195","arrowleft","psychophysics","11","50299","0.0-3.0-0.4","","key","arrowleft","16.685633802816803","960","448","5","1","-1","27","35","25","35","true"
"null","null","psychophysics","12","51301","0.0-3.0-1.4","","key","null","16.69186440677978","960","448","","","","","","","",""
"712","arrowright","psychophysics","13","52016","0.0-3.0-0.5","","key","arrowright","16.704761904761696","960","448","6","1","1","30","35","25","35","true"
"null","null","psychophysics","14","53017","0.0-3.0-1.5","","key","null","16.684406779661096","960","448","","","","","","","",""
"1408","arrowright","psychophysics","15","54425","0.0-3.0-0.6","","key","arrowright","16.673975903614487","960","448","7","1","1","23","35","25","35","true"
"null","null","psychophysics","16","55428","0.0-3.0-1.6","","key","null","16.685762711864516","960","448","","","","","","","",""
"874","arrowleft","psychophysics","17","56304","0.0-3.0-0.7","","key","arrowleft","16.688846153846008","960","448","8","1","1","20","35","25","35","false"
"null","null","psychophysics","18","57306","0.0-3.0-1.7","","key","null","16.676949152542413","960","448","","","","","","","",""
"556","arrowright","psychophysics","19","57864","0.0-3.0-0.8","","key","arrowright","16.691249999999854","960","448","9","1","-1","24","15","25","35","false"
"null","null","psychophysics","20","58869","0.0-3.0-1.8","","key","null","16.68271186440676","960","448","","","","","","","",""
"909","arrowleft","psychophysics","21","59784","0.0-3.0-0.9","","key","arrowleft","16.685185185185187","960","448","10","1","-1","30","15","25","35","true"
"null","null","psychophysics","22","60786","0.0-3.0-1.9","","key","null","16.684745762711767","960","448","","","","","","","",""
"2886","arrowleft","psychophysics","23","63673","0.0-3.0-0.10","","key","arrowleft","16.68976744186046","960","448","11","1","1","24","15","25","35","false"
"null","null","psychophysics","24","64675","0.0-3.0-1.10","","key","null","16.677966101694917","960","448","","","","","","","",""
"2174","arrowleft","psychophysics","25","66856","0.0-3.0-0.11","","key","arrowleft","16.68784615384614","960","448","12","1","1","23","15","25","35","false"
"null","null","psychophysics","26","67856","0.0-3.0-1.11","","key","null","16.683728813559263","960","448","","","","","","","",""
"1350","arrowright","psychophysics","27","69207","0.0-3.0-0.12","","key","arrowright","16.683250000000044","960","448","13","1","-1","23","35","25","35","false"
"null","null","psychophysics","28","70212","0.0-3.0-1.12","","key","null","16.688474576271354","960","448","","","","","","","",""
"756","arrowright","psychophysics","29","70969","0.0-3.0-0.13","","key","arrowright","16.685333333333254","960","448","14","1","-1","23","35","25","35","false"
"null","null","psychophysics","30","71974","0.0-3.0-1.13","","key","null","16.672881355932155","960","448","","","","","","","",""
"545","arrowright","psychophysics","31","72519","0.0-3.0-0.14","","key","arrowright","16.668125000000146","960","448","15","1","-1","20","15","25","35","false"
"null","null","psychophysics","32","73520","0.0-3.0-1.14","","key","null","16.70237288135597","960","448","","","","","","","",""
"591","arrowleft","psychophysics","33","74112","0.0-3.0-0.15","","key","arrowleft","16.678235294117577","960","448","16","1","1","24","15","25","35","false"
"null","null","psychophysics","34","75118","0.0-3.0-1.15","","key","null","16.685084745762683","960","448","","","","","","","",""
"531","arrowleft","psychophysics","35","75649","0.0-3.0-0.16","","key","arrowleft","16.683870967741843","960","448","17","1","1","20","15","25","35","false"
"null","null","psychophysics","36","76655","0.0-3.0-1.16","","key","null","16.685762711864268","960","448","","","","","","","",""
"482","arrowright","psychophysics","37","77143","0.0-3.0-0.17","","key","arrowright","16.684827586206918","960","448","18","1","1","26","35","25","35","true"
"null","null","psychophysics","38","78144","0.0-3.0-1.17","","key","null","16.671186440678063","960","448","","","","","","","",""
"433","arrowright","psychophysics","39","78577","0.0-3.0-0.18","","key","arrowright","16.65359999999986","960","448","19","1","-1","26","15","25","35","false"
"null","null","psychophysics","40","79578","0.0-3.0-1.18","","key","null","16.66813559322031","960","448","","","","","","","",""
"786","arrowleft","psychophysics","41","80368","0.0-3.0-0.19","","key","arrowleft","16.665217391304473","960","448","20","1","-1","26","35","25","35","true"
"null","null","psychophysics","42","81372","0.0-3.0-1.19","","key","null","16.702033898305054","960","448","","","","","","","",""
"649","arrowright","psychophysics","43","82023","0.0-3.0-0.20","","key","arrowright","16.712631578947033","960","448","21","1","-1","23","35","25","35","false"
"null","null","psychophysics","44","83026","0.0-3.0-1.20","","key","null","16.685762711864516","960","448","","","","","","","",""
"557","arrowright","psychophysics","45","83585","0.0-3.0-0.21","","key","arrowright","16.696969696969695","960","448","22","1","-1","24","35","25","35","false"
"null","null","psychophysics","46","84588","0.0-3.0-1.21","","key","null","16.6854237288136","960","448","","","","","","","",""
"674","arrowright","psychophysics","47","85263","0.0-3.0-0.22","","key","arrowright","16.67128205128187","960","448","23","1","-1","20","35","25","35","false"
"null","null","psychophysics","48","86267","0.0-3.0-1.22","","key","null","16.69499999999995","960","448","","","","","","","",""
"540","arrowright","psychophysics","49","86808","0.0-3.0-0.23","","key","arrowright","16.68516129032275","960","448","24","1","-1","25","35","25","35","false"
"null","null","psychophysics","50","87813","0.0-3.0-1.23","","key","null","16.685084745762683","960","448","","","","","","","",""
"603","arrowleft","psychophysics","51","88423","0.0-3.0-0.24","","key","arrowleft","16.712222222222206","960","448","25","1","1","26","15","25","35","false"
"null","null","psychophysics","52","89427","0.0-3.0-1.24","","key","null","16.703728813559145","960","448","","","","","","","",""
"710","arrowleft","psychophysics","53","90138","0.0-3.0-0.25","","key","arrowleft","16.68000000000029","960","448","26","1","1","20","35","25","35","false"
"null","null","psychophysics","54","91141","0.0-3.0-1.25","","key","null","16.6989830508473","960","448","","","","","","","",""
"897","arrowleft","psychophysics","55","92040","0.0-3.0-0.26","","key","arrowleft","16.681509433962177","960","448","27","1","-1","27","35","25","35","true"
"null","null","psychophysics","56","93041","0.0-3.0-1.26","","key","null","16.684745762711767","960","448","","","","","","","",""
"582","arrowright","psychophysics","57","93625","0.0-3.0-0.27","","key","arrowright","16.658823529411592","960","448","28","2","-1","20","35","25","35","false"
"null","null","psychophysics","58","94630","0.0-3.0-1.27","","key","null","16.686101694915184","960","448","","","","","","","",""
"2553","arrowright","html-keyboard-response","59","97184","0.0-3.0-2.27-0.27","<div style=""color: white; text-align: center; vertical-align: top; display: inline-block; width: 800px; margin: auto""><p>You have completed 10% of the trials. You are on block 2 of 10. <br>Good job! Take a break if you need to.</p><p>Press any key to continue the experiment.</p></div>","","","","","","","","","","","","",""
"692","arrowleft","psychophysics","60","98886","0.0-3.0-0.28","","key","arrowleft","16.820000000000242","960","448","29","2","-1","26","15","25","35","true"
"null","null","psychophysics","61","99889","0.0-3.0-1.28","","key","null","16.687118644067688","960","448","","","","","","","",""
"1795","arrowright","psychophysics","62","101686","0.0-3.0-0.29","","key","arrowright","16.6833644859814","960","448","30","2","-1","20","15","25","35","false"
"null","null","psychophysics","63","102688","0.0-3.0-1.29","","key","null","16.683728813559263","960","448","","","","","","","",""
"716","arrowleft","psychophysics","64","103406","0.0-3.0-0.30","","key","arrowleft","16.686190476190642","960","448","31","2","-1","25","35","25","35","true"
"null","null","psychophysics","65","104411","0.0-3.0-1.30","","key","null","16.691186440677946","960","448","","","","","","","",""
"466","arrowright","psychophysics","66","104879","0.0-3.0-0.31","","key","arrowright","16.68370370370394","960","448","32","2","-1","24","15","25","35","false"
"null","null","psychophysics","67","105882","0.0-3.0-1.31","","key","null","16.687118644067688","960","448","","","","","","","",""
"707","arrowleft","psychophysics","68","106590","0.0-3.0-0.32","","key","arrowleft","16.701428571428725","960","448","33","2","-1","25","35","25","35","true"
"null","null","psychophysics","69","107593","0.0-3.0-1.32","","key","null","16.6854237288136","960","448","","","","","","","",""
"476","arrowright","psychophysics","70","108070","0.0-3.0-0.33","","key","arrowright","16.6837037037034","960","448","34","2","-1","25","15","25","35","false"
"null","null","psychophysics","71","109072","0.0-3.0-1.33","","key","null","16.685762711864516","960","448","","","","","","","",""
"661","arrowleft","psychophysics","72","109742","0.0-3.0-0.34","","key","arrowleft","16.68299999999981","960","448","35","2","-1","27","15","25","35","true"
"null","null","psychophysics","73","110748","0.0-3.0-1.34","","key","null","16.67966101694925","960","448","","","","","","","",""
"633","arrowright","psychophysics","74","111382","0.0-3.0-0.35","","key","arrowright","16.68648648648633","960","448","36","2","1","30","35","25","35","true"
"null","null","psychophysics","75","112387","0.0-3.0-1.35","","key","null","16.70237288135597","960","448","","","","","","","",""
"690","arrowleft","psychophysics","76","113079","0.0-3.0-0.36","","key","arrowleft","16.68097560975641","960","448","37","2","-1","26","15","25","35","true"
"null","null","psychophysics","77","114082","0.0-3.0-1.36","","key","null","16.684406779661096","960","448","","","","","","","",""
"971","arrowright","psychophysics","78","115054","0.0-3.0-0.37","","key","arrowright","16.673684210526215","960","448","38","2","-1","26","35","25","35","false"
"null","null","psychophysics","79","116056","0.0-3.0-1.37","","key","null","16.676949152542413","960","448","","","","","","","",""
"429","arrowleft","psychophysics","80","116485","0.0-3.0-0.38","","key","arrowleft","16.684799999999814","960","448","39","2","1","25","15","25","35","false"
"null","null","psychophysics","81","117491","0.0-3.0-1.38","","key","null","16.674576271186243","960","448","","","","","","","",""
"937","arrowright","psychophysics","82","118429","0.0-3.0-0.39","","key","arrowright","16.703636363636576","960","448","40","2","1","26","35","25","35","true"
"null","null","psychophysics","83","119432","0.0-3.0-1.39","","key","null","16.6864406779661","960","448","","","","","","","",""
"469","arrowleft","psychophysics","84","119903","0.0-3.0-0.40","","key","arrowleft","16.676428571428655","960","448","41","2","1","30","15","25","35","false"
"null","null","psychophysics","85","120908","0.0-3.0-1.40","","key","null","16.67830508474608","960","448","","","","","","","",""
"538","arrowleft","psychophysics","86","121447","0.0-3.0-0.41","","key","arrowleft","16.683870967741374","960","448","42","2","1","23","35","25","35","false"
"null","null","psychophysics","87","122453","0.0-3.0-1.41","","key","null","16.70271186440664","960","448","","","","","","","",""
"592","arrowleft","psychophysics","88","123046","0.0-3.0-0.42","","key","arrowleft","16.683428571428937","960","448","43","2","-1","27","35","25","35","true"
"null","null","psychophysics","89","124053","0.0-3.0-1.42","","key","null","16.67016949152507","960","448","","","","","","","",""
"585","arrowleft","psychophysics","90","124639","0.0-3.0-0.43","","key","arrowleft","16.68411764705824","960","448","44","2","1","30","35","25","35","false"
"null","null","psychophysics","91","125643","0.0-3.0-1.43","","key","null","16.70333333333353","960","448","","","","","","","",""
"561","arrowleft","psychophysics","92","126205","0.0-3.0-0.44","","key","arrowleft","16.65124999999989","960","448","45","2","1","24","35","25","35","false"
"null","null","psychophysics","93","127209","0.0-3.0-1.44","","key","null","16.684745762711767","960","448","","","","","","","",""
"601","arrowleft","psychophysics","94","127815","0.0-3.0-0.45","","key","arrowleft","16.696111111111048","960","448","46","2","-1","26","35","25","35","true"
"null","null","psychophysics","95","128815","0.0-3.0-1.45","","key","null","16.70271186440664","960","448","","","","","","","",""
"429","arrowright","psychophysics","96","129247","0.0-3.0-0.46","","key","arrowright","16.64320000000065","960","448","47","2","-1","24","15","25","35","false"
"null","null","psychophysics","97","130254","0.0-3.0-1.46","","key","null","16.674915254237405","960","448","","","","","","","",""
"808","arrowright","psychophysics","98","131062","0.0-3.0-0.47","","key","arrowright","16.676595744680604","960","448","48","2","1","24","35","25","35","true"
"null","null","psychophysics","99","132068","0.0-3.0-1.47","","key","null","16.68733333333318","960","448","","","","","","","",""
"649","arrowleft","psychophysics","100","132717","0.0-3.0-0.48","","key","arrowleft","16.67789473684235","960","448","49","2","-1","27","15","25","35","true"
"null","null","psychophysics","101","133722","0.0-3.0-1.48","","key","null","16.68338983050859","960","448","","","","","","","",""
"595","arrowleft","psychophysics","102","134319","0.0-3.0-0.49","","key","arrowleft","16.65314285714329","960","448","50","2","-1","26","15","25","35","true"
"null","null","psychophysics","103","135324","0.0-3.0-1.49","","key","null","16.6864406779661","960","448","","","","","","","",""
"608","arrowleft","psychophysics","104","135933","0.0-3.0-0.50","","key","arrowleft","16.684571428571196","960","448","51","2","-1","25","15","25","35","true"
"null","null","psychophysics","105","136939","0.0-3.0-1.50","","key","null","16.697333333333276","960","448","","","","","","","",""
"523","arrowleft","psychophysics","106","137462","0.0-3.0-0.51","","key","arrowleft","16.710000000000583","960","448","52","2","-1","27","35","25","35","true"
"null","null","psychophysics","107","138466","0.0-3.0-1.51","","key","null","16.68576271186476","960","448","","","","","","","",""
"458","arrowleft","psychophysics","108","138925","0.0-3.0-0.52","","key","arrowleft","16.704444444445134","960","448","53","2","1","25","35","25","35","false"
"null","null","psychophysics","109","139927","0.0-3.0-1.52","","key","null","16.70474576271214","960","448","","","","","","","",""
"375","arrowleft","psychophysics","110","140303","0.0-3.0-0.53","","key","arrowleft","16.645714285714174","960","448","54","2","1","26","35","25","35","false"
"null","null","psychophysics","111","141308","0.0-3.0-1.53","","key","null","16.691186440677946","960","448","","","","","","","",""
"571","arrowright","psychophysics","112","141886","0.0-3.0-0.54","","key","arrowright","16.675294117647674","960","448","55","2","1","26","35","25","35","true"
"null","null","psychophysics","113","142891","0.0-3.0-1.54","","key","null","16.68338983050859","960","448","","","","","","","",""
"740","arrowleft","psychophysics","114","143638","0.0-3.0-0.55","","key","arrowleft","16.70545454545473","960","448","56","3","-1","23","15","25","35","true"
"null","null","psychophysics","115","144639","0.0-3.0-1.55","","key","null","16.687796610169276","960","448","","","","","","","",""
"3414","arrowright","html-keyboard-response","116","148053","0.0-3.0-2.55-0.55","<div style=""color: white; text-align: center; vertical-align: top; display: inline-block; width: 800px; margin: auto""><p>You have completed 20% of the trials. You are on block 3 of 10. <br>Good job! Take a break if you need to.</p><p>Press any key to continue the experiment.</p></div>","","","","","","","","","","","","",""
"550","arrowleft","psychophysics","117","149611","0.0-3.0-0.56","","key","arrowleft","16.516363636363884","960","448","57","3","1","27","35","25","35","false"
"null","null","psychophysics","118","150615","0.0-3.0-1.56","","key","null","16.69559322033912","960","448","","","","","","","",""
"947","arrowright","psychophysics","119","151563","0.0-3.0-0.57","","key","arrowright","16.665714285714266","960","448","58","3","1","30","35","25","35","true"
"null","null","psychophysics","120","152565","0.0-3.0-1.57","","key","null","16.67966101694925","960","448","","","","","","","",""
"430","arrowleft","psychophysics","121","152997","0.0-3.0-0.58","","key","arrowleft","16.68560000000056","960","448","59","3","1","20","15","25","35","false"
"null","null","psychophysics","122","154002","0.0-3.0-1.58","","key","null","16.697627118644128","960","448","","","","","","","",""
"523","arrowleft","psychophysics","123","154526","0.0-3.0-0.59","","key","arrowleft","16.650322580645273","960","448","60","3","1","26","15","25","35","false"
"null","null","psychophysics","124","155531","0.0-3.0-1.59","","key","null","16.703389830508474","960","448","","","","","","","",""
"617","arrowright","psychophysics","125","156149","0.0-3.0-0.60","","key","arrowright","16.705555555555392","960","448","61","3","1","27","35","25","35","true"
"null","null","psychophysics","126","157154","0.0-3.0-1.60","","key","null","16.67966101694925","960","448","","","","","","","",""
"689","arrowleft","psychophysics","127","157844","0.0-3.0-0.61","","key","arrowleft","16.685853658536473","960","448","62","3","-1","24","15","25","35","true"
"null","null","psychophysics","128","158846","0.0-3.0-1.61","","key","null","16.69830508474596","960","448","","","","","","","",""
"2944","arrowleft","psychophysics","129","161790","0.0-3.0-0.62","","key","arrowleft","16.685257142857218","960","448","63","3","-1","25","35","25","35","true"
"null","null","psychophysics","130","162791","0.0-3.0-1.62","","key","null","16.67932203389809","960","448","","","","","","","",""
"676","arrowright","psychophysics","131","163469","0.0-3.0-0.63","","key","arrowright","16.66600000000035","960","448","64","3","-1","25","35","25","35","false"
"null","null","psychophysics","132","164469","0.0-3.0-1.63","","key","null","16.68508474576293","960","448","","","","","","","",""
"629","arrowleft","psychophysics","133","165099","0.0-3.0-0.64","","key","arrowleft","16.684999999999288","960","448","65","3","-1","27","15","25","35","true"
"null","null","psychophysics","134","166101","0.0-3.0-1.64","","key","null","16.68169491525426","960","448","","","","","","","",""
"600","arrowleft","psychophysics","135","166709","0.0-3.0-0.65","","key","arrowleft","16.69555555555578","960","448","66","3","-1","25","15","25","35","true"
"null","null","psychophysics","136","167711","0.0-3.0-1.65","","key","null","16.68881355932227","960","448","","","","","","","",""
"514","arrowleft","psychophysics","137","168227","0.0-3.0-0.66","","key","arrowleft","16.666666666666668","960","448","67","3","1","27","35","25","35","false"
"null","null","psychophysics","138","169229","0.0-3.0-1.66","","key","null","16.6854237288136","960","448","","","","","","","",""
"1399","arrowleft","psychophysics","139","170629","0.0-3.0-0.67","","key","arrowleft","16.68722891566275","960","448","68","3","1","23","15","25","35","false"
"null","null","psychophysics","140","171632","0.0-3.0-1.67","","key","null","16.684745762711767","960","448","","","","","","","",""
"898","arrowleft","psychophysics","141","172532","0.0-3.0-0.68","","key","arrowleft","16.664528301886815","960","448","69","3","1","25","15","25","35","false"
"null","null","psychophysics","142","173535","0.0-3.0-1.68","","key","null","16.67661016949174","960","448","","","","","","","",""
"927","arrowleft","psychophysics","143","174463","0.0-3.0-0.69","","key","arrowleft","16.667272727272938","960","448","70","3","1","26","15","25","35","false"
"null","null","psychophysics","144","175471","0.0-3.0-1.69","","key","null","16.690508474576113","960","448","","","","","","","",""
"420","arrowleft","psychophysics","145","175891","0.0-3.0-0.70","","key","arrowleft","16.684166666665988","960","448","71","3","-1","25","15","25","35","true"
"null","null","psychophysics","146","176895","0.0-3.0-1.70","","key","null","16.685084745762435","960","448","","","","","","","",""
"717","arrowleft","psychophysics","147","177613","0.0-3.0-0.71","","key","arrowleft","16.695714285714313","960","448","72","3","-1","30","15","25","35","true"
"null","null","psychophysics","148","178618","0.0-3.0-1.71","","key","null","16.685333333333254","960","448","","","","","","","",""
"776","arrowright","psychophysics","149","179395","0.0-3.0-0.72","","key","arrowright","16.705333333333126","960","448","73","3","-1","20","15","25","35","false"
"null","null","psychophysics","150","180400","0.0-3.0-1.72","","key","null","16.6989830508473","960","448","","","","","","","",""
"654","arrowleft","psychophysics","151","181059","0.0-3.0-0.73","","key","arrowleft","16.706666666666607","960","448","74","3","1","30","15","25","35","false"
"null","null","psychophysics","152","182061","0.0-3.0-1.73","","key","null","16.684745762711767","960","448","","","","","","","",""
"877","arrowleft","psychophysics","153","182941","0.0-3.0-0.74","","key","arrowleft","16.693461538461495","960","448","75","3","-1","26","35","25","35","true"
"null","null","psychophysics","154","183942","0.0-3.0-1.74","","key","null","16.684745762711767","960","448","","","","","","","",""
"876","arrowleft","psychophysics","155","184819","0.0-3.0-0.75","","key","arrowleft","16.676470588235293","960","448","76","3","-1","25","15","25","35","true"
"null","null","psychophysics","156","185820","0.0-3.0-1.75","","key","null","16.67999999999992","960","448","","","","","","","",""
"535","arrowleft","psychophysics","157","186356","0.0-3.0-0.76","","key","arrowleft","16.665806451612415","960","448","77","3","1","24","15","25","35","false"
"null","null","psychophysics","158","187359","0.0-3.0-1.76","","key","null","16.681016949152426","960","448","","","","","","","",""
"3639","arrowleft","psychophysics","159","191003","0.0-3.0-0.77","","key","arrowleft","16.68339449541289","960","448","78","3","-1","23","15","25","35","true"
"null","null","psychophysics","160","192005","0.0-3.0-1.77","","key","null","16.6854237288136","960","448","","","","","","","",""
"614","arrowleft","psychophysics","161","192620","0.0-3.0-0.78","","key","arrowleft","16.686111111111433","960","448","79","3","-1","30","35","25","35","true"
"null","null","psychophysics","162","193625","0.0-3.0-1.78","","key","null","16.685762711864268","960","448","","","","","","","",""
"711","arrowright","psychophysics","163","194339","0.0-3.0-0.79","","key","arrowright","16.70952380952353","960","448","80","3","1","30","15","25","35","true"
"null","null","psychophysics","164","195343","0.0-3.0-1.79","","key","null","16.690847457627278","960","448","","","","","","","",""
"645","arrowright","psychophysics","165","195989","0.0-3.0-0.80","","key","arrowright","16.666315789473867","960","448","81","3","1","30","15","25","35","true"
"null","null","psychophysics","166","196994","0.0-3.0-1.80","","key","null","16.700677966101637","960","448","","","","","","","",""
"863","arrowright","psychophysics","167","197858","0.0-3.0-0.81","","key","arrowright","16.68509803921573","960","448","82","3","-1","27","15","25","35","false"
"null","null","psychophysics","168","198863","0.0-3.0-1.81","","key","null","16.68576271186476","960","448","","","","","","","",""
"709","arrowright","psychophysics","169","199573","0.0-3.0-0.82","","key","arrowright","16.663333333333693","960","448","83","3","1","30","35","25","35","true"
"null","null","psychophysics","170","200575","0.0-3.0-1.82","","key","null","16.69593220338979","960","448","","","","","","","",""
"515","arrowleft","psychophysics","171","201091","0.0-3.0-0.83","","key","arrowleft","16.650666666666318","960","448","84","4","1","26","15","25","35","false"
"null","null","psychophysics","172","202099","0.0-3.0-1.83","","key","null","16.671186440678063","960","448","","","","","","","",""
"1704","arrowright","html-keyboard-response","173","203802","0.0-3.0-2.83-0.83","<div style=""color: white; text-align: center; vertical-align: top; display: inline-block; width: 800px; margin: auto""><p>You have completed 30% of the trials. You are on block 4 of 10. <br>Good job! Take a break if you need to.</p><p>Press any key to continue the experiment.</p></div>","","","","","","","","","","","","",""
"744","arrowleft","psychophysics","174","205555","0.0-3.0-0.84","","key","arrowleft","16.80727272727249","960","448","85","4","-1","26","15","25","35","true"
"null","null","psychophysics","175","206558","0.0-3.0-1.84","","key","null","16.679661016948756","960","448","","","","","","","",""
"567","arrowleft","psychophysics","176","207125","0.0-3.0-0.85","","key","arrowleft","16.71636363636406","960","448","86","4","1","20","15","25","35","false"
"null","null","psychophysics","177","208128","0.0-3.0-1.85","","key","null","16.679322033898583","960","448","","","","","","","",""
"553","arrowleft","psychophysics","178","208683","0.0-3.0-0.86","","key","arrowleft","16.65757575757611","960","448","87","4","1","20","15","25","35","false"
"null","null","psychophysics","179","209684","0.0-3.0-1.86","","key","null","16.685762711864268","960","448","","","","","","","",""
"493","arrowright","psychophysics","180","210178","0.0-3.0-0.87","","key","arrowright","16.689285714285298","960","448","88","4","-1","20","15","25","35","false"
"null","null","psychophysics","181","211181","0.0-3.0-1.87","","key","null","16.694237288135948","960","448","","","","","","","",""
"597","arrowleft","psychophysics","182","211779","0.0-3.0-0.88","","key","arrowleft","16.657714285713986","960","448","89","4","-1","23","35","25","35","true"
"null","null","psychophysics","183","212783","0.0-3.0-1.88","","key","null","16.68576271186476","960","448","","","","","","","",""
"387","arrowright","psychophysics","184","213171","0.0-3.0-0.89","","key","arrowright","16.664347826086907","960","448","90","4","1","27","15","25","35","true"
"null","null","psychophysics","185","214176","0.0-3.0-1.89","","key","null","16.68508474576293","960","448","","","","","","","",""
"362","arrowright","psychophysics","186","214540","0.0-3.0-0.90","","key","arrowright","16.64190476190526","960","448","91","4","1","24","35","25","35","true"
"null","null","psychophysics","187","215544","0.0-3.0-1.90","","key","null","16.69932203389846","960","448","","","","","","","",""
"322","arrowleft","psychophysics","188","215866","0.0-3.0-0.91","","key","arrowleft","16.66999999999987","960","448","92","4","-1","20","35","25","35","true"
"null","null","psychophysics","189","216871","0.0-3.0-1.91","","key","null","16.684406779661096","960","448","","","","","","","",""
"492","arrowleft","psychophysics","190","217364","0.0-3.0-0.92","","key","arrowleft","16.71103448275846","960","448","93","4","1","23","15","25","35","false"
"null","null","psychophysics","191","218368","0.0-3.0-1.92","","key","null","16.68576271186476","960","448","","","","","","","",""
"593","arrowleft","psychophysics","192","218962","0.0-3.0-0.93","","key","arrowleft","16.67257142857166","960","448","94","4","1","24","35","25","35","false"
"null","null","psychophysics","193","219967","0.0-3.0-1.93","","key","null","16.703050847457806","960","448","","","","","","","",""
"604","arrowleft","psychophysics","194","220573","0.0-3.0-0.94","","key","arrowleft","16.661714285714385","960","448","95","4","-1","27","15","25","35","true"
"null","null","psychophysics","195","221575","0.0-3.0-1.94","","key","null","16.686101694915433","960","448","","","","","","","",""
"2675","arrowright","psychophysics","196","224250","0.0-3.0-0.95","","key","arrowright","16.685750000000006","960","448","96","4","-1","24","35","25","35","false"
"null","null","psychophysics","197","225258","0.0-3.0-1.95","","key","null","16.684067796610424","960","448","","","","","","","",""
"431","arrowright","psychophysics","198","225691","0.0-3.0-0.96","","key","arrowright","16.684799999999814","960","448","97","4","-1","27","15","25","35","false"
"null","null","psychophysics","199","226696","0.0-3.0-1.96","","key","null","16.685762711864268","960","448","","","","","","","",""
"1297","arrowright","psychophysics","200","227993","0.0-3.0-0.97","","key","arrowright","16.69220779220802","960","448","98","4","1","30","35","25","35","true"
"null","null","psychophysics","201","228999","0.0-3.0-1.97","","key","null","16.69186440677978","960","448","","","","","","","",""
"1219","arrowright","psychophysics","202","230219","0.0-3.0-0.98","","key","arrowright","16.686666666666294","960","448","99","4","-1","23","15","25","35","false"
"null","null","psychophysics","203","231222","0.0-3.0-1.98","","key","null","16.696610169491624","960","448","","","","","","","",""
"526","arrowleft","psychophysics","204","231753","0.0-3.0-0.99","","key","arrowleft","16.707741935483945","960","448","100","4","1","25","15","25","35","false"
"null","null","psychophysics","205","232754","0.0-3.0-1.99","","key","null","16.67864406779675","960","448","","","","","","","",""
"583","arrowleft","psychophysics","206","233339","0.0-3.0-0.100","","key","arrowleft","16.702941176470418","960","448","101","4","1","20","35","25","35","false"
"null","null","psychophysics","207","234345","0.0-3.0-1.100","","key","null","16.691666666666666","960","448","","","","","","","",""
"632","arrowright","psychophysics","208","234978","0.0-3.0-0.101","","key","arrowright","16.678918918919578","960","448","102","4","-1","20","35","25","35","false"
"null","null","psychophysics","209","235982","0.0-3.0-1.101","","key","null","16.68508474576293","960","448","","","","","","","",""
"585","arrowleft","psychophysics","210","236568","0.0-3.0-0.102","","key","arrowleft","16.699411764705847","960","448","103","4","-1","30","15","25","35","true"
"null","null","psychophysics","211","237573","0.0-3.0-1.102","","key","null","16.686101694915433","960","448","","","","","","","",""
"718","arrowleft","psychophysics","212","238291","0.0-3.0-0.103","","key","arrowleft","16.69999999999986","960","448","104","4","1","20","35","25","35","false"
"null","null","psychophysics","213","239295","0.0-3.0-1.103","","key","null","16.67525423728857","960","448","","","","","","","",""
"631","arrowleft","psychophysics","214","239936","0.0-3.0-0.104","","key","arrowleft","16.69157894736839","960","448","105","4","-1","27","35","25","35","true"
"null","null","psychophysics","215","240943","0.0-3.0-1.104","","key","null","16.684745762711767","960","448","","","","","","","",""
"620","arrowleft","psychophysics","216","241563","0.0-3.0-0.105","","key","arrowleft","16.66833333333327","960","448","106","4","-1","30","15","25","35","true"
"null","null","psychophysics","217","242565","0.0-3.0-1.105","","key","null","16.701355932202976","960","448","","","","","","","",""
"723","arrowright","psychophysics","218","243289","0.0-3.0-0.106","","key","arrowright","16.673488372093512","960","448","107","4","1","25","35","25","35","true"
"null","null","psychophysics","219","244295","0.0-3.0-1.106","","key","null","16.675254237287582","960","448","","","","","","","",""
"1035","arrowright","psychophysics","220","245331","0.0-3.0-0.107","","key","arrowright","16.688524590163933","960","448","108","4","-1","27","35","25","35","false"
"null","null","psychophysics","221","246335","0.0-3.0-1.107","","key","null","16.68610169491494","960","448","","","","","","","",""
"1600","arrowleft","psychophysics","222","247936","0.0-3.0-0.108","","key","arrowleft","16.696210526315323","960","448","109","4","-1","26","35","25","35","true"
"null","null","psychophysics","223","248939","0.0-3.0-1.108","","key","null","16.69864406779614","960","448","","","","","","","",""
"807","arrowleft","psychophysics","224","249747","0.0-3.0-0.109","","key","arrowleft","16.676249999999225","960","448","110","4","1","23","35","25","35","false"
"null","null","psychophysics","225","250752","0.0-3.0-1.109","","key","null","16.68406779661092","960","448","","","","","","","",""
"751","arrowright","psychophysics","226","251505","0.0-3.0-0.110","","key","arrowright","16.699999999999736","960","448","111","4","1","30","15","25","35","true"
"null","null","psychophysics","227","252508","0.0-3.0-1.110","","key","null","16.69186440677978","960","448","","","","","","","",""
"1452","arrowright","psychophysics","228","253962","0.0-3.0-0.111","","key","arrowright","16.68511627906958","960","448","112","5","-1","27","15","25","35","false"
"null","null","psychophysics","229","254968","0.0-3.0-1.111","","key","null","16.687000000000506","960","448","","","","","","","",""
"4992","arrowright","html-keyboard-response","230","259960","0.0-3.0-2.111-0.111","<div style=""color: white; text-align: center; vertical-align: top; display: inline-block; width: 800px; margin: auto""><p>You have completed 40% of the trials. You are on block 5 of 10. <br>Good job! Take a break if you need to.</p><p>Press any key to continue the experiment.</p></div>","","","","","","","","","","","","",""
"865","arrowright","psychophysics","231","261834","0.0-3.0-0.112","","key","arrowright","16.80313725490237","960","448","113","5","1","27","15","25","35","true"
"null","null","psychophysics","232","262840","0.0-3.0-1.112","","key","null","16.700338983050965","960","448","","","","","","","",""
"978","arrowleft","psychophysics","233","263824","0.0-3.0-0.113","","key","arrowleft","16.68344827586231","960","448","114","5","-1","30","15","25","35","true"
"null","null","psychophysics","234","264827","0.0-3.0-1.113","","key","null","16.699666666667326","960","448","","","","","","","",""
"573","arrowleft","psychophysics","235","265402","0.0-3.0-0.114","","key","arrowleft","16.666060606061805","960","448","115","5","-1","30","35","25","35","true"
"null","null","psychophysics","236","266408","0.0-3.0-1.114","","key","null","16.67999999999992","960","448","","","","","","","",""
"521","arrowleft","psychophysics","237","266930","0.0-3.0-0.115","","key","arrowleft","16.66387096774246","960","448","116","5","1","24","35","25","35","false"
"null","null","psychophysics","238","267932","0.0-3.0-1.115","","key","null","16.684745762711273","960","448","","","","","","","",""
"469","arrowleft","psychophysics","239","268401","0.0-3.0-0.116","","key","arrowleft","16.67629629629664","960","448","117","5","1","26","15","25","35","false"
"null","null","psychophysics","240","269406","0.0-3.0-1.116","","key","null","16.677288135593574","960","448","","","","","","","",""
"409","arrowleft","psychophysics","241","269816","0.0-3.0-0.117","","key","arrowleft","16.68000000000029","960","448","118","5","1","24","15","25","35","false"
"null","null","psychophysics","242","270817","0.0-3.0-1.117","","key","null","16.684745762712257","960","448","","","","","","","",""
"831","arrowleft","psychophysics","243","271650","0.0-3.0-0.118","","key","arrowleft","16.684583333334256","960","448","119","5","-1","23","15","25","35","true"
"null","null","psychophysics","244","272654","0.0-3.0-1.118","","key","null","16.694000000000234","960","448","","","","","","","",""
"887","arrowleft","psychophysics","245","273545","0.0-3.0-0.119","","key","arrowleft","16.684615384616055","960","448","120","5","1","25","35","25","35","false"
"null","null","psychophysics","246","274549","0.0-3.0-1.119","","key","null","16.685084745762435","960","448","","","","","","","",""
"492","arrowleft","psychophysics","247","275042","0.0-3.0-0.120","","key","arrowleft","16.712413793102566","960","448","121","5","1","27","15","25","35","false"
"null","null","psychophysics","248","276047","0.0-3.0-1.120","","key","null","16.68406779661092","960","448","","","","","","","",""
"544","arrowleft","psychophysics","249","276592","0.0-3.0-0.121","","key","arrowleft","16.652500000000146","960","448","122","5","1","23","15","25","35","false"
"null","null","psychophysics","250","277593","0.0-3.0-1.121","","key","null","16.66813559322006","960","448","","","","","","","",""
"631","arrowleft","psychophysics","251","278226","0.0-3.0-0.122","","key","arrowleft","16.685405405405028","960","448","123","5","-1","30","35","25","35","true"
"null","null","psychophysics","252","279231","0.0-3.0-1.122","","key","null","16.684406779661096","960","448","","","","","","","",""
"592","arrowleft","psychophysics","253","279824","0.0-3.0-0.123","","key","arrowleft","16.672352941176058","960","448","124","5","-1","24","35","25","35","true"
"null","null","psychophysics","254","280824","0.0-3.0-1.123","","key","null","16.676949152542413","960","448","","","","","","","",""
"489","arrowleft","psychophysics","255","281314","0.0-3.0-0.124","","key","arrowleft","16.657241379310264","960","448","125","5","1","20","15","25","35","false"
"null","null","psychophysics","256","282320","0.0-3.0-1.124","","key","null","16.6854237288136","960","448","","","","","","","",""
"1195","arrowright","psychophysics","257","283520","0.0-3.0-0.125","","key","arrowright","16.67915492957789","960","448","126","5","1","30","35","25","35","true"
"null","null","psychophysics","258","284524","0.0-3.0-1.125","","key","null","16.67830508474509","960","448","","","","","","","",""
"818","arrowleft","psychophysics","259","285343","0.0-3.0-0.126","","key","arrowleft","16.685000000000098","960","448","127","5","-1","25","15","25","35","true"
"null","null","psychophysics","260","286344","0.0-3.0-1.126","","key","null","16.6813559322026","960","448","","","","","","","",""
"406","arrowright","psychophysics","261","286751","0.0-3.0-0.127","","key","arrowright","16.639166666665307","960","448","128","5","-1","30","35","25","35","false"
"null","null","psychophysics","262","287753","0.0-3.0-1.127","","key","null","16.702033898305796","960","448","","","","","","","",""
"637","arrowleft","psychophysics","263","288391","0.0-3.0-0.128","","key","arrowleft","16.693513513512823","960","448","129","5","1","20","35","25","35","false"
"null","null","psychophysics","264","289392","0.0-3.0-1.128","","key","null","16.697627118643634","960","448","","","","","","","",""
"769","arrowleft","psychophysics","265","290161","0.0-3.0-0.129","","key","arrowleft","16.666666666666668","960","448","130","5","-1","25","35","25","35","true"
"null","null","psychophysics","266","291162","0.0-3.0-1.129","","key","null","16.692881355932283","960","448","","","","","","","",""
"516","arrowleft","psychophysics","267","291679","0.0-3.0-0.130","","key","arrowleft","16.687999999998524","960","448","131","5","-1","27","35","25","35","true"
"null","null","psychophysics","268","292683","0.0-3.0-1.130","","key","null","16.679322033897595","960","448","","","","","","","",""
"1187","arrowright","psychophysics","269","293871","0.0-3.0-0.131","","key","arrowright","16.692857142857143","960","448","132","5","-1","23","15","25","35","false"
"null","null","psychophysics","270","294874","0.0-3.0-1.131","","key","null","16.698983050848287","960","448","","","","","","","",""
"952","arrowright","psychophysics","271","295833","0.0-3.0-0.132","","key","arrowright","16.694736842104856","960","448","133","5","-1","20","15","25","35","false"
"null","null","psychophysics","272","296837","0.0-3.0-1.132","","key","null","16.684406779661096","960","448","","","","","","","",""
"561","arrowleft","psychophysics","273","297399","0.0-3.0-0.133","","key","arrowleft","16.685454545454405","960","448","134","5","-1","30","35","25","35","true"
"null","null","psychophysics","274","298404","0.0-3.0-1.133","","key","null","16.680677966102248","960","448","","","","","","","",""
"690","arrowright","psychophysics","275","299094","0.0-3.0-0.134","","key","arrowright","16.665499999999884","960","448","135","5","1","27","35","25","35","true"
"null","null","psychophysics","276","300098","0.0-3.0-1.134","","key","null","16.70779661016965","960","448","","","","","","","",""
"501","arrowleft","psychophysics","277","300607","0.0-3.0-0.135","","key","arrowleft","16.682666666666044","960","448","136","5","1","26","15","25","35","false"
"null","null","psychophysics","278","301613","0.0-3.0-1.135","","key","null","16.685762711863774","960","448","","","","","","","",""
"739","arrowleft","psychophysics","279","302352","0.0-3.0-0.136","","key","arrowleft","16.661818181818077","960","448","137","5","-1","25","15","25","35","true"
"null","null","psychophysics","280","303355","0.0-3.0-1.136","","key","null","16.703389830508474","960","448","","","","","","","",""
"522","arrowright","psychophysics","281","303879","0.0-3.0-0.137","","key","arrowright","16.691333333333024","960","448","138","5","1","27","35","25","35","true"
"null","null","psychophysics","282","304882","0.0-3.0-1.137","","key","null","16.684745762711273","960","448","","","","","","","",""
"805","arrowleft","psychophysics","283","305688","0.0-3.0-0.138","","key","arrowleft","16.66499999999966","960","448","139","5","-1","25","35","25","35","true"
"null","null","psychophysics","284","306690","0.0-3.0-1.138","","key","null","16.68576271186476","960","448","","","","","","","",""
"363","arrowright","psychophysics","285","307055","0.0-3.0-0.139","","key","arrowright","16.688000000000464","960","448","140","6","-1","25","35","25","35","false"
"null","null","psychophysics","286","308060","0.0-3.0-1.139","","key","null","16.69533333333384","960","448","","","","","","","",""
"155055","arrowright","html-keyboard-response","287","463114","0.0-3.0-2.139-0.139","<div style=""color: white; text-align: center; vertical-align: top; display: inline-block; width: 800px; margin: auto""><p>You have completed 50% of the trials. You are on block 6 of 10. <br>Good job! Take a break if you need to.</p><p>Press any key to continue the experiment.</p></div>","","","","","","","","","","","","",""
"3348","arrowleft","psychophysics","288","467473","0.0-3.0-0.140","","key","arrowleft","16.722299999999812","960","448","141","6","-1","24","35","25","35","true"
"null","null","psychophysics","289","468484","0.0-3.0-1.140","","key","null","16.68500000000058","960","448","","","","","","","",""
"1069","arrowleft","psychophysics","290","469554","0.0-3.0-0.141","","key","arrowleft","16.68571428571447","960","448","142","6","1","24","35","25","35","false"
"null","null","psychophysics","291","470556","0.0-3.0-1.141","","key","null","16.692203389830944","960","448","","","","","","","",""
"1467","arrowleft","psychophysics","292","472024","0.0-3.0-0.142","","key","arrowleft","16.685287356321787","960","448","143","6","1","24","15","25","35","false"
"null","null","psychophysics","293","473026","0.0-3.0-1.142","","key","null","16.684406779661096","960","448","","","","","","","",""
"1831","arrowleft","psychophysics","294","474858","0.0-3.0-0.143","","key","arrowleft","16.685137614678833","960","448","144","6","-1","24","35","25","35","true"
"null","null","psychophysics","295","475864","0.0-3.0-1.143","","key","null","16.6854237288136","960","448","","","","","","","",""
"943","arrowright","psychophysics","296","476808","0.0-3.0-0.144","","key","arrowright","16.667500000000082","960","448","145","6","1","25","35","25","35","true"
"null","null","psychophysics","297","477818","0.0-3.0-1.144","","key","null","16.67999999999992","960","448","","","","","","","",""
"576","arrowright","psychophysics","298","478395","0.0-3.0-0.145","","key","arrowright","16.667058823529207","960","448","146","6","1","30","35","25","35","true"
"null","null","psychophysics","299","479400","0.0-3.0-1.145","","key","null","16.700338983050965","960","448","","","","","","","",""
"622","arrowright","psychophysics","300","480024","0.0-3.0-0.146","","key","arrowright","16.673333333333076","960","448","147","6","1","23","35","25","35","true"
"null","null","psychophysics","301","481027","0.0-3.0-1.146","","key","null","16.683728813559757","960","448","","","","","","","",""
"527","arrowleft","psychophysics","302","481560","0.0-3.0-0.147","","key","arrowleft","16.681935483871417","960","448","148","6","1","25","15","25","35","false"
"null","null","psychophysics","303","482565","0.0-3.0-1.147","","key","null","16.683666666666976","960","448","","","","","","","",""
"569","arrowright","psychophysics","304","483136","0.0-3.0-0.148","","key","arrowright","16.68606060606103","960","448","149","6","-1","24","35","25","35","false"
"null","null","psychophysics","305","484140","0.0-3.0-1.148","","key","null","16.700338983050965","960","448","","","","","","","",""
"629","arrowright","psychophysics","306","484770","0.0-3.0-0.149","","key","arrowright","16.715675675675172","960","448","150","6","1","26","35","25","35","true"
"null","null","psychophysics","307","485775","0.0-3.0-1.149","","key","null","16.70203389830481","960","448","","","","","","","",""
"656","arrowleft","psychophysics","308","486432","0.0-3.0-0.150","","key","arrowleft","16.685263157894184","960","448","151","6","-1","30","15","25","35","true"
"null","null","psychophysics","309","487434","0.0-3.0-1.150","","key","null","16.700677966101143","960","448","","","","","","","",""
"584","arrowright","psychophysics","310","488023","0.0-3.0-0.151","","key","arrowright","16.711428571429238","960","448","152","6","1","26","35","25","35","true"
"null","null","psychophysics","311","489032","0.0-3.0-1.151","","key","null","16.69830508474596","960","448","","","","","","","",""
"509","arrowleft","psychophysics","312","489543","0.0-3.0-0.152","","key","arrowleft","16.6893333333331","960","448","153","6","1","25","15","25","35","false"
"null","null","psychophysics","313","490545","0.0-3.0-1.152","","key","null","16.69932203389846","960","448","","","","","","","",""
"438","arrowright","psychophysics","314","490983","0.0-3.0-0.153","","key","arrowright","16.715199999997857","960","448","154","6","1","26","35","25","35","true"
"null","null","psychophysics","315","491987","0.0-3.0-1.153","","key","null","16.685084745763422","960","448","","","","","","","",""
"462","arrowright","psychophysics","316","492449","0.0-3.0-0.154","","key","arrowright","16.723703703702927","960","448","155","6","-1","24","15","25","35","false"
"null","null","psychophysics","317","493450","0.0-3.0-1.154","","key","null","16.68610169491494","960","448","","","","","","","",""
"542","arrowleft","psychophysics","318","493992","0.0-3.0-0.155","","key","arrowleft","16.672500000000582","960","448","156","6","1","30","35","25","35","false"
"null","null","psychophysics","319","494994","0.0-3.0-1.155","","key","null","16.70203389830481","960","448","","","","","","","",""
"709","arrowright","psychophysics","320","495704","0.0-3.0-0.156","","key","arrowright","16.690731707317244","960","448","157","6","1","25","35","25","35","true"
"null","null","psychophysics","321","496710","0.0-3.0-1.156","","key","null","16.67830508474608","960","448","","","","","","","",""
"644","arrowleft","psychophysics","322","497359","0.0-3.0-0.157","","key","arrowleft","16.70052631578935","960","448","158","6","-1","30","35","25","35","true"
"null","null","psychophysics","323","498363","0.0-3.0-1.157","","key","null","16.68576271186476","960","448","","","","","","","",""
"689","arrowleft","psychophysics","324","499056","0.0-3.0-0.158","","key","arrowleft","16.66146341463403","960","448","159","6","-1","30","35","25","35","true"
"null","null","psychophysics","325","500059","0.0-3.0-1.158","","key","null","16.694915254237287","960","448","","","","","","","",""
"604","arrowright","psychophysics","326","500664","0.0-3.0-0.159","","key","arrowright","16.678285714285447","960","448","160","6","-1","26","35","25","35","false"
"null","null","psychophysics","327","501668","0.0-3.0-1.159","","key","null","16.68666666666686","960","448","","","","","","","",""
"570","arrowleft","psychophysics","328","502239","0.0-3.0-0.160","","key","arrowleft","16.68606060606103","960","448","161","6","1","26","35","25","35","false"
"null","null","psychophysics","329","503246","0.0-3.0-1.160","","key","null","16.679322033898583","960","448","","","","","","","",""
"538","arrowleft","psychophysics","330","503785","0.0-3.0-0.161","","key","arrowleft","16.665806451613353","960","448","162","6","1","25","15","25","35","false"
"null","null","psychophysics","331","504790","0.0-3.0-1.161","","key","null","16.696999999999147","960","448","","","","","","","",""
"617","arrowleft","psychophysics","332","505407","0.0-3.0-0.162","","key","arrowleft","16.65611111111098","960","448","163","6","1","27","15","25","35","false"
"null","null","psychophysics","333","506409","0.0-3.0-1.162","","key","null","16.687118644066455","960","448","","","","","","","",""
"1021","arrowright","psychophysics","334","507432","0.0-3.0-0.163","","key","arrowright","16.685333333333254","960","448","164","6","-1","24","35","25","35","false"
"null","null","psychophysics","335","508435","0.0-3.0-1.163","","key","null","16.682033898304926","960","448","","","","","","","",""
"666","arrowleft","psychophysics","336","509103","0.0-3.0-0.164","","key","arrowleft","16.681538461540374","960","448","165","6","1","25","15","25","35","false"
"null","null","psychophysics","337","510104","0.0-3.0-1.164","","key","null","16.6864406779661","960","448","","","","","","","",""
"673","arrowleft","psychophysics","338","510777","0.0-3.0-0.165","","key","arrowleft","16.68199999999779","960","448","166","6","-1","30","15","25","35","true"
"null","null","psychophysics","339","511779","0.0-3.0-1.165","","key","null","16.685084745763422","960","448","","","","","","","",""
"498","arrowleft","psychophysics","340","512278","0.0-3.0-0.166","","key","arrowleft","16.671428571430233","960","448","167","6","-1","30","35","25","35","true"
"null","null","psychophysics","341","513281","0.0-3.0-1.166","","key","null","16.676333333334576","960","448","","","","","","","",""
"659","arrowright","psychophysics","342","513942","0.0-3.0-0.167","","key","arrowright","16.698421052632558","960","448","168","7","-1","20","15","25","35","false"
"null","null","psychophysics","343","514949","0.0-3.0-1.167","","key","null","16.69033333333403","960","448","","","","","","","",""
"1282","arrowright","html-keyboard-response","344","516232","0.0-3.0-2.167-0.167","<div style=""color: white; text-align: center; vertical-align: top; display: inline-block; width: 800px; margin: auto""><p>You have completed 60% of the trials. You are on block 7 of 10. <br>Good job! Take a break if you need to.</p><p>Press any key to continue the experiment.</p></div>","","","","","","","","","","","","",""
"669","arrowright","psychophysics","345","517912","0.0-3.0-0.168","","key","arrowright","16.597000000000115","960","448","169","7","1","27","15","25","35","true"
"null","null","psychophysics","346","518913","0.0-3.0-1.168","","key","null","16.674237288134094","960","448","","","","","","","",""
"540","arrowleft","psychophysics","347","519455","0.0-3.0-0.169","","key","arrowleft","16.660625000000437","960","448","170","7","1","24","35","25","35","false"
"null","null","psychophysics","348","520457","0.0-3.0-1.169","","key","null","16.687118644068427","960","448","","","","","","","",""
"620","arrowright","psychophysics","349","521078","0.0-3.0-0.170","","key","arrowright","16.68388888888876","960","448","171","7","-1","26","35","25","35","false"
"null","null","psychophysics","350","522081","0.0-3.0-1.170","","key","null","16.702372881356958","960","448","","","","","","","",""
"542","arrowleft","psychophysics","351","522624","0.0-3.0-0.171","","key","arrowleft","16.688124999996944","960","448","172","7","1","23","35","25","35","false"
"null","null","psychophysics","352","523629","0.0-3.0-1.171","","key","null","16.678305084744107","960","448","","","","","","","",""
"545","arrowright","psychophysics","353","524176","0.0-3.0-0.172","","key","arrowright","16.657500000001164","960","448","173","7","1","27","35","25","35","true"
"null","null","psychophysics","354","525178","0.0-3.0-1.172","","key","null","16.685762711863774","960","448","","","","","","","",""
"487","arrowleft","psychophysics","355","525670","0.0-3.0-0.173","","key","arrowleft","16.722142857141858","960","448","174","7","1","20","15","25","35","false"
"null","null","psychophysics","356","526674","0.0-3.0-1.173","","key","null","16.68847457627111","960","448","","","","","","","",""
"443","arrowright","psychophysics","357","527118","0.0-3.0-0.174","","key","arrowright","16.68538461538712","960","448","175","7","-1","25","35","25","35","false"
"null","null","psychophysics","358","528122","0.0-3.0-1.174","","key","null","16.70135593220347","960","448","","","","","","","",""
"501","arrowright","psychophysics","359","528624","0.0-3.0-0.175","","key","arrowright","16.71241379310056","960","448","176","7","-1","20","15","25","35","false"
"null","null","psychophysics","360","529628","0.0-3.0-1.175","","key","null","16.6864406779661","960","448","","","","","","","",""
"346","arrowright","psychophysics","361","529974","0.0-3.0-0.176","","key","arrowright","16.68399999999674","960","448","177","7","-1","27","15","25","35","false"
"null","null","psychophysics","362","530979","0.0-3.0-1.176","","key","null","16.668474576272214","960","448","","","","","","","",""
"322","arrowleft","psychophysics","363","531303","0.0-3.0-0.177","","key","arrowleft","16.73578947368323","960","448","178","7","1","27","15","25","35","false"
"null","null","psychophysics","364","532304","0.0-3.0-1.177","","key","null","16.67898305084643","960","448","","","","","","","",""
"383","arrowleft","psychophysics","365","532688","0.0-3.0-0.178","","key","arrowleft","16.704545454545453","960","448","179","7","1","27","15","25","35","false"
"null","null","psychophysics","366","533692","0.0-3.0-1.178","","key","null","16.68508474576145","960","448","","","","","","","",""
"536","arrowright","psychophysics","367","534229","0.0-3.0-0.179","","key","arrowright","16.68516129032228","960","448","180","7","-1","20","35","25","35","false"
"null","null","psychophysics","368","535233","0.0-3.0-1.179","","key","null","16.692542372881118","960","448","","","","","","","",""
"438","arrowleft","psychophysics","369","535671","0.0-3.0-0.180","","key","arrowleft","16.64538461538569","960","448","181","7","-1","26","35","25","35","true"
"null","null","psychophysics","370","536675","0.0-3.0-1.180","","key","null","16.68508474576145","960","448","","","","","","","",""
"547","arrowleft","psychophysics","371","537224","0.0-3.0-0.181","","key","arrowleft","16.678749999999127","960","448","182","7","1","25","15","25","35","false"
"null","null","psychophysics","372","538233","0.0-3.0-1.181","","key","null","16.700338983051953","960","448","","","","","","","",""
"282","arrowright","psychophysics","373","538517","0.0-3.0-0.182","","key","arrowright","16.6875","960","448","183","7","-1","30","15","25","35","false"
"null","null","psychophysics","374","539521","0.0-3.0-1.182","","key","null","16.684406779661096","960","448","","","","","","","",""
"775","arrowright","psychophysics","375","540296","0.0-3.0-0.183","","key","arrowright","16.668695652174115","960","448","184","7","1","27","35","25","35","true"
"null","null","psychophysics","376","541301","0.0-3.0-1.183","","key","null","16.683389830507608","960","448","","","","","","","",""
"478","arrowright","psychophysics","377","541781","0.0-3.0-0.184","","key","arrowright","16.68499999999767","960","448","185","7","1","25","35","25","35","true"
"null","null","psychophysics","378","542782","0.0-3.0-1.184","","key","null","16.68372881355877","960","448","","","","","","","",""
"518","arrowleft","psychophysics","379","543301","0.0-3.0-0.185","","key","arrowleft","16.683333333333334","960","448","186","7","1","20","35","25","35","false"
"null","null","psychophysics","380","544305","0.0-3.0-1.185","","key","null","16.684745762712257","960","448","","","","","","","",""
"413","arrowleft","psychophysics","381","544719","0.0-3.0-0.186","","key","arrowleft","16.728333333332557","960","448","187","7","1","23","15","25","35","false"
"null","null","psychophysics","382","545725","0.0-3.0-1.186","","key","null","16.67830508474608","960","448","","","","","","","",""
"280","arrowright","psychophysics","383","546006","0.0-3.0-0.187","","key","arrowright","16.671249999999418","960","448","188","7","-1","27","35","25","35","false"
"null","null","psychophysics","384","547011","0.0-3.0-1.187","","key","null","16.685423728812612","960","448","","","","","","","",""
"257","arrowleft","psychophysics","385","547269","0.0-3.0-0.188","","key","arrowleft","16.680000000004657","960","448","189","7","-1","24","35","25","35","true"
"null","null","psychophysics","386","548273","0.0-3.0-1.188","","key","null","16.685423728814584","960","448","","","","","","","",""
"483","arrowright","psychophysics","387","548757","0.0-3.0-0.189","","key","arrowright","16.68428571428688","960","448","190","7","1","26","35","25","35","true"
"null","null","psychophysics","388","549762","0.0-3.0-1.189","","key","null","16.702372881354986","960","448","","","","","","","",""
"644","arrowleft","psychophysics","389","550406","0.0-3.0-0.190","","key","arrowleft","16.699473684209423","960","448","191","7","-1","25","15","25","35","true"
"null","null","psychophysics","390","551411","0.0-3.0-1.190","","key","null","16.700000000000788","960","448","","","","","","","",""
"555","arrowleft","psychophysics","391","551967","0.0-3.0-0.191","","key","arrowleft","16.65124999999898","960","448","192","7","1","20","15","25","35","false"
"null","null","psychophysics","392","552972","0.0-3.0-1.191","","key","null","16.690508474576113","960","448","","","","","","","",""
"643","arrowleft","psychophysics","393","553621","0.0-3.0-0.192","","key","arrowleft","16.6894736842093","960","448","193","7","-1","30","15","25","35","true"
"null","null","psychophysics","394","554626","0.0-3.0-1.192","","key","null","16.69733333333279","960","448","","","","","","","",""
"2610","arrowright","psychophysics","395","557237","0.0-3.0-0.193","","key","arrowright","16.685290322580464","960","448","194","7","1","24","35","25","35","true"
"null","null","psychophysics","396","558243","0.0-3.0-1.193","","key","null","16.6864406779661","960","448","","","","","","","",""
"587","arrowright","psychophysics","397","558831","0.0-3.0-0.194","","key","arrowright","16.669714285716015","960","448","195","7","-1","20","35","25","35","false"
"null","null","psychophysics","398","559836","0.0-3.0-1.194","","key","null","16.68847457627111","960","448","","","","","","","",""
"511","arrowright","psychophysics","399","560349","0.0-3.0-0.195","","key","arrowright","16.661333333332248","960","448","196","8","-1","25","15","25","35","false"
"null","null","psychophysics","400","561354","0.0-3.0-1.195","","key","null","16.694237288136936","960","448","","","","","","","",""
"968","arrowright","html-keyboard-response","401","562327","0.0-3.0-2.195-0.195","<div style=""color: white; text-align: center; vertical-align: top; display: inline-block; width: 800px; margin: auto""><p>You have completed 70% of the trials. You are on block 8 of 10. <br>Good job! Take a break if you need to.</p><p>Press any key to continue the experiment.</p></div>","","","","","","","","","","","","",""
"660","arrowleft","psychophysics","402","563997","0.0-3.0-0.196","","key","arrowleft","16.733846153846034","960","448","197","8","-1","30","35","25","35","true"
"null","null","psychophysics","403","564999","0.0-3.0-1.196","","key","null","16.66949152542373","960","448","","","","","","","",""
"356","arrowright","psychophysics","404","565357","0.0-3.0-0.197","","key","arrowright","16.707619047618383","960","448","198","8","-1","30","35","25","35","false"
"null","null","psychophysics","405","566361","0.0-3.0-1.197","","key","null","16.697627118644622","960","448","","","","","","","",""
"565","arrowright","psychophysics","406","566926","0.0-3.0-0.198","","key","arrowright","16.68363636363806","960","448","199","8","-1","23","35","25","35","false"
"null","null","psychophysics","407","567927","0.0-3.0-1.198","","key","null","16.685762711863774","960","448","","","","","","","",""
"564","arrowleft","psychophysics","408","568493","0.0-3.0-0.199","","key","arrowleft","16.68060606060493","960","448","200","8","1","25","35","25","35","false"
"null","null","psychophysics","409","569498","0.0-3.0-1.199","","key","null","16.67898305084643","960","448","","","","","","","",""
"593","arrowright","psychophysics","410","570093","0.0-3.0-0.200","","key","arrowright","16.689714285714686","960","448","201","8","1","30","15","25","35","true"
"null","null","psychophysics","411","571094","0.0-3.0-1.200","","key","null","16.6813559322026","960","448","","","","","","","",""
"463","arrowleft","psychophysics","412","571564","0.0-3.0-0.201","","key","arrowleft","16.693333333332298","960","448","202","8","1","27","15","25","35","false"
"null","null","psychophysics","413","572566","0.0-3.0-1.201","","key","null","16.68508474576145","960","448","","","","","","","",""
"766","arrowleft","psychophysics","414","573334","0.0-3.0-0.202","","key","arrowleft","16.684888888887752","960","448","203","8","1","23","35","25","35","false"
"null","null","psychophysics","415","574337","0.0-3.0-1.202","","key","null","16.679322033899567","960","448","","","","","","","",""
"562","arrowleft","psychophysics","416","574900","0.0-3.0-0.203","","key","arrowleft","16.691515151517127","960","448","204","8","-1","26","15","25","35","true"
"null","null","psychophysics","417","575906","0.0-3.0-1.203","","key","null","16.684745762710286","960","448","","","","","","","",""
"809","arrowright","psychophysics","418","576716","0.0-3.0-0.204","","key","arrowright","16.6629166666656","960","448","205","8","1","23","15","25","35","true"
"null","null","psychophysics","419","577721","0.0-3.0-1.204","","key","null","16.679322033897595","960","448","","","","","","","",""
"739","arrowleft","psychophysics","420","578460","0.0-3.0-0.205","","key","arrowleft","16.686976744186914","960","448","206","8","1","25","35","25","35","false"
"null","null","psychophysics","421","579462","0.0-3.0-1.205","","key","null","16.685762711863774","960","448","","","","","","","",""
"885","arrowright","psychophysics","422","580348","0.0-3.0-0.206","","key","arrowright","16.684230769229963","960","448","207","8","1","30","15","25","35","true"
"null","null","psychophysics","423","581357","0.0-3.0-1.206","","key","null","16.68666666666589","960","448","","","","","","","",""
"624","arrowright","psychophysics","424","581983","0.0-3.0-0.207","","key","arrowright","16.6905555555584","960","448","208","8","-1","24","35","25","35","false"
"null","null","psychophysics","425","582986","0.0-3.0-1.207","","key","null","16.6769491525434","960","448","","","","","","","",""
"522","arrowleft","psychophysics","426","583508","0.0-3.0-0.208","","key","arrowleft","16.678709677420557","960","448","209","8","1","30","15","25","35","false"
"null","null","psychophysics","427","584509","0.0-3.0-1.208","","key","null","16.700677966103115","960","448","","","","","","","",""
"469","arrowright","psychophysics","428","584980","0.0-3.0-0.209","","key","arrowright","16.693333333332298","960","448","210","8","-1","23","35","25","35","false"
"null","null","psychophysics","429","585984","0.0-3.0-1.209","","key","null","16.67999999999992","960","448","","","","","","","",""
"618","arrowleft","psychophysics","430","586604","0.0-3.0-0.210","","key","arrowleft","16.68611111111305","960","448","211","8","-1","26","15","25","35","true"
"null","null","psychophysics","431","587606","0.0-3.0-1.210","","key","null","16.702711864406147","960","448","","","","","","","",""
"476","arrowright","psychophysics","432","588084","0.0-3.0-0.211","","key","arrowright","16.664999999999832","960","448","212","8","1","27","35","25","35","true"
"null","null","psychophysics","433","589090","0.0-3.0-1.211","","key","null","16.684745762712257","960","448","","","","","","","",""
"867","arrowright","psychophysics","434","589958","0.0-3.0-0.212","","key","arrowright","16.684313725490654","960","448","213","8","1","26","15","25","35","true"
"null","null","psychophysics","435","590967","0.0-3.0-1.212","","key","null","16.686999999999536","960","448","","","","","","","",""
"517","arrowleft","psychophysics","436","591486","0.0-3.0-0.213","","key","arrowleft","16.675333333333644","960","448","214","8","1","26","15","25","35","false"
"null","null","psychophysics","437","592490","0.0-3.0-1.213","","key","null","16.693220338983444","960","448","","","","","","","",""
"418","arrowright","psychophysics","438","592909","0.0-3.0-0.214","","key","arrowright","16.68500000000252","960","448","215","8","1","30","15","25","35","true"
"null","null","psychophysics","439","593910","0.0-3.0-1.214","","key","null","16.70169491525463","960","448","","","","","","","",""
"590","arrowright","psychophysics","440","594501","0.0-3.0-0.215","","key","arrowright","16.67371428571309","960","448","216","8","-1","23","35","25","35","false"
"null","null","psychophysics","441","595506","0.0-3.0-1.215","","key","null","16.69627118644194","960","448","","","","","","","",""
"600","arrowright","psychophysics","442","596108","0.0-3.0-0.216","","key","arrowright","16.663999999999735","960","448","217","8","1","25","15","25","35","true"
"null","null","psychophysics","443","597111","0.0-3.0-1.216","","key","null","16.69118644067844","960","448","","","","","","","",""
"580","arrowleft","psychophysics","444","597691","0.0-3.0-0.217","","key","arrowleft","16.709411764705745","960","448","218","8","1","25","35","25","35","false"
"null","null","psychophysics","445","598696","0.0-3.0-1.217","","key","null","16.6769491525434","960","448","","","","","","","",""
"397","arrowright","psychophysics","446","599100","0.0-3.0-0.218","","key","arrowright","16.657391304347623","960","448","219","8","1","30","15","25","35","true"
"null","null","psychophysics","447","600104","0.0-3.0-1.218","","key","null","16.688135593219943","960","448","","","","","","","",""
"586","arrowleft","psychophysics","448","600692","0.0-3.0-0.219","","key","arrowleft","16.661714285715217","960","448","220","8","-1","24","15","25","35","true"
"null","null","psychophysics","449","601697","0.0-3.0-1.219","","key","null","16.684745762712257","960","448","","","","","","","",""
"565","arrowleft","psychophysics","450","602262","0.0-3.0-0.220","","key","arrowleft","16.655151515151374","960","448","221","8","1","20","35","25","35","false"
"null","null","psychophysics","451","603267","0.0-3.0-1.220","","key","null","16.69864406779614","960","448","","","","","","","",""
"663","arrowleft","psychophysics","452","603930","0.0-3.0-0.221","","key","arrowleft","16.666153846153367","960","448","222","8","-1","23","15","25","35","true"
"null","null","psychophysics","453","604936","0.0-3.0-1.221","","key","null","16.67898305084643","960","448","","","","","","","",""
"828","arrowleft","psychophysics","454","605765","0.0-3.0-0.222","","key","arrowleft","16.664897959182817","960","448","223","8","-1","23","15","25","35","true"
"null","null","psychophysics","455","606770","0.0-3.0-1.222","","key","null","16.685762711863774","960","448","","","","","","","",""
"737","arrowright","psychophysics","456","607508","0.0-3.0-0.223","","key","arrowright","16.710697674419905","960","448","224","9","1","26","15","25","35","true"
"null","null","psychophysics","457","608517","0.0-3.0-1.223","","key","null","16.7","960","448","","","","","","","",""
"1807","arrowright","html-keyboard-response","458","610324","0.0-3.0-2.223-0.223","<div style=""color: white; text-align: center; vertical-align: top; display: inline-block; width: 800px; margin: auto""><p>You have completed 80% of the trials. You are on block 9 of 10. <br>Good job! Take a break if you need to.</p><p>Press any key to continue the experiment.</p></div>","","","","","","","","","","","","",""
"1069","arrowright","psychophysics","459","612404","0.0-3.0-0.224","","key","arrowright","16.748125000000073","960","448","225","9","1","23","15","25","35","true"
"null","null","psychophysics","460","613408","0.0-3.0-1.224","","key","null","16.68508474576145","960","448","","","","","","","",""
"451","arrowright","psychophysics","461","613861","0.0-3.0-0.225","","key","arrowright","16.719999999998926","960","448","226","9","-1","20","15","25","35","false"
"null","null","psychophysics","462","614863","0.0-3.0-1.225","","key","null","16.684745762712257","960","448","","","","","","","",""
"588","arrowleft","psychophysics","463","615451","0.0-3.0-0.226","","key","arrowleft","16.706470588232417","960","448","227","9","-1","27","35","25","35","true"
"null","null","psychophysics","464","616456","0.0-3.0-1.226","","key","null","16.685423728814584","960","448","","","","","","","",""
"585","arrowright","psychophysics","465","617052","0.0-3.0-0.227","","key","arrowright","16.68685714285821","960","448","228","9","1","30","35","25","35","true"
"null","null","psychophysics","466","618055","0.0-3.0-1.227","","key","null","16.68237288135609","960","448","","","","","","","",""
"503","arrowleft","psychophysics","467","618559","0.0-3.0-0.228","","key","arrowleft","16.6655172413769","960","448","229","9","1","27","15","25","35","false"
"null","null","psychophysics","468","619564","0.0-3.0-1.228","","key","null","16.688000000000464","960","448","","","","","","","",""
"365","arrowright","psychophysics","469","619931","0.0-3.0-0.229","","key","arrowright","16.64476190476368","960","448","230","9","1","20","15","25","35","true"
"null","null","psychophysics","470","620934","0.0-3.0-1.229","","key","null","16.673898305084904","960","448","","","","","","","",""
"389","arrowright","psychophysics","471","621324","0.0-3.0-0.230","","key","arrowright","16.68545454545264","960","448","231","9","1","27","15","25","35","true"
"null","null","psychophysics","472","622328","0.0-3.0-1.230","","key","null","16.679661016948756","960","448","","","","","","","",""
"465","arrowright","psychophysics","473","622794","0.0-3.0-0.231","","key","arrowright","16.658518518519553","960","448","232","9","1","23","35","25","35","true"
"null","null","psychophysics","474","623799","0.0-3.0-1.231","","key","null","16.692881355932283","960","448","","","","","","","",""
"565","arrowleft","psychophysics","475","624370","0.0-3.0-0.232","","key","arrowleft","16.687058823529","960","448","233","9","-1","25","35","25","35","true"
"null","null","psychophysics","476","625372","0.0-3.0-1.232","","key","null","16.689830508473786","960","448","","","","","","","",""
"554","arrowleft","psychophysics","477","625932","0.0-3.0-0.233","","key","arrowleft","16.703750000000582","960","448","234","9","1","20","35","25","35","false"
"null","null","psychophysics","478","626934","0.0-3.0-1.233","","key","null","16.684406779661096","960","448","","","","","","","",""
"798","arrowleft","psychophysics","479","627731","0.0-3.0-0.234","","key","arrowleft","16.70425531914844","960","448","235","9","1","26","35","25","35","false"
"null","null","psychophysics","480","628735","0.0-3.0-1.234","","key","null","16.685423728812612","960","448","","","","","","","",""
"507","arrowleft","psychophysics","481","629244","0.0-3.0-0.235","","key","arrowleft","16.68466666666791","960","448","236","9","1","23","15","25","35","false"
"null","null","psychophysics","482","630248","0.0-3.0-1.235","","key","null","16.685762711863774","960","448","","","","","","","",""
"451","arrowright","psychophysics","483","630699","0.0-3.0-0.236","","key","arrowright","16.651538461540788","960","448","237","9","-1","23","35","25","35","false"
"null","null","psychophysics","484","631705","0.0-3.0-1.236","","key","null","16.6864406779661","960","448","","","","","","","",""
"625","arrowleft","psychophysics","485","632330","0.0-3.0-0.237","","key","arrowleft","16.682702702702954","960","448","238","9","-1","24","15","25","35","true"
"null","null","psychophysics","486","633334","0.0-3.0-1.237","","key","null","16.70135593220347","960","448","","","","","","","",""
"549","arrowleft","psychophysics","487","633884","0.0-3.0-0.238","","key","arrowleft","16.69000000000233","960","448","239","9","-1","24","35","25","35","true"
"null","null","psychophysics","488","634895","0.0-3.0-1.238","","key","null","16.668813559323375","960","448","","","","","","","",""
"526","arrowleft","psychophysics","489","635426","0.0-3.0-0.239","","key","arrowleft","16.67999999999865","960","448","240","9","-1","26","15","25","35","true"
"null","null","psychophysics","490","636430","0.0-3.0-1.239","","key","null","16.70135593220347","960","448","","","","","","","",""
"375","arrowleft","psychophysics","491","636811","0.0-3.0-0.240","","key","arrowleft","16.657272727271035","960","448","241","9","-1","23","15","25","35","true"
"null","null","psychophysics","492","637816","0.0-3.0-1.240","","key","null","16.685333333333254","960","448","","","","","","","",""
"393","arrowleft","psychophysics","493","638209","0.0-3.0-0.241","","key","arrowleft","16.68545454545264","960","448","242","9","-1","24","15","25","35","true"
"null","null","psychophysics","494","639213","0.0-3.0-1.241","","key","null","16.68508474576145","960","448","","","","","","","",""
"484","arrowleft","psychophysics","495","639700","0.0-3.0-0.242","","key","arrowleft","16.68428571428688","960","448","243","9","-1","26","15","25","35","true"
"null","null","psychophysics","496","640703","0.0-3.0-1.242","","key","null","16.69000000000039","960","448","","","","","","","",""
"426","arrowleft","psychophysics","497","641129","0.0-3.0-0.243","","key","arrowleft","16.684166666668414","960","448","244","9","-1","23","15","25","35","true"
"null","null","psychophysics","498","642131","0.0-3.0-1.243","","key","null","16.68237288135609","960","448","","","","","","","",""
"527","arrowleft","psychophysics","499","642659","0.0-3.0-0.244","","key","arrowleft","16.650967741937137","960","448","245","9","-1","26","15","25","35","true"
"null","null","psychophysics","500","643671","0.0-3.0-1.244","","key","null","16.67491525423642","960","448","","","","","","","",""
"445","arrowleft","psychophysics","501","644122","0.0-3.0-0.245","","key","arrowleft","16.645185185186737","960","448","246","9","1","23","15","25","35","false"
"null","null","psychophysics","502","645126","0.0-3.0-1.245","","key","null","16.68610169491494","960","448","","","","","","","",""
"565","arrowleft","psychophysics","503","645691","0.0-3.0-0.246","","key","arrowleft","16.679393939395208","960","448","247","9","-1","30","15","25","35","true"
"null","null","psychophysics","504","646695","0.0-3.0-1.246","","key","null","16.687457627117617","960","448","","","","","","","",""
"601","arrowleft","psychophysics","505","647297","0.0-3.0-0.247","","key","arrowleft","16.686285714286246","960","448","248","9","-1","20","15","25","35","true"
"null","null","psychophysics","506","648299","0.0-3.0-1.247","","key","null","16.684067796609934","960","448","","","","","","","",""
"487","arrowleft","psychophysics","507","648788","0.0-3.0-0.248","","key","arrowleft","16.685714285712624","960","448","249","9","-1","27","35","25","35","true"
"null","null","psychophysics","508","649794","0.0-3.0-1.248","","key","null","16.685423728812612","960","448","","","","","","","",""
"433","arrowleft","psychophysics","509","650233","0.0-3.0-0.249","","key","arrowleft","16.687692307692487","960","448","250","9","1","23","35","25","35","false"
"null","null","psychophysics","510","651238","0.0-3.0-1.249","","key","null","16.685084745763422","960","448","","","","","","","",""
"438","arrowleft","psychophysics","511","651684","0.0-3.0-0.250","","key","arrowleft","16.690769230772275","960","448","251","9","1","20","15","25","35","false"
"null","null","psychophysics","512","652688","0.0-3.0-1.250","","key","null","16.684745762712257","960","448","","","","","","","",""
"568","arrowleft","psychophysics","513","653258","0.0-3.0-0.251","","key","arrowleft","16.68484848484778","960","448","252","10","-1","27","15","25","35","true"
"null","null","psychophysics","514","654263","0.0-3.0-1.251","","key","null","16.69118644067844","960","448","","","","","","","",""
"1627","arrowright","html-keyboard-response","515","655889","0.0-3.0-2.251-0.251","<div style=""color: white; text-align: center; vertical-align: top; display: inline-block; width: 800px; margin: auto""><p>You have completed 90% of the trials. You are on block 10 of 10. <br>Good job! Take a break if you need to.</p><p>Press any key to continue the experiment.</p></div>","","","","","","","","","","","","",""
"2551","arrowleft","psychophysics","516","659448","0.0-3.0-0.252","","key","arrowleft","16.747368421052478","960","448","253","10","1","23","15","25","35","false"
"null","null","psychophysics","517","660455","0.0-3.0-1.252","","key","null","16.684067796609934","960","448","","","","","","","",""
"844","arrowright","psychophysics","518","661304","0.0-3.0-0.253","","key","arrowright","16.66679999999935","960","448","254","10","1","25","35","25","35","true"
"null","null","psychophysics","519","662307","0.0-3.0-1.253","","key","null","16.69118644067844","960","448","","","","","","","",""
"857","arrowright","psychophysics","520","663170","0.0-3.0-0.254","","key","arrowright","16.686274509803923","960","448","255","10","1","27","35","25","35","true"
"null","null","psychophysics","521","664176","0.0-3.0-1.254","","key","null","16.69152542372763","960","448","","","","","","","",""
"498","arrowleft","psychophysics","522","664680","0.0-3.0-0.255","","key","arrowleft","16.659333333334263","960","448","256","10","1","24","15","25","35","false"
"null","null","psychophysics","523","665685","0.0-3.0-1.255","","key","null","16.67999999999992","960","448","","","","","","","",""
"754","arrowright","psychophysics","524","666439","0.0-3.0-0.256","","key","arrowright","16.69727272727389","960","448","257","10","1","24","35","25","35","true"
"null","null","psychophysics","525","667441","0.0-3.0-1.256","","key","null","16.685423728814584","960","448","","","","","","","",""
"653","arrowright","psychophysics","526","668105","0.0-3.0-0.257","","key","arrowright","16.68666666666738","960","448","258","10","-1","20","15","25","35","false"
"null","null","psychophysics","527","669111","0.0-3.0-1.257","","key","null","16.68610169491691","960","448","","","","","","","",""
"831","arrowright","psychophysics","528","669942","0.0-3.0-0.258","","key","arrowright","16.69346938775472","960","448","259","10","1","24","35","25","35","true"
"null","null","psychophysics","529","670946","0.0-3.0-1.258","","key","null","16.697288135593457","960","448","","","","","","","",""
"669","arrowright","psychophysics","530","671618","0.0-3.0-0.259","","key","arrowright","16.69199999999837","960","448","260","10","-1","20","35","25","35","false"
"null","null","psychophysics","531","672622","0.0-3.0-1.259","","key","null","16.699661016949626","960","448","","","","","","","",""
"839","arrowleft","psychophysics","532","673462","0.0-3.0-0.260","","key","arrowleft","16.702040816327006","960","448","261","10","1","26","15","25","35","false"
"null","null","psychophysics","533","674465","0.0-3.0-1.260","","key","null","16.685762711863774","960","448","","","","","","","",""
"1291","arrowright","psychophysics","534","675758","0.0-3.0-0.261","","key","arrowright","16.67428571428626","960","448","262","10","-1","25","15","25","35","false"
"null","null","psychophysics","535","676765","0.0-3.0-1.261","","key","null","16.67559322034072","960","448","","","","","","","",""
"1984","arrowleft","psychophysics","536","678751","0.0-3.0-0.262","","key","arrowleft","16.67949152542416","960","448","263","10","1","23","35","25","35","false"
"null","null","psychophysics","537","679754","0.0-3.0-1.262","","key","null","16.67355932203374","960","448","","","","","","","",""
"1138","arrowright","psychophysics","538","680894","0.0-3.0-0.263","","key","arrowright","16.671176470588442","960","448","264","10","1","27","35","25","35","true"
"null","null","psychophysics","539","681899","0.0-3.0-1.263","","key","null","16.68576271186575","960","448","","","","","","","",""
"1444","arrowright","psychophysics","540","683343","0.0-3.0-0.264","","key","arrowright","16.677647058823254","960","448","265","10","-1","24","15","25","35","false"
"null","null","psychophysics","541","684347","0.0-3.0-1.264","","key","null","16.701666666666277","960","448","","","","","","","",""
"891","arrowleft","psychophysics","542","685246","0.0-3.0-0.265","","key","arrowleft","16.689230769230143","960","448","266","10","-1","23","35","25","35","true"
"null","null","psychophysics","543","686249","0.0-3.0-1.265","","key","null","16.70266666666721","960","448","","","","","","","",""
"782","arrowleft","psychophysics","544","687033","0.0-3.0-0.266","","key","arrowleft","16.665652173912942","960","448","267","10","-1","23","35","25","35","true"
"null","null","psychophysics","545","688034","0.0-3.0-1.266","","key","null","16.67728813559259","960","448","","","","","","","",""
"843","arrowleft","psychophysics","546","688878","0.0-3.0-0.267","","key","arrowleft","16.691428571428666","960","448","268","10","1","23","35","25","35","false"
"null","null","psychophysics","547","689879","0.0-3.0-1.267","","key","null","16.703050847457312","960","448","","","","","","","",""
"591","arrowleft","psychophysics","548","690471","0.0-3.0-0.268","","key","arrowleft","16.656571428570896","960","448","269","10","1","20","15","25","35","false"
"null","null","psychophysics","549","691477","0.0-3.0-1.268","","key","null","16.674237288136066","960","448","","","","","","","",""
"1175","arrowleft","psychophysics","550","692653","0.0-3.0-0.269","","key","arrowleft","16.68347826087004","960","448","270","10","-1","26","35","25","35","true"
"null","null","psychophysics","551","693664","0.0-3.0-1.269","","key","null","16.699333333334653","960","448","","","","","","","",""
"669","arrowright","psychophysics","552","694334","0.0-3.0-0.270","","key","arrowright","16.666153846153367","960","448","271","10","-1","20","35","25","35","false"
"null","null","psychophysics","553","695337","0.0-3.0-1.270","","key","null","16.703050847457312","960","448","","","","","","","",""
"581","arrowright","psychophysics","554","695919","0.0-3.0-0.271","","key","arrowright","16.684705882353764","960","448","272","10","-1","26","35","25","35","false"
"null","null","psychophysics","555","696922","0.0-3.0-1.271","","key","null","16.70203389830382","960","448","","","","","","","",""
"602","arrowright","psychophysics","556","697525","0.0-3.0-0.272","","key","arrowright","16.71314285714512","960","448","273","10","-1","23","15","25","35","false"
"null","null","psychophysics","557","698528","0.0-3.0-1.272","","key","null","16.692333333332012","960","448","","","","","","","",""
"598","arrowright","psychophysics","558","699126","0.0-3.0-0.273","","key","arrowright","16.684705882353764","960","448","274","10","-1","20","35","25","35","false"
"null","null","psychophysics","559","700129","0.0-3.0-1.273","","key","null","16.703389830508474","960","448","","","","","","","",""
"1150","arrowright","psychophysics","560","701284","0.0-3.0-0.274","","key","arrowright","16.688695652172495","960","448","275","10","-1","20","35","25","35","false"
"null","null","psychophysics","561","702294","0.0-3.0-1.274","","key","null","16.70169491525463","960","448","","","","","","","",""
"535","arrowleft","psychophysics","562","702828","0.0-3.0-0.275","","key","arrowleft","16.685806451613203","960","448","276","10","1","24","15","25","35","false"
"null","null","psychophysics","563","703832","0.0-3.0-1.275","","key","null","16.685423728812612","960","448","","","","","","","",""
"439","arrowleft","psychophysics","564","704278","0.0-3.0-0.276","","key","arrowleft","16.676923076922183","960","448","277","10","1","24","15","25","35","false"
"null","null","psychophysics","565","705284","0.0-3.0-1.276","","key","null","16.6864406779661","960","448","","","","","","","",""
"491","arrowright","psychophysics","566","705780","0.0-3.0-0.277","","key","arrowright","16.721379310346272","960","448","278","10","-1","24","15","25","35","false"
"null","null","psychophysics","567","706784","0.0-3.0-1.277","","key","null","16.684067796609934","960","448","","","","","","","",""
"427","arrowleft","psychophysics","568","707213","0.0-3.0-0.278","","key","arrowleft","16.684799999999814","960","448","279","10","1","20","35","25","35","false"
"null","null","psychophysics","569","708217","0.0-3.0-1.278","","key","null","16.6989830508473","960","448","","","","","","","",""
"405","arrowleft","psychophysics","570","708622","0.0-3.0-0.279","","key","arrowleft","16.665833333332557","960","448","280","11","1","20","35","25","35","false"
"null","null","psychophysics","571","709628","0.0-3.0-1.279","","key","null","16.684406779661096","960","448","","","","","","","",""
