"rt","response","trial_type","trial_index","time_elapsed","internal_node_id","stimulus","response_type","key_press","avg_frame_time","center_x","center_y","trial","block","test_pos","test_inner_radius","test_outer_radius","ref_inner_radius","ref_outer_radius","test_bigger"
"31262.899999976158","{""p_id"":""6472"",""age"":""19"",""handedness"":""right"",""sex"":""female"",""other_sex"":""""}","survey-html-form","0","31267","0.0-0.0","","","","","","","","","","","","","",""
"16954.300000071526"," ","html-keyboard-response","1","48228","0.0-1.0","<p style=""color: white"">Welcome to the Size Judgment Experiment. <br>There will be 10 blocks in this experiment. <br>There will be 28 trials in each block. <br>You will be given a chance to take a break between blocks. <br>Press any key to start the experiment.</p>","","","","","","","","","","","","",""
"8896.600000023842","arrowleft","psychophysics","2","57149","0.0-2.0","","key","arrowleft","16.660442990654204","720","382","","","","","","","",""
"6593.100000023842","arrowright","psychophysics","3","63754","0.0-3.0-0.0","","key","arrowright","16.65481060606059","720","382","1","1","1","24","15","25","35","true"
"null","null","psychophysics","4","64757","0.0-3.0-1.0","","key","null","16.665999999999904","720","382","","","","","","","",""
"2117.9000000953674","arrowleft","psychophysics","5","66890","0.0-3.0-0.1","","key","arrowleft","16.666000000000075","720","382","2","1","-1","24","15","25","35","true"
"null","null","psychophysics","6","67894","0.0-3.0-1.1","","key","null","16.665999999999904","720","382","","","","","","","",""
"752.8000000715256","arrowleft","psychophysics","7","68655","0.0-3.0-0.2","","key","arrowleft","16.493282608695786","720","382","3","1","-1","26","15","25","35","true"
"null","null","psychophysics","8","69657","0.0-3.0-1.2","","key","null","16.665999999999904","720","382","","","","","","","",""
"964.2999999523163","arrowleft","psychophysics","9","70625","0.0-3.0-0.3","","key","arrowleft","16.665999999999993","720","382","4","1","-1","26","15","25","35","true"
"null","null","psychophysics","10","71630","0.0-3.0-1.3","","key","null","16.665999999999904","720","382","","","","","","","",""
"731.8000000715256","arrowleft","psychophysics","11","72366","0.0-3.0-0.4","","key","arrowleft","16.666000000000146","720","382","5","1","-1","23","35","25","35","true"
"null","null","psychophysics","12","73368","0.0-3.0-1.4","","key","null","16.665999999999904","720","382","","","","","","","",""
"3965.6999999284744","arrowleft","psychophysics","13","77340","0.0-3.0-0.5","","key","arrowleft","16.666000000000007","720","382","6","1","-1","27","15","25","35","true"
"null","null","psychophysics","14","78345","0.0-3.0-1.5","","key","null","16.665999999999904","720","382","","","","","","","",""
"776.1000000238419","arrowright","psychophysics","15","79124","0.0-3.0-0.6","","key","arrowright","16.670130434782628","720","382","7","1","-1","23","35","25","35","false"
"null","null","psychophysics","16","80126","0.0-3.0-1.6","","key","null","16.666000000000153","720","382","","","","","","","",""
"597.4000000953674","arrowleft","psychophysics","17","80728","0.0-3.0-0.7","","key","arrowleft","16.665999999999933","720","382","8","1","-1","30","15","25","35","true"
"null","null","psychophysics","18","81732","0.0-3.0-1.7","","key","null","16.666000000000153","720","382","","","","","","","",""
"736.5","arrowright","psychophysics","19","82476","0.0-3.0-0.8","","key","arrowright","16.666000000000086","720","382","9","1","1","23","15","25","35","true"
"null","null","psychophysics","20","83479","0.0-3.0-1.8","","key","null","16.665999999999904","720","382","","","","","","","",""
"716.3000000715256","arrowleft","psychophysics","21","84202","0.0-3.0-0.9","","key","arrowleft","16.66600000000021","720","382","10","1","1","24","35","25","35","false"
"null","null","psychophysics","22","85204","0.0-3.0-1.9","","key","null","16.665999999999865","720","382","","","","","","","",""
"618.3999999761581","arrowright","psychophysics","23","85826","0.0-3.0-0.10","","key","arrowright","16.665999999999865","720","382","11","1","-1","25","35","25","35","false"
"null","null","psychophysics","24","86830","0.0-3.0-1.10","","key","null","16.666000000000153","720","382","","","","","","","",""
"459.7000000476837","arrowleft","psychophysics","25","87295","0.0-3.0-0.11","","key","arrowleft","16.665999999999595","720","382","12","1","1","20","15","25","35","false"
"null","null","psychophysics","26","88299","0.0-3.0-1.11","","key","null","16.665999999999904","720","382","","","","","","","",""
"1119.3999999761581","arrowright","psychophysics","27","89426","0.0-3.0-0.12","","key","arrowright","16.674522388059692","720","382","13","1","1","27","35","25","35","true"
"null","null","psychophysics","28","90431","0.0-3.0-1.12","","key","null","16.666000000000153","720","382","","","","","","","",""
"704.8000000715256","arrowleft","psychophysics","29","91140","0.0-3.0-0.13","","key","arrowleft","16.665999999999865","720","382","14","1","-1","23","15","25","35","true"
"null","null","psychophysics","30","92142","0.0-3.0-1.13","","key","null","16.665999999999904","720","382","","","","","","","",""
"1085","arrowleft","psychophysics","31","93231","0.0-3.0-0.14","","key","arrowleft","16.66599999999994","720","382","15","1","-1","24","35","25","35","true"
"null","null","psychophysics","32","94235","0.0-3.0-1.14","","key","null","16.665999999999904","720","382","","","","","","","",""
"729.7000000476837","arrowleft","psychophysics","33","94971","0.0-3.0-0.15","","key","arrowleft","16.666000000000086","720","382","16","1","-1","25","15","25","35","true"
"null","null","psychophysics","34","95973","0.0-3.0-1.15","","key","null","16.665999999999904","720","382","","","","","","","",""
"711.9000000953674","arrowright","psychophysics","35","96691","0.0-3.0-0.16","","key","arrowright","16.665999999999865","720","382","17","1","1","27","15","25","35","true"
"null","null","psychophysics","36","97694","0.0-3.0-1.16","","key","null","16.666000000000153","720","382","","","","","","","",""
"632.7000000476837","arrowright","psychophysics","37","98331","0.0-3.0-0.17","","key","arrowright","16.665999999999798","720","382","18","1","1","30","15","25","35","true"
"null","null","psychophysics","38","99334","0.0-3.0-1.17","","key","null","16.67259322033906","720","382","","","","","","","",""
"717.1999999284744","arrowright","psychophysics","39","100059","0.0-3.0-0.18","","key","arrowright","16.666000000000146","720","382","19","1","1","26","15","25","35","true"
"null","null","psychophysics","40","101062","0.0-3.0-1.18","","key","null","16.665999999999904","720","382","","","","","","","",""
"4358.200000047684","arrowleft","psychophysics","41","105424","0.0-3.0-0.19","","key","arrowleft","16.666000000000004","720","382","20","1","-1","24","35","25","35","true"
"null","null","psychophysics","42","106430","0.0-3.0-1.19","","key","null","16.665999999999904","720","382","","","","","","","",""
"1841.3999999761581","arrowleft","psychophysics","43","108280","0.0-3.0-0.20","","key","arrowleft","16.666000000000086","720","382","21","1","1","23","35","25","35","false"
"null","null","psychophysics","44","109283","0.0-3.0-1.20","","key","null","16.664610169491517","720","382","","","","","","","",""
"680.3000000715256","arrowleft","psychophysics","45","109970","0.0-3.0-0.21","","key","arrowleft","16.665999999999922","720","382","22","1","-1","30","35","25","35","true"
"null","null","psychophysics","46","110972","0.0-3.0-1.21","","key","null","16.666000000000153","720","382","","","","","","","",""
"632.6000000238419","arrowright","psychophysics","47","111608","0.0-3.0-0.22","","key","arrowright","16.665999999999798","720","382","23","1","1","24","15","25","35","true"
"null","null","psychophysics","48","112613","0.0-3.0-1.22","","key","null","16.665999999999904","720","382","","","","","","","",""
"653.5999999046326","arrowright","psychophysics","49","113270","0.0-3.0-0.23","","key","arrowright","16.66600000000005","720","382","24","1","1","30","35","25","35","true"
"null","null","psychophysics","50","114271","0.0-3.0-1.23","","key","null","16.666000000000153","720","382","","","","","","","",""
"668","arrowright","psychophysics","51","114943","0.0-3.0-0.24","","key","arrowright","16.66600000000005","720","382","25","1","1","30","15","25","35","true"
"null","null","psychophysics","52","115946","0.0-3.0-1.24","","key","null","16.665999999999904","720","382","","","","","","","",""
"820.6000000238419","arrowleft","psychophysics","53","116772","0.0-3.0-0.25","","key","arrowleft","16.66600000000011","720","382","26","1","-1","20","35","25","35","true"
"null","null","psychophysics","54","117775","0.0-3.0-1.25","","key","null","16.666000000000153","720","382","","","","","","","",""
"626","arrowleft","psychophysics","55","118408","0.0-3.0-0.26","","key","arrowleft","16.665999999999798","720","382","27","1","-1","23","15","25","35","true"
"null","null","psychophysics","56","119410","0.0-3.0-1.26","","key","null","16.67445762711873","720","382","","","","","","","",""
"571.5","arrowleft","psychophysics","57","119985","0.0-3.0-0.27","","key","arrowleft","16.666000000000086","720","382","28","2","-1","30","15","25","35","true"
"null","null","psychophysics","58","120987","0.0-3.0-1.27","","key","null","16.666000000000107","720","382","","","","","","","",""
"4601.800000071526","arrowleft","html-keyboard-response","59","125591","0.0-3.0-2.27-0.27","<div style=""color: white; text-align: center; vertical-align: top; display: inline-block; width: 800px; margin: auto""><p>You have completed 10% of the trials. You are on block 2 of 10. <br>Good job! Take a break if you need to.</p><p>Press any key to continue the experiment.</p></div>","","","","","","","","","","","","",""
"2887.5999999046326","arrowright","psychophysics","60","129488","0.0-3.0-0.28","","key","arrowright","16.66814367816099","720","382","29","2","1","26","35","25","35","true"
"null","null","psychophysics","61","130490","0.0-3.0-1.28","","key","null","16.665999999999904","720","382","","","","","","","",""
"745.8999999761581","arrowleft","psychophysics","62","131240","0.0-3.0-0.29","","key","arrowleft","16.666000000000086","720","382","30","2","-1","24","15","25","35","true"
"null","null","psychophysics","63","132242","0.0-3.0-1.29","","key","null","16.665999999999904","720","382","","","","","","","",""
"607.9000000953674","arrowleft","psychophysics","64","132857","0.0-3.0-0.30","","key","arrowleft","16.665999999999865","720","382","31","2","1","27","35","25","35","false"
"null","null","psychophysics","65","133859","0.0-3.0-1.30","","key","null","16.6660000000004","720","382","","","","","","","",""
"529.1999999284744","arrowright","psychophysics","66","134392","0.0-3.0-0.31","","key","arrowright","16.66599999999932","720","382","32","2","1","24","15","25","35","true"
"null","null","psychophysics","67","135395","0.0-3.0-1.31","","key","null","16.665999999999904","720","382","","","","","","","",""
"647.6000000238419","arrowright","psychophysics","68","136047","0.0-3.0-0.32","","key","arrowright","16.665999999999737","720","382","33","2","1","25","15","25","35","true"
"null","null","psychophysics","69","137050","0.0-3.0-1.32","","key","null","16.665999999999904","720","382","","","","","","","",""
"535.2000000476837","arrowleft","psychophysics","70","137592","0.0-3.0-0.33","","key","arrowleft","16.666000000000167","720","382","34","2","1","24","35","25","35","false"
"null","null","psychophysics","71","138596","0.0-3.0-1.33","","key","null","16.539449999999974","720","382","","","","","","","",""
"703","arrowleft","psychophysics","72","139304","0.0-3.0-0.34","","key","arrowleft","16.665999999999567","720","382","35","2","-1","24","35","25","35","true"
"null","null","psychophysics","73","140306","0.0-3.0-1.34","","key","null","16.665999999999904","720","382","","","","","","","",""
"958.2000000476837","arrowright","psychophysics","74","141271","0.0-3.0-0.35","","key","arrowright","16.665999999999993","720","382","36","2","-1","26","35","25","35","false"
"null","null","psychophysics","75","142275","0.0-3.0-1.35","","key","null","16.665999999999904","720","382","","","","","","","",""
"706","arrowright","psychophysics","76","142988","0.0-3.0-0.36","","key","arrowright","16.66600000000021","720","382","37","2","1","24","15","25","35","true"
"null","null","psychophysics","77","143991","0.0-3.0-1.36","","key","null","16.665999999999904","720","382","","","","","","","",""
"672.3000000715256","arrowleft","psychophysics","78","144671","0.0-3.0-0.37","","key","arrowleft","16.66599999999962","720","382","38","2","-1","23","35","25","35","true"
"null","null","psychophysics","79","145675","0.0-3.0-1.37","","key","null","16.665999999999904","720","382","","","","","","","",""
"666.1000000238419","arrowleft","psychophysics","80","146353","0.0-3.0-0.38","","key","arrowleft","16.66599999999962","720","382","39","2","1","23","35","25","35","false"
"null","null","psychophysics","81","147355","0.0-3.0-1.38","","key","null","16.6660000000004","720","382","","","","","","","",""
"539.5","arrowright","psychophysics","82","147898","0.0-3.0-0.39","","key","arrowright","16.666000000000167","720","382","40","2","-1","20","35","25","35","false"
"null","null","psychophysics","83","148900","0.0-3.0-1.39","","key","null","16.668423728813156","720","382","","","","","","","",""
"1240.5","arrowleft","psychophysics","84","150146","0.0-3.0-0.40","","key","arrowleft","16.665999999999798","720","382","41","2","-1","23","35","25","35","true"
"null","null","psychophysics","85","151148","0.0-3.0-1.40","","key","null","16.665999999999904","720","382","","","","","","","",""
"801.6999999284744","arrowleft","psychophysics","86","151956","0.0-3.0-0.41","","key","arrowleft","16.666000000000533","720","382","42","2","-1","30","35","25","35","true"
"null","null","psychophysics","87","152958","0.0-3.0-1.41","","key","null","16.665999999999904","720","382","","","","","","","",""
"818.6000000238419","arrowright","psychophysics","88","153783","0.0-3.0-0.42","","key","arrowright","16.665999999999816","720","382","43","2","-1","20","15","25","35","false"
"null","null","psychophysics","89","154786","0.0-3.0-1.42","","key","null","16.6660000000004","720","382","","","","","","","",""
"881.2999999523163","arrowright","psychophysics","90","155671","0.0-3.0-0.43","","key","arrowright","16.665999999999677","720","382","44","2","-1","25","35","25","35","false"
"null","null","psychophysics","91","156675","0.0-3.0-1.43","","key","null","16.665999999999904","720","382","","","","","","","",""
"604.7999999523163","arrowleft","psychophysics","92","157287","0.0-3.0-0.44","","key","arrowleft","16.665999999999865","720","382","45","2","-1","30","15","25","35","true"
"null","null","psychophysics","93","158292","0.0-3.0-1.44","","key","null","16.665999999999904","720","382","","","","","","","",""
"664.6000000238419","arrowright","psychophysics","94","158963","0.0-3.0-0.45","","key","arrowright","16.671674999999958","720","382","46","2","1","25","15","25","35","true"
"null","null","psychophysics","95","159965","0.0-3.0-1.45","","key","null","16.665999999999904","720","382","","","","","","","",""
"1669.2000000476837","arrowright","psychophysics","96","161637","0.0-3.0-0.46","","key","arrowright","16.66599999999979","720","382","47","2","1","23","15","25","35","true"
"null","null","psychophysics","97","162641","0.0-3.0-1.46","","key","null","16.6660000000004","720","382","","","","","","","",""
"918.5","arrowleft","psychophysics","98","163566","0.0-3.0-0.47","","key","arrowleft","16.665999999999556","720","382","48","2","1","23","35","25","35","false"
"null","null","psychophysics","99","164572","0.0-3.0-1.47","","key","null","16.665999999999904","720","382","","","","","","","",""
"502.2000000476837","arrowright","psychophysics","100","165082","0.0-3.0-0.48","","key","arrowright","16.66599999999938","720","382","49","2","1","26","15","25","35","true"
"null","null","psychophysics","101","166085","0.0-3.0-1.48","","key","null","16.665999999999904","720","382","","","","","","","",""
"582.8000000715256","arrowleft","psychophysics","102","166672","0.0-3.0-0.49","","key","arrowleft","16.666000000000007","720","382","50","2","-1","27","15","25","35","true"
"null","null","psychophysics","103","167675","0.0-3.0-1.49","","key","null","16.665999999999904","720","382","","","","","","","",""
"754.3999999761581","arrowright","psychophysics","104","168436","0.0-3.0-0.50","","key","arrowright","16.666000000000025","720","382","51","2","1","20","35","25","35","true"
"null","null","psychophysics","105","169438","0.0-3.0-1.50","","key","null","16.669881355932468","720","382","","","","","","","",""
"609.5999999046326","arrowleft","psychophysics","106","170055","0.0-3.0-0.51","","key","arrowleft","16.665999999999865","720","382","52","2","-1","30","15","25","35","true"
"null","null","psychophysics","107","171060","0.0-3.0-1.51","","key","null","16.665999999999865","720","382","","","","","","","",""
"529.2000000476837","arrowright","psychophysics","108","171593","0.0-3.0-0.52","","key","arrowright","16.666000000000256","720","382","53","2","1","30","35","25","35","true"
"null","null","psychophysics","109","172595","0.0-3.0-1.52","","key","null","16.665999999999904","720","382","","","","","","","",""
"569.8999999761581","arrowright","psychophysics","110","173168","0.0-3.0-0.53","","key","arrowright","16.666000000000086","720","382","54","2","1","30","35","25","35","true"
"null","null","psychophysics","111","174172","0.0-3.0-1.53","","key","null","16.6660000000004","720","382","","","","","","","",""
"613","arrowright","psychophysics","112","174793","0.0-3.0-0.54","","key","arrowright","16.665999999999798","720","382","55","2","1","30","15","25","35","true"
"null","null","psychophysics","113","175795","0.0-3.0-1.54","","key","null","16.665999999999904","720","382","","","","","","","",""
"787","arrowright","psychophysics","114","176585","0.0-3.0-0.55","","key","arrowright","16.66599999999997","720","382","56","3","1","27","35","25","35","true"
"null","null","psychophysics","115","177590","0.0-3.0-1.55","","key","null","16.665999999999904","720","382","","","","","","","",""
"1736.1999999284744","arrowright","html-keyboard-response","116","179329","0.0-3.0-2.55-0.55","<div style=""color: white; text-align: center; vertical-align: top; display: inline-block; width: 800px; margin: auto""><p>You have completed 20% of the trials. You are on block 3 of 10. <br>Good job! Take a break if you need to.</p><p>Press any key to continue the experiment.</p></div>","","","","","","","","","","","","",""
"1034.8999999761581","arrowleft","psychophysics","117","181375","0.0-3.0-0.56","","key","arrowleft","16.673016129032476","720","382","57","3","-1","25","15","25","35","true"
"null","null","psychophysics","118","182378","0.0-3.0-1.56","","key","null","16.665999999999865","720","382","","","","","","","",""
"1689.1000000238419","arrowleft","psychophysics","119","184070","0.0-3.0-0.57","","key","arrowleft","16.666000000000057","720","382","58","3","1","20","35","25","35","false"
"null","null","psychophysics","120","185074","0.0-3.0-1.57","","key","null","16.665999999999904","720","382","","","","","","","",""
"606.3000000715256","arrowright","psychophysics","121","185687","0.0-3.0-0.58","","key","arrowright","16.666000000000672","720","382","59","3","1","27","15","25","35","true"
"null","null","psychophysics","122","186689","0.0-3.0-1.58","","key","null","16.665999999999904","720","382","","","","","","","",""
"567","arrowright","psychophysics","123","187263","0.0-3.0-0.59","","key","arrowright","16.666000000000007","720","382","60","3","1","25","15","25","35","true"
"null","null","psychophysics","124","188265","0.0-3.0-1.59","","key","null","16.665999999999904","720","382","","","","","","","",""
"1065.5","arrowright","psychophysics","125","189334","0.0-3.0-0.60","","key","arrowright","16.66600000000021","720","382","61","3","1","23","35","25","35","true"
"null","null","psychophysics","126","190337","0.0-3.0-1.60","","key","null","16.6679152542374","720","382","","","","","","","",""
"665.3999999761581","arrowleft","psychophysics","127","191010","0.0-3.0-0.61","","key","arrowleft","16.66599999999962","720","382","62","3","-1","26","35","25","35","true"
"null","null","psychophysics","128","192016","0.0-3.0-1.61","","key","null","16.6660000000004","720","382","","","","","","","",""
"497.6999999284744","arrowright","psychophysics","129","192518","0.0-3.0-0.62","","key","arrowright","16.665999999999446","720","382","63","3","1","27","15","25","35","true"
"null","null","psychophysics","130","193521","0.0-3.0-1.62","","key","null","16.6660000000004","720","382","","","","","","","",""
"1281.7000000476837","arrowleft","psychophysics","131","194809","0.0-3.0-0.63","","key","arrowleft","16.665999999999705","720","382","64","3","-1","23","35","25","35","true"
"null","null","psychophysics","132","195812","0.0-3.0-1.63","","key","null","16.6660000000004","720","382","","","","","","","",""
"583.7000000476837","arrowright","psychophysics","133","196398","0.0-3.0-0.64","","key","arrowright","16.666000000000007","720","382","65","3","1","30","35","25","35","true"
"null","null","psychophysics","134","197402","0.0-3.0-1.64","","key","null","16.665999999999904","720","382","","","","","","","",""
"1591.8999999761581","arrowright","psychophysics","135","198998","0.0-3.0-0.65","","key","arrowright","16.66599999999989","720","382","66","3","1","24","35","25","35","true"
"null","null","psychophysics","136","200005","0.0-3.0-1.65","","key","null","16.670067796609917","720","382","","","","","","","",""
"620.0999999046326","arrowleft","psychophysics","137","200632","0.0-3.0-0.66","","key","arrowleft","16.665999999999798","720","382","67","3","1","20","15","25","35","false"
"null","null","psychophysics","138","201634","0.0-3.0-1.66","","key","null","16.6660000000004","720","382","","","","","","","",""
"568.8999999761581","arrowright","psychophysics","139","202207","0.0-3.0-0.67","","key","arrowright","16.666000000000086","720","382","68","3","1","30","15","25","35","true"
"null","null","psychophysics","140","203210","0.0-3.0-1.67","","key","null","16.665999999999865","720","382","","","","","","","",""
"541.6000000238419","arrowright","psychophysics","141","203755","0.0-3.0-0.68","","key","arrowright","16.666000000000256","720","382","69","3","1","27","15","25","35","true"
"null","null","psychophysics","142","204757","0.0-3.0-1.68","","key","null","16.665999999999904","720","382","","","","","","","",""
"717","arrowleft","psychophysics","143","205481","0.0-3.0-0.69","","key","arrowleft","16.666000000000146","720","382","70","3","-1","20","15","25","35","true"
"null","null","psychophysics","144","206483","0.0-3.0-1.69","","key","null","16.665999999999904","720","382","","","","","","","",""
"886.6000000238419","arrowright","psychophysics","145","207382","0.0-3.0-0.70","","key","arrowright","16.666000000000185","720","382","71","3","1","23","35","25","35","true"
"null","null","psychophysics","146","208384","0.0-3.0-1.70","","key","null","16.665999999999904","720","382","","","","","","","",""
"562.8999999761581","arrowright","psychophysics","147","208951","0.0-3.0-0.71","","key","arrowright","16.666000000000086","720","382","72","3","1","27","15","25","35","true"
"null","null","psychophysics","148","209953","0.0-3.0-1.71","","key","null","16.671932203389833","720","382","","","","","","","",""
"589.1000000238419","arrowright","psychophysics","149","210546","0.0-3.0-0.72","","key","arrowright","16.666000000000764","720","382","73","3","1","27","15","25","35","true"
"null","null","psychophysics","150","211548","0.0-3.0-1.72","","key","null","16.665999999999904","720","382","","","","","","","",""
"646.8999999761581","arrowleft","psychophysics","151","212198","0.0-3.0-0.73","","key","arrowleft","16.665999999999737","720","382","74","3","-1","26","35","25","35","true"
"null","null","psychophysics","152","213201","0.0-3.0-1.73","","key","null","16.6660000000004","720","382","","","","","","","",""
"690.7000000476837","arrowleft","psychophysics","153","213901","0.0-3.0-0.74","","key","arrowleft","16.665999999999567","720","382","75","3","-1","25","15","25","35","true"
"null","null","psychophysics","154","214905","0.0-3.0-1.74","","key","null","16.6660000000004","720","382","","","","","","","",""
"1021.2000000476837","arrowleft","psychophysics","155","215933","0.0-3.0-0.75","","key","arrowleft","16.665999999999823","720","382","76","3","1","20","15","25","35","false"
"null","null","psychophysics","156","216935","0.0-3.0-1.75","","key","null","16.665999999999904","720","382","","","","","","","",""
"1240.7999999523163","arrowleft","psychophysics","157","218178","0.0-3.0-0.76","","key","arrowleft","16.666000000000192","720","382","77","3","-1","24","15","25","35","true"
"null","null","psychophysics","158","219180","0.0-3.0-1.76","","key","null","16.665999999999904","720","382","","","","","","","",""
"812.3999999761581","arrowright","psychophysics","159","219995","0.0-3.0-0.77","","key","arrowright","16.672958333333252","720","382","78","3","1","26","35","25","35","true"
"null","null","psychophysics","160","220997","0.0-3.0-1.77","","key","null","16.6660000000004","720","382","","","","","","","",""
"783.2999999523163","arrowright","psychophysics","161","221787","0.0-3.0-0.78","","key","arrowright","16.66599999999997","720","382","79","3","-1","20","35","25","35","false"
"null","null","psychophysics","162","222790","0.0-3.0-1.78","","key","null","16.665999999999904","720","382","","","","","","","",""
"920.8999999761581","arrowleft","psychophysics","163","223717","0.0-3.0-0.79","","key","arrowleft","16.666000000000086","720","382","80","3","1","20","15","25","35","false"
"null","null","psychophysics","164","224720","0.0-3.0-1.79","","key","null","16.665999999999904","720","382","","","","","","","",""
"920.6999999284744","arrowright","psychophysics","165","225647","0.0-3.0-0.80","","key","arrowright","16.666000000000086","720","382","81","3","1","26","15","25","35","true"
"null","null","psychophysics","166","226651","0.0-3.0-1.80","","key","null","16.665999999999904","720","382","","","","","","","",""
"1222","arrowright","psychophysics","167","227877","0.0-3.0-0.81","","key","arrowright","16.66599999999983","720","382","82","3","1","24","15","25","35","true"
"null","null","psychophysics","168","228878","0.0-3.0-1.81","","key","null","16.665999999999904","720","382","","","","","","","",""
"861","arrowleft","psychophysics","169","229746","0.0-3.0-0.82","","key","arrowleft","16.671470588235774","720","382","83","3","-1","25","15","25","35","true"
"null","null","psychophysics","170","230747","0.0-3.0-1.82","","key","null","16.665999999999904","720","382","","","","","","","",""
"672.6999999284744","arrowright","psychophysics","171","231424","0.0-3.0-0.83","","key","arrowright","16.665999999999677","720","382","84","4","1","24","15","25","35","true"
"null","null","psychophysics","172","232427","0.0-3.0-1.83","","key","null","16.66600000000035","720","382","","","","","","","",""
"873.7000000476837","arrowright","html-keyboard-response","173","233302","0.0-3.0-2.83-0.83","<div style=""color: white; text-align: center; vertical-align: top; display: inline-block; width: 800px; margin: auto""><p>You have completed 30% of the trials. You are on block 4 of 10. <br>Good job! Take a break if you need to.</p><p>Press any key to continue the experiment.</p></div>","","","","","","","","","","","","",""
"2384.899999976158","arrowleft","psychophysics","174","236696","0.0-3.0-0.84","","key","arrowleft","16.66599999999988","720","382","85","4","1","20","15","25","35","false"
"null","null","psychophysics","175","237703","0.0-3.0-1.84","","key","null","16.6660000000004","720","382","","","","","","","",""
"992.7999999523163","arrowleft","psychophysics","176","238700","0.0-3.0-0.85","","key","arrowleft","16.665999999999904","720","382","86","4","1","26","15","25","35","false"
"null","null","psychophysics","177","239704","0.0-3.0-1.85","","key","null","16.671288135593215","720","382","","","","","","","",""
"1096.5","arrowleft","psychophysics","178","240807","0.0-3.0-0.86","","key","arrowleft","16.666000000000125","720","382","87","4","1","26","35","25","35","false"
"null","null","psychophysics","179","241809","0.0-3.0-1.86","","key","null","16.665999999999865","720","382","","","","","","","",""
"667.9000000953674","arrowright","psychophysics","180","242481","0.0-3.0-0.87","","key","arrowright","16.666000000000423","720","382","88","4","1","26","15","25","35","true"
"null","null","psychophysics","181","243483","0.0-3.0-1.87","","key","null","16.665999999999904","720","382","","","","","","","",""
"619.8000000715256","arrowright","psychophysics","182","244108","0.0-3.0-0.88","","key","arrowright","16.665999999999798","720","382","89","4","1","27","15","25","35","true"
"null","null","psychophysics","183","245113","0.0-3.0-1.88","","key","null","16.665999999999904","720","382","","","","","","","",""
"546","arrowleft","psychophysics","184","245663","0.0-3.0-0.89","","key","arrowleft","16.665999999999258","720","382","90","4","-1","30","15","25","35","true"
"null","null","psychophysics","185","246666","0.0-3.0-1.89","","key","null","16.6660000000004","720","382","","","","","","","",""
"1047.6000000238419","arrowleft","psychophysics","186","247717","0.0-3.0-0.90","","key","arrowleft","16.665999999999787","720","382","91","4","-1","27","35","25","35","true"
"null","null","psychophysics","187","248719","0.0-3.0-1.90","","key","null","16.665999999999904","720","382","","","","","","","",""
"921.7999999523163","arrowright","psychophysics","188","249646","0.0-3.0-0.91","","key","arrowright","16.663509090908867","720","382","92","4","-1","23","15","25","35","false"
"null","null","psychophysics","189","250648","0.0-3.0-1.91","","key","null","16.665999999999904","720","382","","","","","","","",""
"661","arrowleft","psychophysics","190","251312","0.0-3.0-0.92","","key","arrowleft","16.666000000000423","720","382","93","4","-1","30","15","25","35","true"
"null","null","psychophysics","191","252319","0.0-3.0-1.92","","key","null","16.665999999999904","720","382","","","","","","","",""
"971.7000000476837","arrowright","psychophysics","192","253302","0.0-3.0-0.93","","key","arrowright","16.665999999999947","720","382","94","4","1","24","35","25","35","true"
"null","null","psychophysics","193","254305","0.0-3.0-1.93","","key","null","16.6660000000004","720","382","","","","","","","",""
"605","arrowleft","psychophysics","194","254917","0.0-3.0-0.94","","key","arrowleft","16.665999999999865","720","382","95","4","-1","24","15","25","35","true"
"null","null","psychophysics","195","255919","0.0-3.0-1.94","","key","null","16.665999999999904","720","382","","","","","","","",""
"770.6000000238419","arrowright","psychophysics","196","256696","0.0-3.0-0.95","","key","arrowright","16.66599999999997","720","382","96","4","1","26","15","25","35","true"
"null","null","psychophysics","197","257698","0.0-3.0-1.95","","key","null","16.6660000000004","720","382","","","","","","","",""
"916.7000000476837","arrowright","psychophysics","198","258618","0.0-3.0-0.96","","key","arrowright","16.665999999999595","720","382","97","4","1","24","15","25","35","true"
"null","null","psychophysics","199","259624","0.0-3.0-1.96","","key","null","16.66600000000035","720","382","","","","","","","",""
"610.5","arrowleft","psychophysics","200","260238","0.0-3.0-0.97","","key","arrowleft","16.679028571427832","720","382","98","4","-1","24","35","25","35","true"
"null","null","psychophysics","201","261242","0.0-3.0-1.97","","key","null","16.66600000000035","720","382","","","","","","","",""
"750.5","arrowright","psychophysics","202","261996","0.0-3.0-0.98","","key","arrowright","16.666000000000086","720","382","99","4","1","25","15","25","35","true"
"null","null","psychophysics","203","262999","0.0-3.0-1.98","","key","null","16.665999999999904","720","382","","","","","","","",""
"696.8999999761581","arrowright","psychophysics","204","263700","0.0-3.0-0.99","","key","arrowright","16.665999999999567","720","382","100","4","1","26","15","25","35","true"
"null","null","psychophysics","205","264704","0.0-3.0-1.99","","key","null","16.665999999999904","720","382","","","","","","","",""
"696.6000000238419","arrowleft","psychophysics","206","265408","0.0-3.0-0.100","","key","arrowleft","16.66600000000021","720","382","101","4","1","27","35","25","35","false"
"null","null","psychophysics","207","266410","0.0-3.0-1.100","","key","null","16.665999999999904","720","382","","","","","","","",""
"547.6000000238419","arrowright","psychophysics","208","266961","0.0-3.0-0.101","","key","arrowright","16.665999999999258","720","382","102","4","1","26","15","25","35","true"
"null","null","psychophysics","209","267967","0.0-3.0-1.101","","key","null","16.665999999999904","720","382","","","","","","","",""
"589.1999999284744","arrowleft","psychophysics","210","268560","0.0-3.0-0.102","","key","arrowleft","16.665999999999933","720","382","103","4","-1","27","15","25","35","true"
"null","null","psychophysics","211","269562","0.0-3.0-1.102","","key","null","16.665999999999904","720","382","","","","","","","",""
"534.5","arrowleft","psychophysics","212","270101","0.0-3.0-0.103","","key","arrowleft","16.668580645160194","720","382","104","4","-1","26","15","25","35","true"
"null","null","psychophysics","213","271104","0.0-3.0-1.103","","key","null","16.665999999999904","720","382","","","","","","","",""
"650.5","arrowright","psychophysics","214","271760","0.0-3.0-0.104","","key","arrowright","16.66600000000117","720","382","105","4","1","23","35","25","35","true"
"null","null","psychophysics","215","272769","0.0-3.0-1.104","","key","null","16.665999999999904","720","382","","","","","","","",""
"596.3999999761581","arrowleft","psychophysics","216","273377","0.0-3.0-0.105","","key","arrowleft","16.665999999999055","720","382","106","4","1","20","35","25","35","false"
"null","null","psychophysics","217","274379","0.0-3.0-1.105","","key","null","16.665999999999904","720","382","","","","","","","",""
"582.8999999761581","arrowright","psychophysics","218","274965","0.0-3.0-0.106","","key","arrowright","16.666000000000864","720","382","107","4","1","23","15","25","35","true"
"null","null","psychophysics","219","275968","0.0-3.0-1.106","","key","null","16.665999999999904","720","382","","","","","","","",""
"578.1000000238419","arrowright","psychophysics","220","276553","0.0-3.0-0.107","","key","arrowright","16.666000000000864","720","382","108","4","1","27","15","25","35","true"
"null","null","psychophysics","221","277555","0.0-3.0-1.107","","key","null","16.665999999999904","720","382","","","","","","","",""
"725.1999999284744","arrowright","psychophysics","222","278286","0.0-3.0-0.108","","key","arrowright","16.66599999999947","720","382","109","4","1","20","15","25","35","true"
"null","null","psychophysics","223","279289","0.0-3.0-1.108","","key","null","16.665999999999904","720","382","","","","","","","",""
"596.2999999523163","arrowright","psychophysics","224","279891","0.0-3.0-0.109","","key","arrowright","16.681527777778683","720","382","110","4","1","30","15","25","35","true"
"null","null","psychophysics","225","280898","0.0-3.0-1.109","","key","null","16.665999999999904","720","382","","","","","","","",""
"495.1999999284744","arrowleft","psychophysics","226","281397","0.0-3.0-0.110","","key","arrowleft","16.666000000000448","720","382","111","4","-1","25","15","25","35","true"
"null","null","psychophysics","227","282400","0.0-3.0-1.110","","key","null","16.665999999999904","720","382","","","","","","","",""
"804.1000000238419","arrowright","psychophysics","228","283208","0.0-3.0-0.111","","key","arrowright","16.665999999999865","720","382","112","5","-1","23","15","25","35","false"
"null","null","psychophysics","229","284210","0.0-3.0-1.111","","key","null","16.665999999999904","720","382","","","","","","","",""
"10816.600000023842","arrowright","html-keyboard-response","230","295028","0.0-3.0-2.111-0.111","<div style=""color: white; text-align: center; vertical-align: top; display: inline-block; width: 800px; margin: auto""><p>You have completed 40% of the trials. You are on block 5 of 10. <br>Good job! Take a break if you need to.</p><p>Press any key to continue the experiment.</p></div>","","","","","","","","","","","","",""
"1475.1000000238419","arrowright","psychophysics","231","297516","0.0-3.0-0.112","","key","arrowright","16.671477272727564","720","382","113","5","1","26","35","25","35","true"
"null","null","psychophysics","232","298519","0.0-3.0-1.112","","key","null","16.665999999999904","720","382","","","","","","","",""
"2086.600000023842","arrowleft","psychophysics","233","300613","0.0-3.0-0.113","","key","arrowleft","16.666","720","382","114","5","-1","30","15","25","35","true"
"null","null","psychophysics","234","301615","0.0-3.0-1.113","","key","null","16.665999999999904","720","382","","","","","","","",""
"620.0999999046326","arrowleft","psychophysics","235","302244","0.0-3.0-0.114","","key","arrowleft","16.665999999999798","720","382","115","5","-1","26","15","25","35","true"
"null","null","psychophysics","236","303247","0.0-3.0-1.114","","key","null","16.665999999999904","720","382","","","","","","","",""
"591.6999999284744","arrowleft","psychophysics","237","303843","0.0-3.0-0.115","","key","arrowleft","16.665999999999933","720","382","116","5","-1","27","15","25","35","true"
"null","null","psychophysics","238","304846","0.0-3.0-1.115","","key","null","16.665999999999904","720","382","","","","","","","",""
"490.1999999284744","arrowright","psychophysics","239","305340","0.0-3.0-0.116","","key","arrowright","16.49151724137984","720","382","117","5","1","23","15","25","35","true"
"null","null","psychophysics","240","306343","0.0-3.0-1.116","","key","null","16.665999999999904","720","382","","","","","","","",""
"1144.6000000238419","arrowleft","psychophysics","241","307492","0.0-3.0-0.117","","key","arrowleft","16.666000000000007","720","382","118","5","-1","26","35","25","35","true"
"null","null","psychophysics","242","308499","0.0-3.0-1.117","","key","null","16.665999999999904","720","382","","","","","","","",""
"555.2999999523163","arrowright","psychophysics","243","309060","0.0-3.0-0.118","","key","arrowright","16.66599999999832","720","382","119","5","1","30","15","25","35","true"
"null","null","psychophysics","244","310063","0.0-3.0-1.118","","key","null","16.665999999999904","720","382","","","","","","","",""
"519.5999999046326","arrowleft","psychophysics","245","310589","0.0-3.0-0.119","","key","arrowleft","16.666000000000256","720","382","120","5","-1","30","15","25","35","true"
"null","null","psychophysics","246","311591","0.0-3.0-1.119","","key","null","16.665999999999904","720","382","","","","","","","",""
"634.2999999523163","arrowright","psychophysics","247","312229","0.0-3.0-0.120","","key","arrowright","16.665999999999798","720","382","121","5","1","30","35","25","35","true"
"null","null","psychophysics","248","313232","0.0-3.0-1.120","","key","null","16.665999999999904","720","382","","","","","","","",""
"708","arrowleft","psychophysics","249","313951","0.0-3.0-0.121","","key","arrowleft","16.66599999999947","720","382","122","5","-1","26","15","25","35","true"
"null","null","psychophysics","250","314953","0.0-3.0-1.121","","key","null","16.665999999999904","720","382","","","","","","","",""
"1238","arrowleft","psychophysics","251","316194","0.0-3.0-0.122","","key","arrowleft","16.66797260273956","720","382","123","5","-1","30","35","25","35","true"
"null","null","psychophysics","252","317198","0.0-3.0-1.122","","key","null","16.665999999999904","720","382","","","","","","","",""
"967.5999999046326","arrowleft","psychophysics","253","318173","0.0-3.0-0.123","","key","arrowleft","16.666000000000448","720","382","124","5","-1","24","15","25","35","true"
"null","null","psychophysics","254","319175","0.0-3.0-1.123","","key","null","16.665999999999904","720","382","","","","","","","",""
"1047.8999999761581","arrowleft","psychophysics","255","320227","0.0-3.0-0.124","","key","arrowleft","16.66599999999932","720","382","125","5","1","20","35","25","35","false"
"null","null","psychophysics","256","321234","0.0-3.0-1.124","","key","null","16.66600000000035","720","382","","","","","","","",""
"2022.6000000238419","arrowleft","psychophysics","257","323260","0.0-3.0-0.125","","key","arrowleft","16.665999999999865","720","382","126","5","-1","27","35","25","35","true"
"null","null","psychophysics","258","324264","0.0-3.0-1.125","","key","null","16.665999999999904","720","382","","","","","","","",""
"1437.8999999761581","arrowright","psychophysics","259","325708","0.0-3.0-0.126","","key","arrowright","16.66860465116279","720","382","127","5","-1","20","15","25","35","false"
"null","null","psychophysics","260","326712","0.0-3.0-1.126","","key","null","16.665999999999904","720","382","","","","","","","",""
"1597.5","arrowleft","psychophysics","261","328321","0.0-3.0-0.127","","key","arrowleft","16.665999999999865","720","382","128","5","-1","23","15","25","35","true"
"null","null","psychophysics","262","329324","0.0-3.0-1.127","","key","null","16.665999999999904","720","382","","","","","","","",""
"843.8999999761581","arrowright","psychophysics","263","330172","0.0-3.0-0.128","","key","arrowright","16.665999999999766","720","382","129","5","-1","24","35","25","35","false"
"null","null","psychophysics","264","331175","0.0-3.0-1.128","","key","null","16.665999999999904","720","382","","","","","","","",""
"593.3999999761581","arrowleft","psychophysics","265","331772","0.0-3.0-0.129","","key","arrowleft","16.665999999999933","720","382","130","5","1","20","35","25","35","false"
"null","null","psychophysics","266","332775","0.0-3.0-1.129","","key","null","16.665999999999904","720","382","","","","","","","",""
"1243.7000000476837","arrowleft","psychophysics","267","334032","0.0-3.0-0.130","","key","arrowleft","16.665999999999798","720","382","131","5","1","26","35","25","35","false"
"null","null","psychophysics","268","335033","0.0-3.0-1.130","","key","null","16.66599999999938","720","382","","","","","","","",""
"698.6000000238419","arrowleft","psychophysics","269","335736","0.0-3.0-0.131","","key","arrowleft","16.67212195121882","720","382","132","5","-1","26","15","25","35","true"
"null","null","psychophysics","270","336738","0.0-3.0-1.131","","key","null","16.665999999999904","720","382","","","","","","","",""
"863.6000000238419","arrowright","psychophysics","271","337604","0.0-3.0-0.132","","key","arrowright","16.66599999999915","720","382","133","5","-1","26","35","25","35","false"
"null","null","psychophysics","272","338607","0.0-3.0-1.132","","key","null","16.665999999999904","720","382","","","","","","","",""
"1031.9000000953674","arrowright","psychophysics","273","339651","0.0-3.0-0.133","","key","arrowright","16.666000000000256","720","382","134","5","1","30","35","25","35","true"
"null","null","psychophysics","274","340652","0.0-3.0-1.133","","key","null","16.665999999999904","720","382","","","","","","","",""
"896.6999999284744","arrowright","psychophysics","275","341552","0.0-3.0-0.134","","key","arrowright","16.666000000000185","720","382","135","5","-1","20","15","25","35","false"
"null","null","psychophysics","276","342554","0.0-3.0-1.134","","key","null","16.665999999999904","720","382","","","","","","","",""
"794.8999999761581","arrowright","psychophysics","277","343352","0.0-3.0-0.135","","key","arrowright","16.666000000000533","720","382","136","5","1","25","15","25","35","true"
"null","null","psychophysics","278","344354","0.0-3.0-1.135","","key","null","16.666000000000892","720","382","","","","","","","",""
"524.6000000238419","arrowleft","psychophysics","279","344888","0.0-3.0-0.136","","key","arrowleft","16.666000000000256","720","382","137","5","-1","27","15","25","35","true"
"null","null","psychophysics","280","345890","0.0-3.0-1.136","","key","null","16.669762711863477","720","382","","","","","","","",""
"614.3000000715256","arrowleft","psychophysics","281","346508","0.0-3.0-0.137","","key","arrowleft","16.666000000000672","720","382","138","5","-1","24","15","25","35","true"
"null","null","psychophysics","282","347510","0.0-3.0-1.137","","key","null","16.665999999999904","720","382","","","","","","","",""
"522","arrowleft","psychophysics","283","348045","0.0-3.0-0.138","","key","arrowleft","16.666000000000256","720","382","139","5","-1","27","15","25","35","true"
"null","null","psychophysics","284","349048","0.0-3.0-1.138","","key","null","16.665999999999904","720","382","","","","","","","",""
"669.6999999284744","arrowright","psychophysics","285","349723","0.0-3.0-0.139","","key","arrowright","16.66600000000035","720","382","140","6","1","24","35","25","35","true"
"null","null","psychophysics","286","350725","0.0-3.0-1.139","","key","null","16.665999999999904","720","382","","","","","","","",""
"671.3999999761581","arrowright","html-keyboard-response","287","351410","0.0-3.0-2.139-0.139","<div style=""color: white; text-align: center; vertical-align: top; display: inline-block; width: 800px; margin: auto""><p>You have completed 50% of the trials. You are on block 6 of 10. <br>Good job! Take a break if you need to.</p><p>Press any key to continue the experiment.</p></div>","","","","","","","","","","","","",""
"1138.8999999761581","arrowright","psychophysics","288","353556","0.0-3.0-0.140","","key","arrowright","16.666000000000007","720","382","141","6","1","23","15","25","35","true"
"null","null","psychophysics","289","354558","0.0-3.0-1.140","","key","null","16.665999999999904","720","382","","","","","","","",""
"745.5","arrowleft","psychophysics","290","355307","0.0-3.0-0.141","","key","arrowleft","16.674909090909008","720","382","142","6","1","24","35","25","35","false"
"null","null","psychophysics","291","356311","0.0-3.0-1.141","","key","null","16.665999999999904","720","382","","","","","","","",""
"568.2000000476837","arrowright","psychophysics","292","356891","0.0-3.0-0.142","","key","arrowright","16.666000000000864","720","382","143","6","1","24","15","25","35","true"
"null","null","psychophysics","293","357895","0.0-3.0-1.142","","key","null","16.665999999999904","720","382","","","","","","","",""
"975","arrowright","psychophysics","294","358876","0.0-3.0-0.143","","key","arrowright","16.665999999999446","720","382","144","6","-1","20","15","25","35","false"
"null","null","psychophysics","295","359878","0.0-3.0-1.143","","key","null","16.665999999999904","720","382","","","","","","","",""
"834.7999999523163","arrowleft","psychophysics","296","360719","0.0-3.0-0.144","","key","arrowleft","16.665999999999766","720","382","145","6","-1","25","35","25","35","true"
"null","null","psychophysics","297","361721","0.0-3.0-1.144","","key","null","16.665999999999904","720","382","","","","","","","",""
"1447.8999999761581","arrowleft","psychophysics","298","363173","0.0-3.0-0.145","","key","arrowleft","16.666000000000146","720","382","146","6","-1","23","15","25","35","true"
"null","null","psychophysics","299","364180","0.0-3.0-1.145","","key","null","16.665999999999904","720","382","","","","","","","",""
"601.1999999284744","arrowright","psychophysics","300","364788","0.0-3.0-0.146","","key","arrowright","16.665999999999055","720","382","147","6","-1","25","35","25","35","false"
"null","null","psychophysics","301","365790","0.0-3.0-1.146","","key","null","16.67106779661006","720","382","","","","","","","",""
"832.1000000238419","arrowright","psychophysics","302","366626","0.0-3.0-0.147","","key","arrowright","16.665999999999222","720","382","148","6","1","25","35","25","35","true"
"null","null","psychophysics","303","367630","0.0-3.0-1.147","","key","null","16.665999999999904","720","382","","","","","","","",""
"1146","arrowleft","psychophysics","304","368782","0.0-3.0-0.148","","key","arrowleft","16.66599999999955","720","382","149","6","-1","23","35","25","35","true"
"null","null","psychophysics","305","369790","0.0-3.0-1.148","","key","null","16.665999999999904","720","382","","","","","","","",""
"782.6000000238419","arrowleft","psychophysics","306","370576","0.0-3.0-0.149","","key","arrowleft","16.66599999999997","720","382","150","6","-1","26","15","25","35","true"
"null","null","psychophysics","307","371580","0.0-3.0-1.149","","key","null","16.665999999999904","720","382","","","","","","","",""
"634.8999999761581","arrowright","psychophysics","308","372222","0.0-3.0-0.150","","key","arrowright","16.6660000000005","720","382","151","6","-1","20","35","25","35","false"
"null","null","psychophysics","309","373224","0.0-3.0-1.150","","key","null","16.665999999999904","720","382","","","","","","","",""
"674","arrowleft","psychophysics","310","373902","0.0-3.0-0.151","","key","arrowleft","16.66600000000035","720","382","152","6","-1","27","35","25","35","true"
"null","null","psychophysics","311","374905","0.0-3.0-1.151","","key","null","16.665999999999904","720","382","","","","","","","",""
"758.9000000953674","arrowright","psychophysics","312","375675","0.0-3.0-0.152","","key","arrowright","16.670511111111328","720","382","153","6","1","25","15","25","35","true"
"null","null","psychophysics","313","376677","0.0-3.0-1.152","","key","null","16.665999999999904","720","382","","","","","","","",""
"690.8999999761581","arrowright","psychophysics","314","377375","0.0-3.0-0.153","","key","arrowright","16.666000000000988","720","382","154","6","-1","24","35","25","35","false"
"null","null","psychophysics","315","378378","0.0-3.0-1.153","","key","null","16.665999999999904","720","382","","","","","","","",""
"631.6000000238419","arrowleft","psychophysics","316","379015","0.0-3.0-0.154","","key","arrowleft","16.66599999999897","720","382","155","6","-1","23","15","25","35","true"
"null","null","psychophysics","317","380017","0.0-3.0-1.154","","key","null","16.665999999999904","720","382","","","","","","","",""
"691.3999999761581","arrowleft","psychophysics","318","380712","0.0-3.0-0.155","","key","arrowleft","16.665999999998895","720","382","156","6","-1","25","15","25","35","true"
"null","null","psychophysics","319","381718","0.0-3.0-1.155","","key","null","16.66600000000035","720","382","","","","","","","",""
"738.7999999523163","arrowright","psychophysics","320","382460","0.0-3.0-0.156","","key","arrowright","16.666000000000825","720","382","157","6","1","25","15","25","35","true"
"null","null","psychophysics","321","383463","0.0-3.0-1.156","","key","null","16.665999999999904","720","382","","","","","","","",""
"556.2999999523163","arrowright","psychophysics","322","384026","0.0-3.0-0.157","","key","arrowright","16.666000000000086","720","382","158","6","1","30","15","25","35","true"
"null","null","psychophysics","323","385029","0.0-3.0-1.157","","key","null","16.665999999999904","720","382","","","","","","","",""
"634.3000000715256","arrowleft","psychophysics","324","385670","0.0-3.0-0.158","","key","arrowleft","16.6727631578948","720","382","159","6","1","24","35","25","35","false"
"null","null","psychophysics","325","386673","0.0-3.0-1.158","","key","null","16.665999999999904","720","382","","","","","","","",""
"775.6999999284744","arrowright","psychophysics","326","387461","0.0-3.0-0.159","","key","arrowright","16.66599999999997","720","382","160","6","-1","20","35","25","35","false"
"null","null","psychophysics","327","388465","0.0-3.0-1.159","","key","null","16.66599999999938","720","382","","","","","","","",""
"836.9000000953674","arrowleft","psychophysics","328","389306","0.0-3.0-0.160","","key","arrowleft","16.665999999999222","720","382","161","6","-1","25","35","25","35","true"
"null","null","psychophysics","329","390309","0.0-3.0-1.160","","key","null","16.665999999999904","720","382","","","","","","","",""
"588.7000000476837","arrowright","psychophysics","330","390902","0.0-3.0-0.161","","key","arrowright","16.665999999999933","720","382","162","6","1","25","35","25","35","true"
"null","null","psychophysics","331","391904","0.0-3.0-1.161","","key","null","16.665999999999904","720","382","","","","","","","",""
"977.8999999761581","arrowright","psychophysics","332","392886","0.0-3.0-0.162","","key","arrowright","16.665999999999446","720","382","163","6","1","20","35","25","35","true"
"null","null","psychophysics","333","393891","0.0-3.0-1.162","","key","null","16.665999999999904","720","382","","","","","","","",""
"693.5","arrowleft","psychophysics","334","394589","0.0-3.0-0.163","","key","arrowleft","16.665999999999567","720","382","164","6","-1","27","15","25","35","true"
"null","null","psychophysics","335","395593","0.0-3.0-1.163","","key","null","16.67054237288194","720","382","","","","","","","",""
"715","arrowleft","psychophysics","336","396312","0.0-3.0-0.164","","key","arrowleft","16.66600000000021","720","382","165","6","1","20","35","25","35","false"
"null","null","psychophysics","337","397314","0.0-3.0-1.164","","key","null","16.665999999999904","720","382","","","","","","","",""
"614.6000000238419","arrowleft","psychophysics","338","397935","0.0-3.0-0.165","","key","arrowleft","16.665999999999798","720","382","166","6","1","26","35","25","35","false"
"null","null","psychophysics","339","398937","0.0-3.0-1.165","","key","null","16.665999999999904","720","382","","","","","","","",""
"666.3999999761581","arrowleft","psychophysics","340","399618","0.0-3.0-0.166","","key","arrowleft","16.665999999998895","720","382","167","6","1","25","35","25","35","false"
"null","null","psychophysics","341","400619","0.0-3.0-1.166","","key","null","16.665999999999904","720","382","","","","","","","",""
"780.2000000476837","arrowleft","psychophysics","342","401403","0.0-3.0-0.167","","key","arrowleft","16.66599999999997","720","382","168","7","-1","30","35","25","35","true"
"null","null","psychophysics","343","402405","0.0-3.0-1.167","","key","null","16.665999999999904","720","382","","","","","","","",""
"660.3999999761581","arrowleft","html-keyboard-response","344","403067","0.0-3.0-2.167-0.167","<div style=""color: white; text-align: center; vertical-align: top; display: inline-block; width: 800px; margin: auto""><p>You have completed 60% of the trials. You are on block 7 of 10. <br>Good job! Take a break if you need to.</p><p>Press any key to continue the experiment.</p></div>","","","","","","","","","","","","",""
"965.8999999761581","arrowleft","psychophysics","345","405045","0.0-3.0-0.168","","key","arrowleft","16.665999999999446","720","382","169","7","-1","25","35","25","35","true"
"null","null","psychophysics","346","406054","0.0-3.0-1.168","","key","null","16.66479999999962","720","382","","","","","","","",""
"908.6000000238419","arrowright","psychophysics","347","406966","0.0-3.0-0.169","","key","arrowright","16.665999999999595","720","382","170","7","1","27","15","25","35","true"
"null","null","psychophysics","348","407968","0.0-3.0-1.169","","key","null","16.665999999999904","720","382","","","","","","","",""
"632.2999999523163","arrowleft","psychophysics","349","408604","0.0-3.0-0.170","","key","arrowleft","16.665999999999798","720","382","171","7","-1","25","15","25","35","true"
"null","null","psychophysics","350","409607","0.0-3.0-1.170","","key","null","16.665999999999904","720","382","","","","","","","",""
"576.5","arrowleft","psychophysics","351","410189","0.0-3.0-0.171","","key","arrowleft","16.66599999999915","720","382","172","7","-1","30","15","25","35","true"
"null","null","psychophysics","352","411192","0.0-3.0-1.171","","key","null","16.665999999999904","720","382","","","","","","","",""
"757.2999999523163","arrowright","psychophysics","353","411967","0.0-3.0-0.172","","key","arrowright","16.66599999999997","720","382","173","7","-1","27","35","25","35","false"
"null","null","psychophysics","354","412968","0.0-3.0-1.172","","key","null","16.665999999999904","720","382","","","","","","","",""
"663.0999999046326","arrowright","psychophysics","355","413635","0.0-3.0-0.173","","key","arrowright","16.66600000000117","720","382","174","7","1","26","15","25","35","true"
"null","null","psychophysics","356","414637","0.0-3.0-1.173","","key","null","16.665999999999904","720","382","","","","","","","",""
"613.2000000476837","arrowleft","psychophysics","357","415254","0.0-3.0-0.174","","key","arrowleft","16.665999999999055","720","382","175","7","-1","25","15","25","35","true"
"null","null","psychophysics","358","416257","0.0-3.0-1.174","","key","null","16.67754237288096","720","382","","","","","","","",""
"3225.7000000476837","arrowright","psychophysics","359","419486","0.0-3.0-0.175","","key","arrowright","16.666000000000004","720","382","176","7","1","23","15","25","35","true"
"null","null","psychophysics","360","420488","0.0-3.0-1.175","","key","null","16.666000000000892","720","382","","","","","","","",""
"4421.600000023842","arrowleft","psychophysics","361","424923","0.0-3.0-0.176","","key","arrowleft","16.665999999999965","720","382","177","7","1","23","15","25","35","false"
"null","null","psychophysics","362","425927","0.0-3.0-1.176","","key","null","16.670135593220348","720","382","","","","","","","",""
"1188","arrowright","psychophysics","363","427122","0.0-3.0-0.177","","key","arrowright","16.66600000000031","720","382","178","7","-1","24","35","25","35","false"
"null","null","psychophysics","364","428125","0.0-3.0-1.177","","key","null","16.665999999999904","720","382","","","","","","","",""
"626.8999999761581","arrowleft","psychophysics","365","428766","0.0-3.0-0.178","","key","arrowleft","16.6660000000005","720","382","179","7","1","23","35","25","35","false"
"null","null","psychophysics","366","429769","0.0-3.0-1.178","","key","null","16.665999999999904","720","382","","","","","","","",""
"518.7000000476837","arrowright","psychophysics","367","430291","0.0-3.0-0.179","","key","arrowright","16.66599999999938","720","382","180","7","1","30","15","25","35","true"
"null","null","psychophysics","368","431295","0.0-3.0-1.179","","key","null","16.665999999999904","720","382","","","","","","","",""
"665","arrowleft","psychophysics","369","431967","0.0-3.0-0.180","","key","arrowleft","16.665999999998895","720","382","181","7","-1","24","15","25","35","true"
"null","null","psychophysics","370","432970","0.0-3.0-1.180","","key","null","16.665999999999904","720","382","","","","","","","",""
"824.5","arrowright","psychophysics","371","433798","0.0-3.0-0.181","","key","arrowright","16.66600000000041","720","382","182","7","1","25","35","25","35","true"
"null","null","psychophysics","372","434800","0.0-3.0-1.181","","key","null","16.665999999999904","720","382","","","","","","","",""
"543.8999999761581","arrowleft","psychophysics","373","435354","0.0-3.0-0.182","","key","arrowleft","16.666000000001077","720","382","183","7","-1","30","35","25","35","true"
"null","null","psychophysics","374","436358","0.0-3.0-1.182","","key","null","16.66983050847489","720","382","","","","","","","",""
"587.7999999523163","arrowright","psychophysics","375","436950","0.0-3.0-0.183","","key","arrowright","16.666000000001596","720","382","184","7","1","27","35","25","35","true"
"null","null","psychophysics","376","437953","0.0-3.0-1.183","","key","null","16.665999999999904","720","382","","","","","","","",""
"647.1000000238419","arrowright","psychophysics","377","438604","0.0-3.0-0.184","","key","arrowright","16.66599999999897","720","382","185","7","1","26","15","25","35","true"
"null","null","psychophysics","378","439607","0.0-3.0-1.184","","key","null","16.665999999999904","720","382","","","","","","","",""
"824","arrowright","psychophysics","379","440435","0.0-3.0-0.185","","key","arrowright","16.665999999999222","720","382","186","7","1","30","35","25","35","true"
"null","null","psychophysics","380","441445","0.0-3.0-1.185","","key","null","16.665999999999904","720","382","","","","","","","",""
"737.2000000476837","arrowright","psychophysics","381","442188","0.0-3.0-0.186","","key","arrowright","16.666000000000086","720","382","187","7","-1","20","35","25","35","false"
"null","null","psychophysics","382","443192","0.0-3.0-1.186","","key","null","16.665999999999904","720","382","","","","","","","",""
"568.3000000715256","arrowleft","psychophysics","383","443767","0.0-3.0-0.187","","key","arrowleft","16.66599999999915","720","382","188","7","-1","27","35","25","35","true"
"null","null","psychophysics","384","444770","0.0-3.0-1.187","","key","null","16.665999999999904","720","382","","","","","","","",""
"744.3999999761581","arrowright","psychophysics","385","445518","0.0-3.0-0.188","","key","arrowright","16.666000000000086","720","382","189","7","1","27","35","25","35","true"
"null","null","psychophysics","386","446521","0.0-3.0-1.188","","key","null","16.670796610169326","720","382","","","","","","","",""
"620.3000000715256","arrowright","psychophysics","387","447155","0.0-3.0-0.189","","key","arrowright","16.66600000000137","720","382","190","7","1","30","35","25","35","true"
"null","null","psychophysics","388","448158","0.0-3.0-1.189","","key","null","16.665999999999904","720","382","","","","","","","",""
"552.7999999523163","arrowright","psychophysics","389","448718","0.0-3.0-0.190","","key","arrowright","16.666000000000086","720","382","191","7","1","30","35","25","35","true"
"null","null","psychophysics","390","449721","0.0-3.0-1.190","","key","null","16.665999999999904","720","382","","","","","","","",""
"628.1000000238419","arrowleft","psychophysics","391","450353","0.0-3.0-0.191","","key","arrowleft","16.665999999999798","720","382","192","7","-1","30","35","25","35","true"
"null","null","psychophysics","392","451355","0.0-3.0-1.191","","key","null","16.665999999999904","720","382","","","","","","","",""
"838.3999999761581","arrowright","psychophysics","393","452198","0.0-3.0-0.192","","key","arrowright","16.665999999999766","720","382","193","7","-1","26","35","25","35","false"
"null","null","psychophysics","394","453208","0.0-3.0-1.192","","key","null","16.665999999999904","720","382","","","","","","","",""
"706.5","arrowleft","psychophysics","395","453921","0.0-3.0-0.193","","key","arrowleft","16.665999999998824","720","382","194","7","-1","27","15","25","35","true"
"null","null","psychophysics","396","454926","0.0-3.0-1.193","","key","null","16.665999999999904","720","382","","","","","","","",""
"669.6999999284744","arrowright","psychophysics","397","455603","0.0-3.0-0.194","","key","arrowright","16.665999999998895","720","382","195","7","-1","26","35","25","35","false"
"null","null","psychophysics","398","456606","0.0-3.0-1.194","","key","null","16.665999999999904","720","382","","","","","","","",""
"672.6000000238419","arrowright","psychophysics","399","457282","0.0-3.0-0.195","","key","arrowright","16.66600000000035","720","382","196","8","1","25","35","25","35","true"
"null","null","psychophysics","400","458285","0.0-3.0-1.195","","key","null","16.666000000000892","720","382","","","","","","","",""
"1029.7999999523163","arrowleft","html-keyboard-response","401","459324","0.0-3.0-2.195-0.195","<div style=""color: white; text-align: center; vertical-align: top; display: inline-block; width: 800px; margin: auto""><p>You have completed 70% of the trials. You are on block 8 of 10. <br>Good job! Take a break if you need to.</p><p>Press any key to continue the experiment.</p></div>","","","","","","","","","","","","",""
"782.5999999046326","arrowright","psychophysics","402","461117","0.0-3.0-0.196","","key","arrowright","16.666000000000533","720","382","197","8","-1","23","35","25","35","false"
"null","null","psychophysics","403","462119","0.0-3.0-1.196","","key","null","16.665999999999904","720","382","","","","","","","",""
"803.8000000715256","arrowright","psychophysics","404","462926","0.0-3.0-0.197","","key","arrowright","16.666000000000533","720","382","198","8","1","25","15","25","35","true"
"null","null","psychophysics","405","463929","0.0-3.0-1.197","","key","null","16.66600000000035","720","382","","","","","","","",""
"892.8999999761581","arrowright","psychophysics","406","464825","0.0-3.0-0.198","","key","arrowright","16.665999999999677","720","382","199","8","1","23","15","25","35","true"
"null","null","psychophysics","407","465834","0.0-3.0-1.198","","key","null","16.675816666666652","720","382","","","","","","","",""
"548.6000000238419","arrowleft","psychophysics","408","466386","0.0-3.0-0.199","","key","arrowleft","16.665999999999258","720","382","200","8","1","20","35","25","35","false"
"null","null","psychophysics","409","467388","0.0-3.0-1.199","","key","null","16.665999999999904","720","382","","","","","","","",""
"933.3999999761581","arrowleft","psychophysics","410","468325","0.0-3.0-0.200","","key","arrowleft","16.666000000000086","720","382","201","8","-1","24","35","25","35","true"
"null","null","psychophysics","411","469327","0.0-3.0-1.200","","key","null","16.665999999999904","720","382","","","","","","","",""
"572.5","arrowleft","psychophysics","412","469906","0.0-3.0-0.201","","key","arrowleft","16.66599999999915","720","382","202","8","1","20","35","25","35","false"
"null","null","psychophysics","413","470908","0.0-3.0-1.201","","key","null","16.665999999999904","720","382","","","","","","","",""
"567.5","arrowleft","psychophysics","414","471490","0.0-3.0-0.202","","key","arrowleft","16.666000000000864","720","382","203","8","1","20","35","25","35","false"
"null","null","psychophysics","415","472491","0.0-3.0-1.202","","key","null","16.665999999999904","720","382","","","","","","","",""
"931.3000000715256","arrowright","psychophysics","416","473429","0.0-3.0-0.203","","key","arrowright","16.665999999999517","720","382","204","8","1","20","15","25","35","true"
"null","null","psychophysics","417","474431","0.0-3.0-1.203","","key","null","16.665999999999904","720","382","","","","","","","",""
"768","arrowright","psychophysics","418","475203","0.0-3.0-0.204","","key","arrowright","16.66599999999938","720","382","205","8","1","26","35","25","35","true"
"null","null","psychophysics","419","476206","0.0-3.0-1.204","","key","null","16.669779661016822","720","382","","","","","","","",""
"624.9000000953674","arrowright","psychophysics","420","476836","0.0-3.0-0.205","","key","arrowright","16.665999999999798","720","382","206","8","1","27","35","25","35","true"
"null","null","psychophysics","421","477839","0.0-3.0-1.205","","key","null","16.665999999999904","720","382","","","","","","","",""
"532.6000000238419","arrowleft","psychophysics","422","478385","0.0-3.0-0.206","","key","arrowleft","16.665999999999258","720","382","207","8","-1","30","35","25","35","true"
"null","null","psychophysics","423","479388","0.0-3.0-1.206","","key","null","16.665999999999904","720","382","","","","","","","",""
"573.8000000715256","arrowleft","psychophysics","424","479975","0.0-3.0-0.207","","key","arrowleft","16.666000000000864","720","382","208","8","1","23","35","25","35","false"
"null","null","psychophysics","425","480977","0.0-3.0-1.207","","key","null","16.665999999999904","720","382","","","","","","","",""
"598.0999999046326","arrowright","psychophysics","426","481582","0.0-3.0-0.208","","key","arrowright","16.665999999999055","720","382","209","8","1","25","35","25","35","true"
"null","null","psychophysics","427","482584","0.0-3.0-1.208","","key","null","16.665999999999904","720","382","","","","","","","",""
"819.3999999761581","arrowright","psychophysics","428","483406","0.0-3.0-0.209","","key","arrowright","16.665999999999865","720","382","210","8","-1","25","35","25","35","false"
"null","null","psychophysics","429","484410","0.0-3.0-1.209","","key","null","16.665999999999904","720","382","","","","","","","",""
"1226.8999999761581","arrowleft","psychophysics","430","485651","0.0-3.0-0.210","","key","arrowleft","16.665999999999798","720","382","211","8","-1","23","15","25","35","true"
"null","null","psychophysics","431","486654","0.0-3.0-1.210","","key","null","16.670389830507734","720","382","","","","","","","",""
"1577","arrowright","psychophysics","432","488235","0.0-3.0-0.211","","key","arrowright","16.665999999999915","720","382","212","8","-1","20","15","25","35","false"
"null","null","psychophysics","433","489237","0.0-3.0-1.211","","key","null","16.665999999999904","720","382","","","","","","","",""
"1107.6000000238419","arrowleft","psychophysics","434","490349","0.0-3.0-0.212","","key","arrowleft","16.666000000000086","720","382","213","8","-1","24","15","25","35","true"
"null","null","psychophysics","435","491351","0.0-3.0-1.212","","key","null","16.665999999999904","720","382","","","","","","","",""
"802.6000000238419","arrowleft","psychophysics","436","492158","0.0-3.0-0.213","","key","arrowleft","16.666000000000533","720","382","214","8","-1","26","15","25","35","true"
"null","null","psychophysics","437","493160","0.0-3.0-1.213","","key","null","16.665999999999904","720","382","","","","","","","",""
"669.5999999046326","arrowright","psychophysics","438","493843","0.0-3.0-0.214","","key","arrowright","16.66600000000035","720","382","215","8","-1","20","15","25","35","false"
"null","null","psychophysics","439","494845","0.0-3.0-1.214","","key","null","16.66599999999938","720","382","","","","","","","",""
"704","arrowright","psychophysics","440","495553","0.0-3.0-0.215","","key","arrowright","16.665999999999567","720","382","216","8","-1","23","35","25","35","false"
"null","null","psychophysics","441","496556","0.0-3.0-1.215","","key","null","16.670762711863617","720","382","","","","","","","",""
"944.4000000953674","arrowright","psychophysics","442","497505","0.0-3.0-0.216","","key","arrowright","16.665999999999517","720","382","217","8","-1","23","15","25","35","false"
"null","null","psychophysics","443","498509","0.0-3.0-1.216","","key","null","16.665999999999904","720","382","","","","","","","",""
"617.9000000953674","arrowleft","psychophysics","444","499133","0.0-3.0-0.217","","key","arrowleft","16.665999999999798","720","382","218","8","-1","30","35","25","35","true"
"null","null","psychophysics","445","500143","0.0-3.0-1.217","","key","null","16.665999999999904","720","382","","","","","","","",""
"637.6000000238419","arrowright","psychophysics","446","500787","0.0-3.0-0.218","","key","arrowright","16.6660000000005","720","382","219","8","-1","20","35","25","35","false"
"null","null","psychophysics","447","501789","0.0-3.0-1.218","","key","null","16.665999999999904","720","382","","","","","","","",""
"771.6999999284744","arrowleft","psychophysics","448","502565","0.0-3.0-0.219","","key","arrowleft","16.66599999999997","720","382","220","8","-1","20","15","25","35","true"
"null","null","psychophysics","449","503567","0.0-3.0-1.219","","key","null","16.665999999999904","720","382","","","","","","","",""
"762.6000000238419","arrowright","psychophysics","450","504333","0.0-3.0-0.220","","key","arrowright","16.66599999999938","720","382","221","8","-1","23","15","25","35","false"
"null","null","psychophysics","451","505336","0.0-3.0-1.220","","key","null","16.665999999999904","720","382","","","","","","","",""
"1148.3999999761581","arrowleft","psychophysics","452","506500","0.0-3.0-0.221","","key","arrowleft","16.668884057970885","720","382","222","8","1","20","15","25","35","false"
"null","null","psychophysics","453","507502","0.0-3.0-1.221","","key","null","16.665999999999904","720","382","","","","","","","",""
"846.1999999284744","arrowright","psychophysics","454","508352","0.0-3.0-0.222","","key","arrowright","16.665999999999766","720","382","223","8","-1","27","35","25","35","false"
"null","null","psychophysics","455","509359","0.0-3.0-1.222","","key","null","16.665999999999904","720","382","","","","","","","",""
"752.6000000238419","arrowleft","psychophysics","456","510117","0.0-3.0-0.223","","key","arrowleft","16.666000000000672","720","382","224","9","-1","26","35","25","35","true"
"null","null","psychophysics","457","511120","0.0-3.0-1.223","","key","null","16.665999999999904","720","382","","","","","","","",""
"6871.300000071526","arrowleft","html-keyboard-response","458","517993","0.0-3.0-2.223-0.223","<div style=""color: white; text-align: center; vertical-align: top; display: inline-block; width: 800px; margin: auto""><p>You have completed 80% of the trials. You are on block 9 of 10. <br>Good job! Take a break if you need to.</p><p>Press any key to continue the experiment.</p></div>","","","","","","","","","","","","",""
"615","arrowright","psychophysics","459","519626","0.0-3.0-0.224","","key","arrowright","16.67708108108019","720","382","225","9","1","26","35","25","35","true"
"null","null","psychophysics","460","520627","0.0-3.0-1.224","","key","null","16.665999999999904","720","382","","","","","","","",""
"536.2999999523163","arrowright","psychophysics","461","521170","0.0-3.0-0.225","","key","arrowright","16.666000000001077","720","382","226","9","1","30","35","25","35","true"
"null","null","psychophysics","462","522173","0.0-3.0-1.225","","key","null","16.666000000000892","720","382","","","","","","","",""
"582.7999999523163","arrowleft","psychophysics","463","522763","0.0-3.0-0.226","","key","arrowleft","16.666000000001596","720","382","227","9","-1","27","15","25","35","true"
"null","null","psychophysics","464","523765","0.0-3.0-1.226","","key","null","16.665999999999904","720","382","","","","","","","",""
"782.2999999523163","arrowleft","psychophysics","465","524551","0.0-3.0-0.227","","key","arrowleft","16.666000000001237","720","382","228","9","-1","27","35","25","35","true"
"null","null","psychophysics","466","525554","0.0-3.0-1.227","","key","null","16.665999999999904","720","382","","","","","","","",""
"723.8999999761581","arrowright","psychophysics","467","526282","0.0-3.0-0.228","","key","arrowright","16.666000000000825","720","382","229","9","1","24","15","25","35","true"
"null","null","psychophysics","468","527283","0.0-3.0-1.228","","key","null","16.665999999999904","720","382","","","","","","","",""
"573.3000000715256","arrowleft","psychophysics","469","527861","0.0-3.0-0.229","","key","arrowleft","16.66599999999915","720","382","230","9","1","23","35","25","35","false"
"null","null","psychophysics","470","528863","0.0-3.0-1.229","","key","null","16.68959322033876","720","382","","","","","","","",""
"662.8999999761581","arrowright","psychophysics","471","529537","0.0-3.0-0.230","","key","arrowright","16.66600000000117","720","382","231","9","-1","23","35","25","35","false"
"null","null","psychophysics","472","530540","0.0-3.0-1.230","","key","null","16.665999999999904","720","382","","","","","","","",""
"1289.6000000238419","arrowleft","psychophysics","473","531834","0.0-3.0-0.231","","key","arrowleft","16.666000000000086","720","382","232","9","1","23","15","25","35","false"
"null","null","psychophysics","474","532836","0.0-3.0-1.231","","key","null","16.665999999999904","720","382","","","","","","","",""
"809.1999999284744","arrowleft","psychophysics","475","533649","0.0-3.0-0.232","","key","arrowleft","16.665999999999865","720","382","233","9","1","24","35","25","35","false"
"null","null","psychophysics","476","534651","0.0-3.0-1.232","","key","null","16.665999999999904","720","382","","","","","","","",""
"627","arrowright","psychophysics","477","535282","0.0-3.0-0.233","","key","arrowright","16.665999999999798","720","382","234","9","-1","25","35","25","35","false"
"null","null","psychophysics","478","536285","0.0-3.0-1.233","","key","null","16.665999999999904","720","382","","","","","","","",""
"576.3999999761581","arrowleft","psychophysics","479","536876","0.0-3.0-0.234","","key","arrowleft","16.666000000002576","720","382","235","9","1","20","15","25","35","false"
"null","null","psychophysics","480","537878","0.0-3.0-1.234","","key","null","16.665999999999904","720","382","","","","","","","",""
"813.9000000953674","arrowleft","psychophysics","481","538698","0.0-3.0-0.235","","key","arrowleft","16.525979591837647","720","382","236","9","1","24","35","25","35","false"
"null","null","psychophysics","482","539700","0.0-3.0-1.235","","key","null","16.665999999999904","720","382","","","","","","","",""
"3146.100000023842","arrowleft","psychophysics","483","542850","0.0-3.0-0.236","","key","arrowleft","16.665999999999915","720","382","237","9","1","25","35","25","35","false"
"null","null","psychophysics","484","543859","0.0-3.0-1.236","","key","null","16.66599999999938","720","382","","","","","","","",""
"1194.7000000476837","arrowleft","psychophysics","485","545057","0.0-3.0-0.237","","key","arrowleft","16.66599999999949","720","382","238","9","1","25","35","25","35","false"
"null","null","psychophysics","486","546059","0.0-3.0-1.237","","key","null","16.665999999999904","720","382","","","","","","","",""
"596.3999999761581","arrowright","psychophysics","487","546659","0.0-3.0-0.238","","key","arrowright","16.666000000001596","720","382","239","9","1","30","15","25","35","true"
"null","null","psychophysics","488","547661","0.0-3.0-1.238","","key","null","16.665999999999904","720","382","","","","","","","",""
"817.7000000476837","arrowright","psychophysics","489","548482","0.0-3.0-0.239","","key","arrowright","16.66570833333147","720","382","240","9","1","27","35","25","35","true"
"null","null","psychophysics","490","549486","0.0-3.0-1.239","","key","null","16.665999999999904","720","382","","","","","","","",""
"5558.899999976158","arrowleft","psychophysics","491","555059","0.0-3.0-0.240","","key","arrowleft","16.666000000000054","720","382","241","9","1","25","35","25","35","false"
"null","null","psychophysics","492","556061","0.0-3.0-1.240","","key","null","16.665999999999904","720","382","","","","","","","",""
"1248.1000000238419","arrowright","psychophysics","493","557324","0.0-3.0-0.241","","key","arrowright","16.66600000000093","720","382","242","9","-1","20","15","25","35","false"
"null","null","psychophysics","494","558326","0.0-3.0-1.241","","key","null","16.669677966102658","720","382","","","","","","","",""
"1120.5","arrowleft","psychophysics","495","559450","0.0-3.0-0.242","","key","arrowleft","16.666000000000086","720","382","243","9","-1","25","15","25","35","true"
"null","null","psychophysics","496","560452","0.0-3.0-1.242","","key","null","16.665999999999904","720","382","","","","","","","",""
"750.8000000715256","arrowleft","psychophysics","497","561209","0.0-3.0-0.243","","key","arrowleft","16.666000000001965","720","382","244","9","-1","26","15","25","35","true"
"null","null","psychophysics","498","562211","0.0-3.0-1.243","","key","null","16.665999999999904","720","382","","","","","","","",""
"684.3999999761581","arrowright","psychophysics","499","562912","0.0-3.0-0.244","","key","arrowright","16.665999999999567","720","382","245","9","-1","26","35","25","35","false"
"null","null","psychophysics","500","563915","0.0-3.0-1.244","","key","null","16.665999999999904","720","382","","","","","","","",""
"587.2999999523163","arrowleft","psychophysics","501","564507","0.0-3.0-0.245","","key","arrowleft","16.66599999999827","720","382","246","9","1","24","35","25","35","false"
"null","null","psychophysics","502","565510","0.0-3.0-1.245","","key","null","16.665999999999904","720","382","","","","","","","",""
"691.1000000238419","arrowright","psychophysics","503","566204","0.0-3.0-0.246","","key","arrowright","16.665999999999567","720","382","247","9","-1","26","35","25","35","false"
"null","null","psychophysics","504","567206","0.0-3.0-1.246","","key","null","16.66600000000188","720","382","","","","","","","",""
"732.1000000238419","arrowleft","psychophysics","505","567941","0.0-3.0-0.247","","key","arrowleft","16.665999999998117","720","382","248","9","1","27","35","25","35","false"
"null","null","psychophysics","506","568943","0.0-3.0-1.247","","key","null","16.677271186439242","720","382","","","","","","","",""
"1387.2999999523163","arrowleft","psychophysics","507","570349","0.0-3.0-0.248","","key","arrowleft","16.66599999999919","720","382","249","9","-1","27","35","25","35","true"
"null","null","psychophysics","508","571352","0.0-3.0-1.248","","key","null","16.665999999999904","720","382","","","","","","","",""
"1290.1999999284744","arrowleft","psychophysics","509","572649","0.0-3.0-0.249","","key","arrowleft","16.666000000000086","720","382","250","9","-1","27","35","25","35","true"
"null","null","psychophysics","510","573652","0.0-3.0-1.249","","key","null","16.665999999999904","720","382","","","","","","","",""
"778.8000000715256","arrowright","psychophysics","511","574443","0.0-3.0-0.250","","key","arrowright","16.666000000000533","720","382","251","9","1","27","35","25","35","true"
"null","null","psychophysics","512","575445","0.0-3.0-1.250","","key","null","16.665999999999904","720","382","","","","","","","",""
"1468.1000000238419","arrowleft","psychophysics","513","576928","0.0-3.0-0.251","","key","arrowleft","16.666000000000086","720","382","252","10","1","20","15","25","35","false"
"null","null","psychophysics","514","577931","0.0-3.0-1.251","","key","null","16.665999999999904","720","382","","","","","","","",""
"4474.799999952316","arrowleft","html-keyboard-response","515","582408","0.0-3.0-2.251-0.251","<div style=""color: white; text-align: center; vertical-align: top; display: inline-block; width: 800px; margin: auto""><p>You have completed 90% of the trials. You are on block 10 of 10. <br>Good job! Take a break if you need to.</p><p>Press any key to continue the experiment.</p></div>","","","","","","","","","","","","",""
"728.5","arrowleft","psychophysics","516","584153","0.0-3.0-0.252","","key","arrowleft","16.66786363636228","720","382","253","10","-1","25","35","25","35","true"
"null","null","psychophysics","517","585161","0.0-3.0-1.252","","key","null","16.665999999999904","720","382","","","","","","","",""
"581","arrowright","psychophysics","518","585745","0.0-3.0-0.253","","key","arrowright","16.66599999999915","720","382","254","10","1","30","15","25","35","true"
"null","null","psychophysics","519","586747","0.0-3.0-1.253","","key","null","16.66600000000188","720","382","","","","","","","",""
"735.3999999761581","arrowright","psychophysics","520","587486","0.0-3.0-0.254","","key","arrowright","16.665999999998117","720","382","255","10","1","25","35","25","35","true"
"null","null","psychophysics","521","588487","0.0-3.0-1.254","","key","null","16.66599999999938","720","382","","","","","","","",""
"806.5","arrowright","psychophysics","522","589304","0.0-3.0-0.255","","key","arrowright","16.665999999999865","720","382","256","10","1","23","15","25","35","true"
"null","null","psychophysics","523","590307","0.0-3.0-1.255","","key","null","16.665999999999904","720","382","","","","","","","",""
"2044.0999999046326","arrowleft","psychophysics","524","592354","0.0-3.0-0.256","","key","arrowleft","16.665999999999823","720","382","257","10","-1","25","35","25","35","true"
"null","null","psychophysics","525","593357","0.0-3.0-1.256","","key","null","16.609152542373906","720","382","","","","","","","",""
"632","arrowright","psychophysics","526","593993","0.0-3.0-0.257","","key","arrowright","16.665999999999798","720","382","258","10","-1","20","35","25","35","false"
"null","null","psychophysics","527","594995","0.0-3.0-1.257","","key","null","16.665999999999904","720","382","","","","","","","",""
"781.5999999046326","arrowright","psychophysics","528","595790","0.0-3.0-0.258","","key","arrowright","16.666000000000533","720","382","259","10","1","24","15","25","35","true"
"null","null","psychophysics","529","596793","0.0-3.0-1.258","","key","null","16.665999999999904","720","382","","","","","","","",""
"740.1000000238419","arrowleft","psychophysics","530","597537","0.0-3.0-0.259","","key","arrowleft","16.666000000000086","720","382","260","10","-1","23","35","25","35","true"
"null","null","psychophysics","531","598541","0.0-3.0-1.259","","key","null","16.66600000000188","720","382","","","","","","","",""
"662.8000000715256","arrowright","psychophysics","532","599208","0.0-3.0-0.260","","key","arrowright","16.665999999998185","720","382","261","10","-1","20","35","25","35","false"
"null","null","psychophysics","533","600211","0.0-3.0-1.260","","key","null","16.665999999999904","720","382","","","","","","","",""
"837.5","arrowleft","psychophysics","534","601055","0.0-3.0-0.261","","key","arrowleft","16.66600000000093","720","382","262","10","-1","26","15","25","35","true"
"null","null","psychophysics","535","602064","0.0-3.0-1.261","","key","null","16.665999999999904","720","382","","","","","","","",""
"938.2000000476837","arrowright","psychophysics","536","603008","0.0-3.0-0.262","","key","arrowright","16.6198749999998","720","382","263","10","1","25","15","25","35","true"
"null","null","psychophysics","537","604011","0.0-3.0-1.262","","key","null","16.665999999999904","720","382","","","","","","","",""
"759.2999999523163","arrowleft","psychophysics","538","604777","0.0-3.0-0.263","","key","arrowleft","16.66599999999938","720","382","264","10","-1","20","15","25","35","true"
"null","null","psychophysics","539","605779","0.0-3.0-1.263","","key","null","16.665999999999904","720","382","","","","","","","",""
"4136.299999952316","arrowright","psychophysics","540","609920","0.0-3.0-0.264","","key","arrowright","16.665999999999787","720","382","265","10","-1","24","35","25","35","false"
"null","null","psychophysics","541","610930","0.0-3.0-1.264","","key","null","16.66600000000132","720","382","","","","","","","",""
"1969.8000000715256","arrowleft","psychophysics","542","612904","0.0-3.0-0.265","","key","arrowleft","16.66752991453012","720","382","266","10","1","23","35","25","35","false"
"null","null","psychophysics","543","613907","0.0-3.0-1.265","","key","null","16.665999999999904","720","382","","","","","","","",""
"3067.8000000715256","arrowright","psychophysics","544","616979","0.0-3.0-0.266","","key","arrowright","16.66599999999997","720","382","267","10","-1","24","35","25","35","false"
"null","null","psychophysics","545","617993","0.0-3.0-1.266","","key","null","16.665999999999904","720","382","","","","","","","",""
"1858.8999999761581","arrowright","psychophysics","546","619858","0.0-3.0-0.267","","key","arrowright","16.665999999999798","720","382","268","10","-1","27","35","25","35","false"
"null","null","psychophysics","547","620862","0.0-3.0-1.267","","key","null","16.66599999999938","720","382","","","","","","","",""
"942.6000000238419","arrowleft","psychophysics","548","621808","0.0-3.0-0.268","","key","arrowleft","16.666000000000086","720","382","269","10","-1","27","15","25","35","true"
"null","null","psychophysics","549","622811","0.0-3.0-1.268","","key","null","16.67562711864544","720","382","","","","","","","",""
"990.1999999284744","arrowleft","psychophysics","550","623816","0.0-3.0-0.269","","key","arrowleft","16.66599999999938","720","382","270","10","-1","25","15","25","35","true"
"null","null","psychophysics","551","624818","0.0-3.0-1.269","","key","null","16.665999999999904","720","382","","","","","","","",""
"961.7999999523163","arrowright","psychophysics","552","625784","0.0-3.0-0.270","","key","arrowright","16.66599999999897","720","382","271","10","1","26","35","25","35","true"
"null","null","psychophysics","553","626786","0.0-3.0-1.270","","key","null","16.665999999999904","720","382","","","","","","","",""
"761.7999999523163","arrowleft","psychophysics","554","627552","0.0-3.0-0.271","","key","arrowleft","16.66599999999938","720","382","272","10","-1","30","35","25","35","true"
"null","null","psychophysics","555","628554","0.0-3.0-1.271","","key","null","16.665999999999904","720","382","","","","","","","",""
"902.5","arrowleft","psychophysics","556","629460","0.0-3.0-0.272","","key","arrowleft","16.665999999999087","720","382","273","10","-1","24","15","25","35","true"
"null","null","psychophysics","557","630469","0.0-3.0-1.272","","key","null","16.66600000000132","720","382","","","","","","","",""
"1119.6999999284744","arrowleft","psychophysics","558","631592","0.0-3.0-0.273","","key","arrowleft","16.666000000000086","720","382","274","10","-1","30","35","25","35","true"
"null","null","psychophysics","559","632594","0.0-3.0-1.273","","key","null","16.665999999999904","720","382","","","","","","","",""
"608.2000000476837","arrowright","psychophysics","560","633208","0.0-3.0-0.274","","key","arrowright","16.673027777775943","720","382","275","10","1","27","15","25","35","true"
"null","null","psychophysics","561","634210","0.0-3.0-1.274","","key","null","16.665999999999904","720","382","","","","","","","",""
"667.0999999046326","arrowright","psychophysics","562","634888","0.0-3.0-0.275","","key","arrowright","16.66600000000035","720","382","276","10","-1","20","35","25","35","false"
"null","null","psychophysics","563","635891","0.0-3.0-1.275","","key","null","16.665999999999904","720","382","","","","","","","",""
"608.2999999523163","arrowleft","psychophysics","564","636516","0.0-3.0-0.276","","key","arrowleft","16.665999999999798","720","382","277","10","-1","24","15","25","35","true"
"null","null","psychophysics","565","637518","0.0-3.0-1.276","","key","null","16.665999999999904","720","382","","","","","","","",""
"727.7000000476837","arrowright","psychophysics","566","638250","0.0-3.0-0.277","","key","arrowright","16.666000000000825","720","382","278","10","1","26","35","25","35","true"
"null","null","psychophysics","567","639253","0.0-3.0-1.277","","key","null","16.665999999999904","720","382","","","","","","","",""
"583.1000000238419","arrowleft","psychophysics","568","639840","0.0-3.0-0.278","","key","arrowleft","16.66599999999915","720","382","279","10","-1","30","15","25","35","true"
"null","null","psychophysics","569","640843","0.0-3.0-1.278","","key","null","16.665999999999904","720","382","","","","","","","",""
"668.5","arrowright","psychophysics","570","641519","0.0-3.0-0.279","","key","arrowright","16.66600000000035","720","382","280","11","1","25","15","25","35","true"
"null","null","psychophysics","571","642522","0.0-3.0-1.279","","key","null","16.665999999999904","720","382","","","","","","","",""
