rt,response,trial_type,trial_index,time_elapsed,internal_node_id,stimulus,response_type,key_press,avg_frame_time,center_x,center_y,trial,block,test_pos,test_inner_radius,test_outer_radius,ref_inner_radius,ref_outer_radius,test_bigger
21753.9,"{""p_id"":""1313"",""age"":""19"",""handedness"":""right"",""sex"":""female"",""other_sex"":""""}",survey-html-form,0,21760,0.0-0.0,,,,,,,,,,,,,,
30110.3, ,html-keyboard-response,1,51876,0.0-1.0,"<p style=""color: white"">Welcome to the Size Judgment Experiment. <br>There will be 10 blocks in this experiment. <br>There will be 28 trials in each block. <br>You will be given a chance to take a break between blocks. <br>Press any key to start the experiment.</p>",,,,,,,,,,,,,
36927.9, ,psychophysics,2,88838,0.0-2.0,,key, ,16.67583935,720,410.5,,,,,,,,
810.5,arrowright,psychophysics,3,89665,0.0-3.0-0.0,,key,arrowright,16.667,720,410.5,1,1,-1,23,15,25,35,FALSE
null,null,psychophysics,4,90669,0.0-3.0-1.0,,key,null,16.667,720,410.5,,,,,,,,
427.3,arrowright,psychophysics,5,91105,0.0-3.0-0.1,,key,arrowright,16.667,720,410.5,2,1,-1,24,15,25,35,FALSE
null,null,psychophysics,6,92106,0.0-3.0-1.1,,key,null,16.667,720,410.5,,,,,,,,
309.5,arrowright,psychophysics,7,92419,0.0-3.0-0.2,,key,arrowright,16.667,720,410.5,3,1,-1,20,35,25,35,FALSE
null,null,psychophysics,8,93421,0.0-3.0-1.2,,key,null,16.667,720,410.5,,,,,,,,
622.1,arrowright,psychophysics,9,94051,0.0-3.0-0.3,,key,arrowright,16.667,720,410.5,4,1,1,30,15,25,35,TRUE
null,null,psychophysics,10,95054,0.0-3.0-1.3,,key,null,16.667,720,410.5,,,,,,,,
1124.2,arrowleft,psychophysics,11,96194,0.0-3.0-0.4,,key,arrowleft,17.98977778,720,410.5,5,1,-1,24,35,25,35,TRUE
null,null,psychophysics,12,97197,0.0-3.0-1.4,,key,null,16.667,720,410.5,,,,,,,,
3191.5,arrowleft,psychophysics,13,100392,0.0-3.0-0.5,,key,arrowleft,16.667,720,410.5,6,1,1,24,15,25,35,FALSE
null,null,psychophysics,14,101396,0.0-3.0-1.5,,key,null,16.667,720,410.5,,,,,,,,
2413.3,arrowright,psychophysics,15,103814,0.0-3.0-0.6,,key,arrowright,16.67030556,720,410.5,7,1,1,26,35,25,35,TRUE
null,null,psychophysics,16,104817,0.0-3.0-1.6,,key,null,16.667,720,410.5,,,,,,,,
2685.2,arrowleft,psychophysics,17,107508,0.0-3.0-0.7,,key,arrowleft,16.667,720,410.5,8,1,-1,26,15,25,35,TRUE
null,null,psychophysics,18,108512,0.0-3.0-1.7,,key,null,16.667,720,410.5,,,,,,,,
1182.7,arrowleft,psychophysics,19,109698,0.0-3.0-0.8,,key,arrowleft,16.667,720,410.5,9,1,-1,26,15,25,35,TRUE
null,null,psychophysics,20,110701,0.0-3.0-1.8,,key,null,16.667,720,410.5,,,,,,,,
1263.2,arrowleft,psychophysics,21,111970,0.0-3.0-0.9,,key,arrowleft,16.667,720,410.5,10,1,1,23,35,25,35,FALSE
null,null,psychophysics,22,112973,0.0-3.0-1.9,,key,null,16.67508475,720,410.5,,,,,,,,
799.7,arrowright,psychophysics,23,113782,0.0-3.0-0.10,,key,arrowright,16.667,720,410.5,11,1,1,27,35,25,35,TRUE
null,null,psychophysics,24,114785,0.0-3.0-1.10,,key,null,16.667,720,410.5,,,,,,,,
1116.8,arrowright,psychophysics,25,115907,0.0-3.0-0.11,,key,arrowright,16.667,720,410.5,12,1,1,25,15,25,35,TRUE
null,null,psychophysics,26,116910,0.0-3.0-1.11,,key,null,16.667,720,410.5,,,,,,,,
1798.5,arrowleft,psychophysics,27,118712,0.0-3.0-0.12,,key,arrowleft,16.667,720,410.5,13,1,-1,25,15,25,35,TRUE
null,null,psychophysics,28,119717,0.0-3.0-1.12,,key,null,16.667,720,410.5,,,,,,,,
1421.1,arrowleft,psychophysics,29,121143,0.0-3.0-0.13,,key,arrowleft,16.667,720,410.5,14,1,1,20,15,25,35,FALSE
null,null,psychophysics,30,122146,0.0-3.0-1.13,,key,null,16.667,720,410.5,,,,,,,,
1080.8,arrowleft,psychophysics,31,123231,0.0-3.0-0.14,,key,arrowleft,16.6744375,720,410.5,15,1,-1,27,35,25,35,TRUE
null,null,psychophysics,32,124233,0.0-3.0-1.14,,key,null,16.667,720,410.5,,,,,,,,
528.6,arrowright,psychophysics,33,124770,0.0-3.0-0.15,,key,arrowright,16.667,720,410.5,16,1,-1,26,15,25,35,FALSE
null,null,psychophysics,34,125773,0.0-3.0-1.15,,key,null,16.667,720,410.5,,,,,,,,
618.8,arrowright,psychophysics,35,126399,0.0-3.0-0.16,,key,arrowright,16.667,720,410.5,17,1,-1,20,35,25,35,FALSE
null,null,psychophysics,36,127402,0.0-3.0-1.16,,key,null,16.667,720,410.5,,,,,,,,
1655.6,arrowright,psychophysics,37,129063,0.0-3.0-0.17,,key,arrowright,16.667,720,410.5,18,1,-1,23,15,25,35,FALSE
null,null,psychophysics,38,130066,0.0-3.0-1.17,,key,null,16.667,720,410.5,,,,,,,,
1159.2,arrowright,psychophysics,39,131233,0.0-3.0-0.18,,key,arrowright,16.667,720,410.5,19,1,-1,20,15,25,35,FALSE
null,null,psychophysics,40,132236,0.0-3.0-1.18,,key,null,16.667,720,410.5,,,,,,,,
892.4,arrowright,psychophysics,41,133134,0.0-3.0-0.19,,key,arrowright,16.67598113,720,410.5,20,1,1,27,15,25,35,TRUE
null,null,psychophysics,42,134136,0.0-3.0-1.19,,key,null,16.667,720,410.5,,,,,,,,
1062.4,arrowleft,psychophysics,43,135203,0.0-3.0-0.20,,key,arrowleft,16.667,720,410.5,21,1,-1,26,15,25,35,TRUE
null,null,psychophysics,44,136206,0.0-3.0-1.20,,key,null,16.667,720,410.5,,,,,,,,
1188.4,arrowright,psychophysics,45,137401,0.0-3.0-0.21,,key,arrowright,16.667,720,410.5,22,1,1,27,15,25,35,TRUE
null,null,psychophysics,46,138404,0.0-3.0-1.21,,key,null,16.667,720,410.5,,,,,,,,
808.4,arrowleft,psychophysics,47,139217,0.0-3.0-0.22,,key,arrowleft,16.667,720,410.5,23,1,-1,25,35,25,35,TRUE
null,null,psychophysics,48,140220,0.0-3.0-1.22,,key,null,16.667,720,410.5,,,,,,,,
594.8,arrowleft,psychophysics,49,140819,0.0-3.0-0.23,,key,arrowleft,16.667,720,410.5,24,1,-1,27,35,25,35,TRUE
null,null,psychophysics,50,141823,0.0-3.0-1.23,,key,null,16.667,720,410.5,,,,,,,,
788.3,arrowright,psychophysics,51,142621,0.0-3.0-0.24,,key,arrowright,16.67712766,720,410.5,25,1,1,30,35,25,35,TRUE
null,null,psychophysics,52,143626,0.0-3.0-1.24,,key,null,16.667,720,410.5,,,,,,,,
913.4,arrowright,psychophysics,53,144547,0.0-3.0-0.25,,key,arrowright,16.667,720,410.5,26,1,1,23,15,25,35,TRUE
null,null,psychophysics,54,145551,0.0-3.0-1.25,,key,null,16.667,720,410.5,,,,,,,,
856.8,arrowright,psychophysics,55,146412,0.0-3.0-0.26,,key,arrowright,16.667,720,410.5,27,1,-1,25,35,25,35,FALSE
null,null,psychophysics,56,147415,0.0-3.0-1.26,,key,null,16.667,720,410.5,,,,,,,,
804,arrowright,psychophysics,57,148226,0.0-3.0-0.27,,key,arrowright,16.667,720,410.5,28,2,-1,20,35,25,35,FALSE
null,null,psychophysics,58,149228,0.0-3.0-1.27,,key,null,16.667,720,410.5,,,,,,,,
3832.4,arrowleft,html-keyboard-response,59,153063,0.0-3.0-2.27-0.27,"<div style=""color: white; text-align: center; vertical-align: top; display: inline-block; width: 800px; margin: auto""><p>You have completed 10% of the trials. You are on block 2 of 10. <br>Good job! Take a break if you need to.</p><p>Press any key to continue the experiment.</p></div>",,,,,,,,,,,,,
1323.1,arrowright,psychophysics,60,155398,0.0-3.0-0.28,,key,arrowright,16.673425,720,410.5,29,2,-1,24,35,25,35,FALSE
null,null,psychophysics,61,156401,0.0-3.0-1.28,,key,null,19.66706,720,410.5,,,,,,,,
886,arrowleft,psychophysics,62,157291,0.0-3.0-0.29,,key,arrowleft,16.667,720,410.5,30,2,1,20,35,25,35,FALSE
null,null,psychophysics,63,158293,0.0-3.0-1.29,,key,null,16.667,720,410.5,,,,,,,,
724.2,arrowleft,psychophysics,64,159028,0.0-3.0-0.30,,key,arrowleft,17.88653659,720,410.5,31,2,-1,24,15,25,35,TRUE
null,null,psychophysics,65,160033,0.0-3.0-1.30,,key,null,16.667,720,410.5,,,,,,,,
730.4,arrowright,psychophysics,66,160766,0.0-3.0-0.31,,key,arrowright,16.667,720,410.5,32,2,-1,20,35,25,35,FALSE
null,null,psychophysics,67,161769,0.0-3.0-1.31,,key,null,16.667,720,410.5,,,,,,,,
959.8,arrowleft,psychophysics,68,162732,0.0-3.0-0.32,,key,arrowleft,16.667,720,410.5,33,2,-1,26,35,25,35,TRUE
null,null,psychophysics,69,163735,0.0-3.0-1.32,,key,null,16.96256897,720,410.5,,,,,,,,
1131.4,arrowright,psychophysics,70,164870,0.0-3.0-0.33,,key,arrowright,16.9195303,720,410.5,34,2,-1,26,35,25,35,FALSE
null,null,psychophysics,71,165876,0.0-3.0-1.33,,key,null,16.667,720,410.5,,,,,,,,
537.8,arrowleft,psychophysics,72,166421,0.0-3.0-0.34,,key,arrowleft,16.667,720,410.5,35,2,1,25,35,25,35,FALSE
null,null,psychophysics,73,167425,0.0-3.0-1.34,,key,null,16.667,720,410.5,,,,,,,,
664.3,arrowleft,psychophysics,74,168102,0.0-3.0-0.35,,key,arrowleft,16.667,720,410.5,36,2,1,20,35,25,35,FALSE
null,null,psychophysics,75,169104,0.0-3.0-1.35,,key,null,16.667,720,410.5,,,,,,,,
570.4,arrowleft,psychophysics,76,169680,0.0-3.0-0.36,,key,arrowleft,16.667,720,410.5,37,2,-1,30,35,25,35,TRUE
null,null,psychophysics,77,170683,0.0-3.0-1.36,,key,null,16.667,720,410.5,,,,,,,,
601.9,arrowleft,psychophysics,78,171290,0.0-3.0-0.37,,key,arrowleft,16.667,720,410.5,38,2,-1,30,15,25,35,TRUE
null,null,psychophysics,79,172293,0.0-3.0-1.37,,key,null,16.667,720,410.5,,,,,,,,
763.9,arrowright,psychophysics,80,173064,0.0-3.0-0.38,,key,arrowright,16.667,720,410.5,39,2,1,24,15,25,35,TRUE
null,null,psychophysics,81,174066,0.0-3.0-1.38,,key,null,16.67505085,720,410.5,,,,,,,,
835.1,arrowright,psychophysics,82,174904,0.0-3.0-0.39,,key,arrowright,16.667,720,410.5,40,2,1,23,15,25,35,TRUE
null,null,psychophysics,83,175906,0.0-3.0-1.39,,key,null,16.667,720,410.5,,,,,,,,
572.2,arrowright,psychophysics,84,176482,0.0-3.0-0.40,,key,arrowright,16.667,720,410.5,41,2,1,27,35,25,35,TRUE
null,null,psychophysics,85,177486,0.0-3.0-1.40,,key,null,16.667,720,410.5,,,,,,,,
747.5,arrowright,psychophysics,86,178237,0.0-3.0-0.41,,key,arrowright,16.667,720,410.5,42,2,1,26,15,25,35,TRUE
null,null,psychophysics,87,179240,0.0-3.0-1.41,,key,null,16.667,720,410.5,,,,,,,,
521.3,arrowright,psychophysics,88,179766,0.0-3.0-0.42,,key,arrowright,16.667,720,410.5,43,2,1,26,35,25,35,TRUE
null,null,psychophysics,89,180769,0.0-3.0-1.42,,key,null,16.667,720,410.5,,,,,,,,
626.4,arrowright,psychophysics,90,181399,0.0-3.0-0.43,,key,arrowright,16.667,720,410.5,44,2,1,24,35,25,35,TRUE
null,null,psychophysics,91,182401,0.0-3.0-1.43,,key,null,16.667,720,410.5,,,,,,,,
736,arrowright,psychophysics,92,183147,0.0-3.0-0.44,,key,arrowright,16.667,720,410.5,45,2,1,24,15,25,35,TRUE
null,null,psychophysics,93,184149,0.0-3.0-1.44,,key,null,16.6750678,720,410.5,,,,,,,,
801.2,arrowright,psychophysics,94,184954,0.0-3.0-0.45,,key,arrowright,16.667,720,410.5,46,2,-1,25,35,25,35,FALSE
null,null,psychophysics,95,185957,0.0-3.0-1.45,,key,null,16.667,720,410.5,,,,,,,,
724,arrowright,psychophysics,96,186688,0.0-3.0-0.46,,key,arrowright,16.667,720,410.5,47,2,1,25,15,25,35,TRUE
null,null,psychophysics,97,187690,0.0-3.0-1.46,,key,null,16.667,720,410.5,,,,,,,,
804.9,arrowright,psychophysics,98,188500,0.0-3.0-0.47,,key,arrowright,16.667,720,410.5,48,2,-1,23,35,25,35,FALSE
null,null,psychophysics,99,189507,0.0-3.0-1.47,,key,null,16.667,720,410.5,,,,,,,,
606.1,arrowleft,psychophysics,100,190118,0.0-3.0-0.48,,key,arrowleft,16.667,720,410.5,49,2,-1,25,15,25,35,TRUE
null,null,psychophysics,101,191120,0.0-3.0-1.48,,key,null,16.667,720,410.5,,,,,,,,
826.7,arrowleft,psychophysics,102,191951,0.0-3.0-0.49,,key,arrowleft,16.667,720,410.5,50,2,1,20,35,25,35,FALSE
null,null,psychophysics,103,192953,0.0-3.0-1.49,,key,null,16.667,720,410.5,,,,,,,,
483.5,arrowleft,psychophysics,104,193440,0.0-3.0-0.50,,key,arrowleft,16.684,720,410.5,51,2,-1,30,15,25,35,TRUE
null,null,psychophysics,105,194441,0.0-3.0-1.50,,key,null,16.667,720,410.5,,,,,,,,
656.3,arrowleft,psychophysics,106,195109,0.0-3.0-0.51,,key,arrowleft,16.667,720,410.5,52,2,-1,27,35,25,35,TRUE
null,null,psychophysics,107,196113,0.0-3.0-1.51,,key,null,16.667,720,410.5,,,,,,,,
717.8,arrowright,psychophysics,108,196837,0.0-3.0-0.52,,key,arrowright,16.667,720,410.5,53,2,1,30,35,25,35,TRUE
null,null,psychophysics,109,197840,0.0-3.0-1.52,,key,null,16.667,720,410.5,,,,,,,,
812,arrowleft,psychophysics,110,198656,0.0-3.0-0.53,,key,arrowleft,16.667,720,410.5,54,2,-1,26,15,25,35,TRUE
null,null,psychophysics,111,199659,0.0-3.0-1.53,,key,null,16.667,720,410.5,,,,,,,,
681.3,arrowleft,psychophysics,112,200345,0.0-3.0-0.54,,key,arrowleft,16.667,720,410.5,55,2,-1,27,35,25,35,TRUE
null,null,psychophysics,113,201350,0.0-3.0-1.54,,key,null,16.667,720,410.5,,,,,,,,
848,arrowleft,psychophysics,114,202201,0.0-3.0-0.55,,key,arrowleft,16.667,720,410.5,56,3,1,23,35,25,35,FALSE
null,null,psychophysics,115,203204,0.0-3.0-1.55,,key,null,16.667,720,410.5,,,,,,,,
1615.3,arrowleft,html-keyboard-response,116,204821,0.0-3.0-2.55-0.55,"<div style=""color: white; text-align: center; vertical-align: top; display: inline-block; width: 800px; margin: auto""><p>You have completed 20% of the trials. You are on block 3 of 10. <br>Good job! Take a break if you need to.</p><p>Press any key to continue the experiment.</p></div>",,,,,,,,,,,,,
640.4,arrowleft,psychophysics,117,206474,0.0-3.0-0.56,,key,arrowleft,16.667,720,410.5,57,3,-1,23,15,25,35,TRUE
null,null,psychophysics,118,207480,0.0-3.0-1.56,,key,null,16.667,720,410.5,,,,,,,,
579.8,arrowright,psychophysics,119,208073,0.0-3.0-0.57,,key,arrowright,16.667,720,410.5,58,3,1,27,35,25,35,TRUE
null,null,psychophysics,120,209076,0.0-3.0-1.57,,key,null,16.667,720,410.5,,,,,,,,
475.9,arrowleft,psychophysics,121,209557,0.0-3.0-0.58,,key,arrowleft,16.667,720,410.5,59,3,-1,27,15,25,35,TRUE
null,null,psychophysics,122,210559,0.0-3.0-1.58,,key,null,16.667,720,410.5,,,,,,,,
484.6,arrowleft,psychophysics,123,211053,0.0-3.0-0.59,,key,arrowleft,16.667,720,410.5,60,3,-1,27,35,25,35,TRUE
null,null,psychophysics,124,212062,0.0-3.0-1.59,,key,null,16.667,720,410.5,,,,,,,,
516.5,arrowright,psychophysics,125,212590,0.0-3.0-0.60,,key,arrowright,16.667,720,410.5,61,3,1,26,15,25,35,TRUE
null,null,psychophysics,126,213593,0.0-3.0-1.60,,key,null,16.6750678,720,410.5,,,,,,,,
608.7,arrowleft,psychophysics,127,214206,0.0-3.0-0.61,,key,arrowleft,16.667,720,410.5,62,3,-1,27,35,25,35,TRUE
null,null,psychophysics,128,215209,0.0-3.0-1.61,,key,null,16.667,720,410.5,,,,,,,,
626.3,arrowright,psychophysics,129,215840,0.0-3.0-0.62,,key,arrowright,17.6194,720,410.5,63,3,-1,27,35,25,35,FALSE
null,null,psychophysics,130,216843,0.0-3.0-1.62,,key,null,16.667,720,410.5,,,,,,,,
398.2,arrowleft,psychophysics,131,217246,0.0-3.0-0.63,,key,arrowleft,16.667,720,410.5,64,3,1,24,15,25,35,FALSE
null,null,psychophysics,132,218250,0.0-3.0-1.63,,key,null,16.667,720,410.5,,,,,,,,
785.7,arrowright,psychophysics,133,219051,0.0-3.0-0.64,,key,arrowright,16.667,720,410.5,65,3,-1,27,35,25,35,FALSE
null,null,psychophysics,134,220054,0.0-3.0-1.64,,key,null,16.667,720,410.5,,,,,,,,
680.2,arrowright,psychophysics,135,220738,0.0-3.0-0.65,,key,arrowright,16.667,720,410.5,66,3,-1,24,35,25,35,FALSE
null,null,psychophysics,136,221740,0.0-3.0-1.65,,key,null,16.667,720,410.5,,,,,,,,
587,arrowright,psychophysics,137,222339,0.0-3.0-0.66,,key,arrowright,16.667,720,410.5,67,3,1,26,15,25,35,TRUE
null,null,psychophysics,138,223342,0.0-3.0-1.66,,key,null,16.6750678,720,410.5,,,,,,,,
545.4,arrowright,psychophysics,139,223892,0.0-3.0-0.67,,key,arrowright,16.667,720,410.5,68,3,1,26,35,25,35,TRUE
null,null,psychophysics,140,224899,0.0-3.0-1.67,,key,null,16.667,720,410.5,,,,,,,,
458,arrowleft,psychophysics,141,225372,0.0-3.0-0.68,,key,arrowleft,16.667,720,410.5,69,3,1,24,15,25,35,FALSE
null,null,psychophysics,142,226375,0.0-3.0-1.68,,key,null,16.667,720,410.5,,,,,,,,
694.1,arrowright,psychophysics,143,227073,0.0-3.0-0.69,,key,arrowright,16.667,720,410.5,70,3,1,27,35,25,35,TRUE
null,null,psychophysics,144,228076,0.0-3.0-1.69,,key,null,16.667,720,410.5,,,,,,,,
485.1,arrowright,psychophysics,145,228567,0.0-3.0-0.70,,key,arrowright,16.667,720,410.5,71,3,1,30,35,25,35,TRUE
null,null,psychophysics,146,229569,0.0-3.0-1.70,,key,null,16.667,720,410.5,,,,,,,,
935.8,arrowleft,psychophysics,147,230512,0.0-3.0-0.71,,key,arrowleft,17.2959434,720,410.5,72,3,-1,26,35,25,35,TRUE
null,null,psychophysics,148,231515,0.0-3.0-1.71,,key,null,16.667,720,410.5,,,,,,,,
601.7,arrowright,psychophysics,149,232122,0.0-3.0-0.72,,key,arrowright,16.667,720,410.5,73,3,1,26,15,25,35,TRUE
null,null,psychophysics,150,233124,0.0-3.0-1.72,,key,null,16.667,720,410.5,,,,,,,,
877.2,arrowleft,psychophysics,151,234005,0.0-3.0-0.73,,key,arrowleft,16.67615385,720,410.5,74,3,-1,24,15,25,35,TRUE
null,null,psychophysics,152,235008,0.0-3.0-1.73,,key,null,16.667,720,410.5,,,,,,,,
495.1,arrowright,psychophysics,153,235512,0.0-3.0-0.74,,key,arrowright,16.667,720,410.5,75,3,1,30,15,25,35,TRUE
null,null,psychophysics,154,236515,0.0-3.0-1.74,,key,null,16.667,720,410.5,,,,,,,,
619.7,arrowright,psychophysics,155,237141,0.0-3.0-0.75,,key,arrowright,16.667,720,410.5,76,3,1,27,35,25,35,TRUE
null,null,psychophysics,156,238145,0.0-3.0-1.75,,key,null,16.667,720,410.5,,,,,,,,
508.8,arrowright,psychophysics,157,238659,0.0-3.0-0.76,,key,arrowright,16.667,720,410.5,77,3,1,26,35,25,35,TRUE
null,null,psychophysics,158,239662,0.0-3.0-1.76,,key,null,16.667,720,410.5,,,,,,,,
605.3,arrowright,psychophysics,159,240271,0.0-3.0-0.77,,key,arrowright,16.667,720,410.5,78,3,-1,25,35,25,35,FALSE
null,null,psychophysics,160,241274,0.0-3.0-1.77,,key,null,16.667,720,410.5,,,,,,,,
670.3,arrowleft,psychophysics,161,241955,0.0-3.0-0.78,,key,arrowleft,16.667,720,410.5,79,3,-1,24,15,25,35,TRUE
null,null,psychophysics,162,242957,0.0-3.0-1.78,,key,null,16.667,720,410.5,,,,,,,,
911.9,arrowright,psychophysics,163,243872,0.0-3.0-0.79,,key,arrowright,16.67581481,720,410.5,80,3,-1,20,15,25,35,FALSE
null,null,psychophysics,164,244875,0.0-3.0-1.79,,key,null,16.667,720,410.5,,,,,,,,
627.3,arrowright,psychophysics,165,245505,0.0-3.0-0.80,,key,arrowright,16.667,720,410.5,81,3,1,30,35,25,35,TRUE
null,null,psychophysics,166,246509,0.0-3.0-1.80,,key,null,16.667,720,410.5,,,,,,,,
1167.6,arrowleft,psychophysics,167,247680,0.0-3.0-0.81,,key,arrowleft,16.667,720,410.5,82,3,1,23,35,25,35,FALSE
null,null,psychophysics,168,248687,0.0-3.0-1.81,,key,null,16.667,720,410.5,,,,,,,,
900.3,arrowleft,psychophysics,169,249590,0.0-3.0-0.82,,key,arrowleft,16.667,720,410.5,83,3,-1,30,35,25,35,TRUE
null,null,psychophysics,170,250592,0.0-3.0-1.82,,key,null,16.667,720,410.5,,,,,,,,
1059,arrowleft,psychophysics,171,251654,0.0-3.0-0.83,,key,arrowleft,16.667,720,410.5,84,4,-1,25,35,25,35,TRUE
null,null,psychophysics,172,252657,0.0-3.0-1.83,,key,null,16.667,720,410.5,,,,,,,,
1095.1,arrowleft,html-keyboard-response,173,253753,0.0-3.0-2.83-0.83,"<div style=""color: white; text-align: center; vertical-align: top; display: inline-block; width: 800px; margin: auto""><p>You have completed 30% of the trials. You are on block 4 of 10. <br>Good job! Take a break if you need to.</p><p>Press any key to continue the experiment.</p></div>",,,,,,,,,,,,,
743.4,arrowright,psychophysics,174,255511,0.0-3.0-0.84,,key,arrowright,16.678,720,410.5,85,4,-1,23,35,25,35,FALSE
null,null,psychophysics,175,256513,0.0-3.0-1.84,,key,null,16.667,720,410.5,,,,,,,,
1239.4,arrowright,psychophysics,176,257758,0.0-3.0-0.85,,key,arrowright,16.667,720,410.5,86,4,1,26,15,25,35,TRUE
null,null,psychophysics,177,258760,0.0-3.0-1.85,,key,null,16.667,720,410.5,,,,,,,,
2647.9,arrowright,psychophysics,178,261411,0.0-3.0-0.86,,key,arrowright,16.667,720,410.5,87,4,1,25,35,25,35,TRUE
null,null,psychophysics,179,262418,0.0-3.0-1.86,,key,null,16.667,720,410.5,,,,,,,,
610,arrowleft,psychophysics,180,263038,0.0-3.0-0.87,,key,arrowleft,16.667,720,410.5,88,4,-1,27,15,25,35,TRUE
null,null,psychophysics,181,264040,0.0-3.0-1.87,,key,null,16.6750678,720,410.5,,,,,,,,
1288.5,arrowleft,psychophysics,182,265332,0.0-3.0-0.88,,key,arrowleft,16.667,720,410.5,89,4,-1,20,15,25,35,TRUE
null,null,psychophysics,183,266335,0.0-3.0-1.88,,key,null,16.667,720,410.5,,,,,,,,
636.7,arrowleft,psychophysics,184,266978,0.0-3.0-0.89,,key,arrowleft,16.667,720,410.5,90,4,-1,26,15,25,35,TRUE
null,null,psychophysics,185,267985,0.0-3.0-1.89,,key,null,16.667,720,410.5,,,,,,,,
846.4,arrowleft,psychophysics,186,268839,0.0-3.0-0.90,,key,arrowleft,16.667,720,410.5,91,4,1,20,35,25,35,FALSE
null,null,psychophysics,187,269841,0.0-3.0-1.90,,key,null,16.667,720,410.5,,,,,,,,
795.1,arrowright,psychophysics,188,270640,0.0-3.0-0.91,,key,arrowright,16.667,720,410.5,92,4,1,24,15,25,35,TRUE
null,null,psychophysics,189,271641,0.0-3.0-1.91,,key,null,16.667,720,410.5,,,,,,,,
694.1,arrowright,psychophysics,190,272339,0.0-3.0-0.92,,key,arrowright,16.667,720,410.5,93,4,1,24,15,25,35,TRUE
null,null,psychophysics,191,273341,0.0-3.0-1.92,,key,null,16.667,720,410.5,,,,,,,,
579.2,arrowleft,psychophysics,192,273928,0.0-3.0-0.93,,key,arrowleft,16.681,720,410.5,94,4,-1,30,35,25,35,TRUE
null,null,psychophysics,193,274929,0.0-3.0-1.93,,key,null,16.667,720,410.5,,,,,,,,
668,arrowleft,psychophysics,194,275600,0.0-3.0-0.94,,key,arrowleft,16.667,720,410.5,95,4,-1,25,15,25,35,TRUE
null,null,psychophysics,195,276604,0.0-3.0-1.94,,key,null,17.75991803,720,410.5,,,,,,,,
1190.3,arrowleft,psychophysics,196,277799,0.0-3.0-0.95,,key,arrowleft,16.667,720,410.5,96,4,-1,30,35,25,35,TRUE
null,null,psychophysics,197,278801,0.0-3.0-1.95,,key,null,16.667,720,410.5,,,,,,,,
499.5,arrowright,psychophysics,198,279308,0.0-3.0-0.96,,key,arrowright,16.667,720,410.5,97,4,1,30,15,25,35,TRUE
null,null,psychophysics,199,280309,0.0-3.0-1.96,,key,null,16.667,720,410.5,,,,,,,,
542.8,arrowright,psychophysics,200,280855,0.0-3.0-0.97,,key,arrowright,16.667,720,410.5,98,4,1,23,15,25,35,TRUE
null,null,psychophysics,201,281856,0.0-3.0-1.97,,key,null,16.667,720,410.5,,,,,,,,
533.4,arrowright,psychophysics,202,282392,0.0-3.0-0.98,,key,arrowright,16.667,720,410.5,99,4,1,30,35,25,35,TRUE
null,null,psychophysics,203,283393,0.0-3.0-1.98,,key,null,16.667,720,410.5,,,,,,,,
614.5,arrowright,psychophysics,204,284009,0.0-3.0-0.99,,key,arrowright,16.68022222,720,410.5,100,4,1,27,35,25,35,TRUE
null,null,psychophysics,205,285011,0.0-3.0-1.99,,key,null,16.667,720,410.5,,,,,,,,
579.2,arrowleft,psychophysics,206,285596,0.0-3.0-0.100,,key,arrowleft,16.667,720,410.5,101,4,1,20,15,25,35,FALSE
null,null,psychophysics,207,286599,0.0-3.0-1.100,,key,null,16.667,720,410.5,,,,,,,,
793,arrowleft,psychophysics,208,287395,0.0-3.0-0.101,,key,arrowleft,16.667,720,410.5,102,4,-1,23,15,25,35,TRUE
null,null,psychophysics,209,288396,0.0-3.0-1.101,,key,null,16.667,720,410.5,,,,,,,,
995.3,arrowright,psychophysics,210,289394,0.0-3.0-0.102,,key,arrowright,16.667,720,410.5,103,4,1,24,35,25,35,TRUE
null,null,psychophysics,211,290396,0.0-3.0-1.102,,key,null,16.667,720,410.5,,,,,,,,
893.3,arrowright,psychophysics,212,291297,0.0-3.0-0.103,,key,arrowright,16.667,720,410.5,104,4,-1,24,35,25,35,FALSE
null,null,psychophysics,213,292299,0.0-3.0-1.103,,key,null,16.667,720,410.5,,,,,,,,
1311.9,arrowleft,psychophysics,214,293613,0.0-3.0-0.104,,key,arrowleft,16.667,720,410.5,105,4,-1,26,35,25,35,TRUE
null,null,psychophysics,215,294615,0.0-3.0-1.104,,key,null,16.67508475,720,410.5,,,,,,,,
520.4,arrowleft,psychophysics,216,295141,0.0-3.0-0.105,,key,arrowleft,16.667,720,410.5,106,4,-1,27,15,25,35,TRUE
null,null,psychophysics,217,296143,0.0-3.0-1.105,,key,null,16.667,720,410.5,,,,,,,,
690.5,arrowright,psychophysics,218,296844,0.0-3.0-0.106,,key,arrowright,16.667,720,410.5,107,4,-1,25,35,25,35,FALSE
null,null,psychophysics,219,297848,0.0-3.0-1.106,,key,null,16.667,720,410.5,,,,,,,,
474.3,arrowleft,psychophysics,220,298327,0.0-3.0-0.107,,key,arrowleft,16.667,720,410.5,108,4,1,20,15,25,35,FALSE
null,null,psychophysics,221,299330,0.0-3.0-1.107,,key,null,16.667,720,410.5,,,,,,,,
515.9,arrowright,psychophysics,222,299849,0.0-3.0-0.108,,key,arrowright,16.667,720,410.5,109,4,-1,20,35,25,35,FALSE
null,null,psychophysics,223,300853,0.0-3.0-1.108,,key,null,16.667,720,410.5,,,,,,,,
627.7,arrowleft,psychophysics,224,301493,0.0-3.0-0.109,,key,arrowleft,16.667,720,410.5,110,4,-1,23,15,25,35,TRUE
null,null,psychophysics,225,302496,0.0-3.0-1.109,,key,null,16.667,720,410.5,,,,,,,,
790.2,arrowright,psychophysics,226,303294,0.0-3.0-0.110,,key,arrowright,16.667,720,410.5,111,4,1,24,35,25,35,TRUE
null,null,psychophysics,227,304296,0.0-3.0-1.110,,key,null,16.6750678,720,410.5,,,,,,,,
559.7,arrowleft,psychophysics,228,304859,0.0-3.0-0.111,,key,arrowleft,16.667,720,410.5,112,5,-1,24,15,25,35,TRUE
null,null,psychophysics,229,305862,0.0-3.0-1.111,,key,null,16.667,720,410.5,,,,,,,,
1831.7,arrowleft,html-keyboard-response,230,307695,0.0-3.0-2.111-0.111,"<div style=""color: white; text-align: center; vertical-align: top; display: inline-block; width: 800px; margin: auto""><p>You have completed 40% of the trials. You are on block 5 of 10. <br>Good job! Take a break if you need to.</p><p>Press any key to continue the experiment.</p></div>",,,,,,,,,,,,,
673.6,arrowleft,psychophysics,231,309378,0.0-3.0-0.112,,key,arrowleft,16.667,720,410.5,113,5,-1,27,15,25,35,TRUE
null,null,psychophysics,232,310384,0.0-3.0-1.112,,key,null,16.667,720,410.5,,,,,,,,
790,arrowright,psychophysics,233,311179,0.0-3.0-0.113,,key,arrowright,16.667,720,410.5,114,5,1,23,35,25,35,TRUE
null,null,psychophysics,234,312182,0.0-3.0-1.113,,key,null,16.667,720,410.5,,,,,,,,
575.2,arrowright,psychophysics,235,312762,0.0-3.0-0.114,,key,arrowright,16.667,720,410.5,115,5,1,27,35,25,35,TRUE
null,null,psychophysics,236,313763,0.0-3.0-1.114,,key,null,16.667,720,410.5,,,,,,,,
576.7,arrowright,psychophysics,237,314343,0.0-3.0-0.115,,key,arrowright,16.681,720,410.5,116,5,-1,24,35,25,35,FALSE
null,null,psychophysics,238,315345,0.0-3.0-1.115,,key,null,16.667,720,410.5,,,,,,,,
921.9,arrowleft,psychophysics,239,316280,0.0-3.0-0.116,,key,arrowleft,16.667,720,410.5,117,5,1,20,15,25,35,FALSE
null,null,psychophysics,240,317283,0.0-3.0-1.116,,key,null,16.667,720,410.5,,,,,,,,
512.4,arrowright,psychophysics,241,317799,0.0-3.0-0.117,,key,arrowright,16.667,720,410.5,118,5,1,26,35,25,35,TRUE
null,null,psychophysics,242,318802,0.0-3.0-1.117,,key,null,16.667,720,410.5,,,,,,,,
931.3,arrowright,psychophysics,243,319739,0.0-3.0-0.118,,key,arrowright,16.667,720,410.5,119,5,1,23,35,25,35,TRUE
null,null,psychophysics,244,320742,0.0-3.0-1.118,,key,null,16.667,720,410.5,,,,,,,,
552.3,arrowleft,psychophysics,245,321303,0.0-3.0-0.119,,key,arrowleft,16.667,720,410.5,120,5,-1,23,15,25,35,TRUE
null,null,psychophysics,246,322306,0.0-3.0-1.119,,key,null,16.667,720,410.5,,,,,,,,
499.2,arrowleft,psychophysics,247,322813,0.0-3.0-0.120,,key,arrowleft,16.667,720,410.5,121,5,-1,26,15,25,35,TRUE
null,null,psychophysics,248,323815,0.0-3.0-1.120,,key,null,16.667,720,410.5,,,,,,,,
1030.1,arrowright,psychophysics,249,324849,0.0-3.0-0.121,,key,arrowright,16.67480328,720,410.5,122,5,-1,27,35,25,35,FALSE
null,null,psychophysics,250,325852,0.0-3.0-1.121,,key,null,16.667,720,410.5,,,,,,,,
643.2,arrowleft,psychophysics,251,326500,0.0-3.0-0.122,,key,arrowleft,16.667,720,410.5,123,5,-1,23,15,25,35,TRUE
null,null,psychophysics,252,327507,0.0-3.0-1.122,,key,null,16.667,720,410.5,,,,,,,,
317.3,arrowleft,psychophysics,253,327831,0.0-3.0-0.123,,key,arrowleft,16.667,720,410.5,124,5,-1,30,15,25,35,TRUE
null,null,psychophysics,254,328834,0.0-3.0-1.123,,key,null,16.667,720,410.5,,,,,,,,
433.1,arrowleft,psychophysics,255,329270,0.0-3.0-0.124,,key,arrowleft,16.667,720,410.5,125,5,-1,27,15,25,35,TRUE
null,null,psychophysics,256,330273,0.0-3.0-1.124,,key,null,16.667,720,410.5,,,,,,,,
483.6,arrowleft,psychophysics,257,330764,0.0-3.0-0.125,,key,arrowleft,16.667,720,410.5,126,5,-1,25,35,25,35,TRUE
null,null,psychophysics,258,331766,0.0-3.0-1.125,,key,null,16.667,720,410.5,,,,,,,,
434.2,arrowleft,psychophysics,259,332204,0.0-3.0-0.126,,key,arrowleft,16.667,720,410.5,127,5,1,20,15,25,35,FALSE
null,null,psychophysics,260,333211,0.0-3.0-1.126,,key,null,16.667,720,410.5,,,,,,,,
595.4,arrowleft,psychophysics,261,333809,0.0-3.0-0.127,,key,arrowleft,16.667,720,410.5,128,5,-1,20,15,25,35,TRUE
null,null,psychophysics,262,334811,0.0-3.0-1.127,,key,null,16.67493333,720,410.5,,,,,,,,
569.4,arrowleft,psychophysics,263,335384,0.0-3.0-0.128,,key,arrowleft,16.667,720,410.5,129,5,-1,27,15,25,35,TRUE
null,null,psychophysics,264,336387,0.0-3.0-1.128,,key,null,17.559875,720,410.5,,,,,,,,
538.5,arrowright,psychophysics,265,336929,0.0-3.0-0.129,,key,arrowright,16.667,720,410.5,130,5,1,25,35,25,35,TRUE
null,null,psychophysics,266,337932,0.0-3.0-1.129,,key,null,16.667,720,410.5,,,,,,,,
562.9,arrowright,psychophysics,267,338506,0.0-3.0-0.130,,key,arrowright,16.667,720,410.5,131,5,-1,23,35,25,35,FALSE
null,null,psychophysics,268,339508,0.0-3.0-1.130,,key,null,16.667,720,410.5,,,,,,,,
519.2,arrowleft,psychophysics,269,340033,0.0-3.0-0.131,,key,arrowleft,16.667,720,410.5,132,5,-1,25,15,25,35,TRUE
null,null,psychophysics,270,341035,0.0-3.0-1.131,,key,null,16.667,720,410.5,,,,,,,,
775.9,arrowleft,psychophysics,271,341815,0.0-3.0-0.132,,key,arrowleft,16.667,720,410.5,133,5,1,24,35,25,35,FALSE
null,null,psychophysics,272,342816,0.0-3.0-1.132,,key,null,16.667,720,410.5,,,,,,,,
459.6,arrowright,psychophysics,273,343281,0.0-3.0-0.133,,key,arrowright,16.667,720,410.5,134,5,1,30,15,25,35,TRUE
null,null,psychophysics,274,344282,0.0-3.0-1.133,,key,null,16.6750678,720,410.5,,,,,,,,
610.4,arrowright,psychophysics,275,344904,0.0-3.0-0.134,,key,arrowright,16.667,720,410.5,135,5,-1,25,35,25,35,FALSE
null,null,psychophysics,276,345908,0.0-3.0-1.134,,key,null,16.667,720,410.5,,,,,,,,
468.1,arrowright,psychophysics,277,346383,0.0-3.0-0.135,,key,arrowright,16.667,720,410.5,136,5,1,24,35,25,35,TRUE
null,null,psychophysics,278,347387,0.0-3.0-1.135,,key,null,16.667,720,410.5,,,,,,,,
395.9,arrowright,psychophysics,279,347797,0.0-3.0-0.136,,key,arrowright,16.667,720,410.5,137,5,-1,23,15,25,35,FALSE
null,null,psychophysics,280,348800,0.0-3.0-1.136,,key,null,16.667,720,410.5,,,,,,,,
647.3,arrowright,psychophysics,281,349451,0.0-3.0-0.137,,key,arrowright,16.667,720,410.5,138,5,1,23,35,25,35,TRUE
null,null,psychophysics,282,350452,0.0-3.0-1.137,,key,null,16.667,720,410.5,,,,,,,,
513.7,arrowright,psychophysics,283,350986,0.0-3.0-0.138,,key,arrowright,16.667,720,410.5,139,5,1,30,15,25,35,TRUE
null,null,psychophysics,284,351988,0.0-3.0-1.138,,key,null,16.667,720,410.5,,,,,,,,
594.5,arrowright,psychophysics,285,352587,0.0-3.0-0.139,,key,arrowright,16.667,720,410.5,140,6,1,26,35,25,35,TRUE
null,null,psychophysics,286,353591,0.0-3.0-1.139,,key,null,16.667,720,410.5,,,,,,,,
4197,arrowleft,html-keyboard-response,287,357792,0.0-3.0-2.139-0.139,"<div style=""color: white; text-align: center; vertical-align: top; display: inline-block; width: 800px; margin: auto""><p>You have completed 50% of the trials. You are on block 6 of 10. <br>Good job! Take a break if you need to.</p><p>Press any key to continue the experiment.</p></div>",,,,,,,,,,,,,
715.1,arrowleft,psychophysics,288,359521,0.0-3.0-0.140,,key,arrowleft,16.68216279,720,410.5,141,6,1,23,35,25,35,FALSE
null,null,psychophysics,289,360525,0.0-3.0-1.140,,key,null,16.667,720,410.5,,,,,,,,
634.5,arrowright,psychophysics,290,361165,0.0-3.0-0.141,,key,arrowright,16.667,720,410.5,142,6,1,20,15,25,35,TRUE
null,null,psychophysics,291,362167,0.0-3.0-1.141,,key,null,16.667,720,410.5,,,,,,,,
564.8,arrowleft,psychophysics,292,362734,0.0-3.0-0.142,,key,arrowleft,16.667,720,410.5,143,6,1,23,35,25,35,FALSE
null,null,psychophysics,293,363737,0.0-3.0-1.142,,key,null,16.667,720,410.5,,,,,,,,
548.2,arrowright,psychophysics,294,364298,0.0-3.0-0.143,,key,arrowright,16.667,720,410.5,144,6,1,25,15,25,35,TRUE
null,null,psychophysics,295,365300,0.0-3.0-1.143,,key,null,16.667,720,410.5,,,,,,,,
532,arrowleft,psychophysics,296,365835,0.0-3.0-0.144,,key,arrowleft,16.667,720,410.5,145,6,-1,30,35,25,35,TRUE
null,null,psychophysics,297,366839,0.0-3.0-1.144,,key,null,16.667,720,410.5,,,,,,,,
507.7,arrowright,psychophysics,298,367351,0.0-3.0-0.145,,key,arrowright,16.667,720,410.5,146,6,1,26,35,25,35,TRUE
null,null,psychophysics,299,368353,0.0-3.0-1.145,,key,null,16.6750678,720,410.5,,,,,,,,
376.3,arrowleft,psychophysics,300,368733,0.0-3.0-0.146,,key,arrowleft,16.667,720,410.5,147,6,-1,20,35,25,35,TRUE
null,null,psychophysics,301,369735,0.0-3.0-1.146,,key,null,16.667,720,410.5,,,,,,,,
422.8,arrowright,psychophysics,302,370170,0.0-3.0-0.147,,key,arrowright,16.667,720,410.5,148,6,1,27,15,25,35,TRUE
null,null,psychophysics,303,371173,0.0-3.0-1.147,,key,null,16.667,720,410.5,,,,,,,,
568.7,arrowright,psychophysics,304,371747,0.0-3.0-0.148,,key,arrowright,16.667,720,410.5,149,6,1,23,15,25,35,TRUE
null,null,psychophysics,305,372749,0.0-3.0-1.148,,key,null,16.667,720,410.5,,,,,,,,
682.5,arrowright,psychophysics,306,373435,0.0-3.0-0.149,,key,arrowright,16.667,720,410.5,150,6,-1,20,15,25,35,FALSE
null,null,psychophysics,307,374438,0.0-3.0-1.149,,key,null,16.667,720,410.5,,,,,,,,
703.5,arrowright,psychophysics,308,375146,0.0-3.0-0.150,,key,arrowright,16.667,720,410.5,151,6,-1,24,35,25,35,FALSE
null,null,psychophysics,309,376152,0.0-3.0-1.150,,key,null,16.667,720,410.5,,,,,,,,
490.3,arrowright,psychophysics,310,376646,0.0-3.0-0.151,,key,arrowright,16.667,720,410.5,152,6,1,27,15,25,35,TRUE
null,null,psychophysics,311,377648,0.0-3.0-1.151,,key,null,16.667,720,410.5,,,,,,,,
587.2,arrowleft,psychophysics,312,378239,0.0-3.0-0.152,,key,arrowleft,16.68102941,720,410.5,153,6,-1,27,15,25,35,TRUE
null,null,psychophysics,313,379243,0.0-3.0-1.152,,key,null,16.667,720,410.5,,,,,,,,
523.5,arrowright,psychophysics,314,379779,0.0-3.0-0.153,,key,arrowright,16.667,720,410.5,154,6,-1,23,35,25,35,FALSE
null,null,psychophysics,315,380780,0.0-3.0-1.153,,key,null,16.667,720,410.5,,,,,,,,
508.9,arrowleft,psychophysics,316,381300,0.0-3.0-0.154,,key,arrowleft,16.667,720,410.5,155,6,1,20,35,25,35,FALSE
null,null,psychophysics,317,382303,0.0-3.0-1.154,,key,null,16.667,720,410.5,,,,,,,,
543.8,arrowleft,psychophysics,318,382850,0.0-3.0-0.155,,key,arrowleft,16.667,720,410.5,156,6,-1,30,35,25,35,TRUE
null,null,psychophysics,319,383851,0.0-3.0-1.155,,key,null,16.667,720,410.5,,,,,,,,
486.9,arrowleft,psychophysics,320,384342,0.0-3.0-0.156,,key,arrowleft,16.667,720,410.5,157,6,-1,30,15,25,35,TRUE
null,null,psychophysics,321,385345,0.0-3.0-1.156,,key,null,16.667,720,410.5,,,,,,,,
485.8,arrowleft,psychophysics,322,385836,0.0-3.0-0.157,,key,arrowleft,16.667,720,410.5,158,6,-1,30,35,25,35,TRUE
null,null,psychophysics,323,386838,0.0-3.0-1.157,,key,null,16.667,720,410.5,,,,,,,,
698.4,arrowleft,psychophysics,324,387556,0.0-3.0-0.158,,key,arrowleft,16.667,720,410.5,159,6,1,23,35,25,35,FALSE
null,null,psychophysics,325,388560,0.0-3.0-1.158,,key,null,16.6750678,720,410.5,,,,,,,,
500.7,arrowleft,psychophysics,326,389067,0.0-3.0-0.159,,key,arrowleft,16.667,720,410.5,160,6,1,20,15,25,35,FALSE
null,null,psychophysics,327,390069,0.0-3.0-1.159,,key,null,16.667,720,410.5,,,,,,,,
548,arrowright,psychophysics,328,390620,0.0-3.0-0.160,,key,arrowright,16.667,720,410.5,161,6,-1,20,35,25,35,FALSE
null,null,psychophysics,329,391623,0.0-3.0-1.160,,key,null,16.667,720,410.5,,,,,,,,
508.5,arrowleft,psychophysics,330,392136,0.0-3.0-0.161,,key,arrowleft,16.667,720,410.5,162,6,1,24,35,25,35,FALSE
null,null,psychophysics,331,393137,0.0-3.0-1.161,,key,null,16.667,720,410.5,,,,,,,,
546,arrowright,psychophysics,332,393697,0.0-3.0-0.162,,key,arrowright,16.667,720,410.5,163,6,1,27,15,25,35,TRUE
null,null,psychophysics,333,394699,0.0-3.0-1.162,,key,null,16.667,720,410.5,,,,,,,,
465.9,arrowleft,psychophysics,334,395169,0.0-3.0-0.163,,key,arrowleft,16.667,720,410.5,164,6,1,20,35,25,35,FALSE
null,null,psychophysics,335,396172,0.0-3.0-1.163,,key,null,17.25180702,720,410.5,,,,,,,,
527.3,arrowleft,psychophysics,336,396703,0.0-3.0-0.164,,key,arrowleft,16.667,720,410.5,165,6,-1,30,15,25,35,TRUE
null,null,psychophysics,337,397706,0.0-3.0-1.164,,key,null,16.667,720,410.5,,,,,,,,
405.2,arrowleft,psychophysics,338,398116,0.0-3.0-0.165,,key,arrowleft,16.68683333,720,410.5,166,6,1,20,35,25,35,FALSE
null,null,psychophysics,339,399118,0.0-3.0-1.165,,key,null,16.667,720,410.5,,,,,,,,
573.4,arrowright,psychophysics,340,399706,0.0-3.0-0.166,,key,arrowright,16.667,720,410.5,167,6,1,27,35,25,35,TRUE
null,null,psychophysics,341,400708,0.0-3.0-1.166,,key,null,16.667,720,410.5,,,,,,,,
505.7,arrowright,psychophysics,342,401218,0.0-3.0-0.167,,key,arrowright,16.667,720,410.5,168,7,1,30,35,25,35,TRUE
null,null,psychophysics,343,402221,0.0-3.0-1.167,,key,null,16.667,720,410.5,,,,,,,,
8069.2,arrowright,html-keyboard-response,344,410292,0.0-3.0-2.167-0.167,"<div style=""color: white; text-align: center; vertical-align: top; display: inline-block; width: 800px; margin: auto""><p>You have completed 60% of the trials. You are on block 7 of 10. <br>Good job! Take a break if you need to.</p><p>Press any key to continue the experiment.</p></div>",,,,,,,,,,,,,
495.2,arrowright,psychophysics,345,411800,0.0-3.0-0.168,,key,arrowright,16.68656667,720,410.5,169,7,1,30,15,25,35,TRUE
null,null,psychophysics,346,412801,0.0-3.0-1.168,,key,null,16.667,720,410.5,,,,,,,,
480.7,arrowleft,psychophysics,347,413286,0.0-3.0-0.169,,key,arrowleft,16.667,720,410.5,170,7,-1,25,15,25,35,TRUE
null,null,psychophysics,348,414288,0.0-3.0-1.169,,key,null,16.667,720,410.5,,,,,,,,
599.4,arrowright,psychophysics,349,414890,0.0-3.0-0.170,,key,arrowright,16.667,720,410.5,171,7,1,23,15,25,35,TRUE
null,null,psychophysics,350,415892,0.0-3.0-1.170,,key,null,16.667,720,410.5,,,,,,,,
662.4,arrowleft,psychophysics,351,416570,0.0-3.0-0.171,,key,arrowleft,16.667,720,410.5,172,7,-1,25,35,25,35,TRUE
null,null,psychophysics,352,417572,0.0-3.0-1.171,,key,null,16.667,720,410.5,,,,,,,,
561.5,arrowleft,psychophysics,353,418137,0.0-3.0-0.172,,key,arrowleft,16.667,720,410.5,173,7,1,20,35,25,35,FALSE
null,null,psychophysics,354,419141,0.0-3.0-1.172,,key,null,16.667,720,410.5,,,,,,,,
594.5,arrowright,psychophysics,355,419740,0.0-3.0-0.173,,key,arrowright,16.667,720,410.5,174,7,1,23,15,25,35,TRUE
null,null,psychophysics,356,420742,0.0-3.0-1.173,,key,null,16.6750678,720,410.5,,,,,,,,
492.2,arrowright,psychophysics,357,421239,0.0-3.0-0.174,,key,arrowright,16.667,720,410.5,175,7,1,30,35,25,35,TRUE
null,null,psychophysics,358,422241,0.0-3.0-1.174,,key,null,16.667,720,410.5,,,,,,,,
585.3,arrowleft,psychophysics,359,422840,0.0-3.0-0.175,,key,arrowleft,16.667,720,410.5,176,7,1,23,15,25,35,FALSE
null,null,psychophysics,360,423844,0.0-3.0-1.175,,key,null,16.667,720,410.5,,,,,,,,
872,arrowright,psychophysics,361,424720,0.0-3.0-0.176,,key,arrowright,16.667,720,410.5,177,7,-1,26,35,25,35,FALSE
null,null,psychophysics,362,425723,0.0-3.0-1.176,,key,null,16.667,720,410.5,,,,,,,,
515.5,arrowleft,psychophysics,363,426242,0.0-3.0-0.177,,key,arrowleft,16.667,720,410.5,178,7,-1,30,15,25,35,TRUE
null,null,psychophysics,364,427244,0.0-3.0-1.177,,key,null,16.667,720,410.5,,,,,,,,
532.4,arrowright,psychophysics,365,427783,0.0-3.0-0.178,,key,arrowright,16.667,720,410.5,179,7,-1,23,35,25,35,FALSE
null,null,psychophysics,366,428785,0.0-3.0-1.178,,key,null,16.667,720,410.5,,,,,,,,
530.6,arrowleft,psychophysics,367,429324,0.0-3.0-0.179,,key,arrowleft,16.667,720,410.5,180,7,-1,25,15,25,35,TRUE
null,null,psychophysics,368,430327,0.0-3.0-1.179,,key,null,16.667,720,410.5,,,,,,,,
476.4,arrowright,psychophysics,369,430808,0.0-3.0-0.180,,key,arrowright,16.684,720,410.5,181,7,-1,20,15,25,35,FALSE
null,null,psychophysics,370,431810,0.0-3.0-1.180,,key,null,16.667,720,410.5,,,,,,,,
489.3,arrowright,psychophysics,371,432304,0.0-3.0-0.181,,key,arrowright,16.667,720,410.5,182,7,-1,20,35,25,35,FALSE
null,null,psychophysics,372,433306,0.0-3.0-1.181,,key,null,16.667,720,410.5,,,,,,,,
474.9,arrowright,psychophysics,373,433784,0.0-3.0-0.182,,key,arrowright,16.667,720,410.5,183,7,1,25,35,25,35,TRUE
null,null,psychophysics,374,434787,0.0-3.0-1.182,,key,null,16.667,720,410.5,,,,,,,,
461.7,arrowleft,psychophysics,375,435260,0.0-3.0-0.183,,key,arrowleft,16.667,720,410.5,184,7,-1,30,15,25,35,TRUE
null,null,psychophysics,376,436262,0.0-3.0-1.183,,key,null,16.667,720,410.5,,,,,,,,
391.3,arrowright,psychophysics,377,436657,0.0-3.0-0.184,,key,arrowright,16.667,720,410.5,185,7,-1,20,35,25,35,FALSE
null,null,psychophysics,378,437659,0.0-3.0-1.184,,key,null,16.667,720,410.5,,,,,,,,
510.6,arrowright,psychophysics,379,438174,0.0-3.0-0.185,,key,arrowright,16.667,720,410.5,186,7,-1,23,15,25,35,FALSE
null,null,psychophysics,380,439176,0.0-3.0-1.185,,key,null,16.667,720,410.5,,,,,,,,
443.6,arrowright,psychophysics,381,439623,0.0-3.0-0.186,,key,arrowright,16.667,720,410.5,187,7,1,27,15,25,35,TRUE
null,null,psychophysics,382,440625,0.0-3.0-1.186,,key,null,16.6750678,720,410.5,,,,,,,,
594.4,arrowleft,psychophysics,383,441239,0.0-3.0-0.187,,key,arrowleft,16.667,720,410.5,188,7,1,20,35,25,35,FALSE
null,null,psychophysics,384,442241,0.0-3.0-1.187,,key,null,16.667,720,410.5,,,,,,,,
324.1,arrowleft,psychophysics,385,442569,0.0-3.0-0.188,,key,arrowleft,16.667,720,410.5,189,7,1,25,35,25,35,FALSE
null,null,psychophysics,386,443571,0.0-3.0-1.188,,key,null,16.667,720,410.5,,,,,,,,
463.6,arrowright,psychophysics,387,444039,0.0-3.0-0.189,,key,arrowright,16.667,720,410.5,190,7,1,24,15,25,35,TRUE
null,null,psychophysics,388,445041,0.0-3.0-1.189,,key,null,16.667,720,410.5,,,,,,,,
498,arrowright,psychophysics,389,445543,0.0-3.0-0.190,,key,arrowright,16.667,720,410.5,191,7,1,25,15,25,35,TRUE
null,null,psychophysics,390,446545,0.0-3.0-1.190,,key,null,16.667,720,410.5,,,,,,,,
476.9,arrowright,psychophysics,391,447038,0.0-3.0-0.191,,key,arrowright,16.667,720,410.5,192,7,1,30,15,25,35,TRUE
null,null,psychophysics,392,448040,0.0-3.0-1.191,,key,null,16.667,720,410.5,,,,,,,,
463.4,arrowright,psychophysics,393,448506,0.0-3.0-0.192,,key,arrowright,16.667,720,410.5,193,7,1,25,15,25,35,TRUE
null,null,psychophysics,394,449508,0.0-3.0-1.192,,key,null,16.667,720,410.5,,,,,,,,
546.2,arrowright,psychophysics,395,450057,0.0-3.0-0.193,,key,arrowright,16.667,720,410.5,194,7,1,26,15,25,35,TRUE
null,null,psychophysics,396,451059,0.0-3.0-1.193,,key,null,16.67508475,720,410.5,,,,,,,,
542.3,arrowright,psychophysics,397,451606,0.0-3.0-0.194,,key,arrowright,16.667,720,410.5,195,7,-1,26,35,25,35,FALSE
null,null,psychophysics,398,452608,0.0-3.0-1.194,,key,null,16.667,720,410.5,,,,,,,,
382.2,arrowright,psychophysics,399,453004,0.0-3.0-0.195,,key,arrowright,16.667,720,410.5,196,8,-1,26,15,25,35,FALSE
null,null,psychophysics,400,454006,0.0-3.0-1.195,,key,null,16.667,720,410.5,,,,,,,,
1090.7,arrowright,html-keyboard-response,401,455098,0.0-3.0-2.195-0.195,"<div style=""color: white; text-align: center; vertical-align: top; display: inline-block; width: 800px; margin: auto""><p>You have completed 70% of the trials. You are on block 8 of 10. <br>Good job! Take a break if you need to.</p><p>Press any key to continue the experiment.</p></div>",,,,,,,,,,,,,
674.4,arrowleft,psychophysics,402,456780,0.0-3.0-0.196,,key,arrowleft,16.667,720,410.5,197,8,-1,25,15,25,35,TRUE
null,null,psychophysics,403,457783,0.0-3.0-1.196,,key,null,16.667,720,410.5,,,,,,,,
701.7,arrowleft,psychophysics,404,458489,0.0-3.0-0.197,,key,arrowleft,16.667,720,410.5,198,8,-1,24,35,25,35,TRUE
null,null,psychophysics,405,459498,0.0-3.0-1.197,,key,null,16.667,720,410.5,,,,,,,,
489.1,arrowright,psychophysics,406,460000,0.0-3.0-0.198,,key,arrowright,16.667,720,410.5,199,8,1,26,35,25,35,TRUE
null,null,psychophysics,407,461002,0.0-3.0-1.198,,key,null,16.67493333,720,410.5,,,,,,,,
546.4,arrowleft,psychophysics,408,461553,0.0-3.0-0.199,,key,arrowleft,16.667,720,410.5,200,8,-1,30,35,25,35,TRUE
null,null,psychophysics,409,462556,0.0-3.0-1.199,,key,null,16.667,720,410.5,,,,,,,,
483.6,arrowright,psychophysics,410,463042,0.0-3.0-0.200,,key,arrowright,16.667,720,410.5,201,8,1,25,35,25,35,TRUE
null,null,psychophysics,411,464045,0.0-3.0-1.200,,key,null,16.667,720,410.5,,,,,,,,
445.5,arrowright,psychophysics,412,464504,0.0-3.0-0.201,,key,arrowright,16.667,720,410.5,202,8,-1,23,35,25,35,FALSE
null,null,psychophysics,413,465506,0.0-3.0-1.201,,key,null,16.667,720,410.5,,,,,,,,
376.7,arrowright,psychophysics,414,465886,0.0-3.0-0.202,,key,arrowright,16.667,720,410.5,203,8,1,24,35,25,35,TRUE
null,null,psychophysics,415,466888,0.0-3.0-1.202,,key,null,16.667,720,410.5,,,,,,,,
799.2,arrowleft,psychophysics,416,467691,0.0-3.0-0.203,,key,arrowleft,16.667,720,410.5,204,8,1,20,15,25,35,FALSE
null,null,psychophysics,417,468694,0.0-3.0-1.203,,key,null,16.667,720,410.5,,,,,,,,
705.1,arrowleft,psychophysics,418,469403,0.0-3.0-0.204,,key,arrowleft,16.667,720,410.5,205,8,-1,25,35,25,35,TRUE
null,null,psychophysics,419,470405,0.0-3.0-1.204,,key,null,16.667,720,410.5,,,,,,,,
597.5,arrowleft,psychophysics,420,471012,0.0-3.0-0.205,,key,arrowleft,16.6806,720,410.5,206,8,1,25,35,25,35,FALSE
null,null,psychophysics,421,472014,0.0-3.0-1.205,,key,null,16.667,720,410.5,,,,,,,,
555.1,arrowleft,psychophysics,422,472574,0.0-3.0-0.206,,key,arrowleft,16.667,720,410.5,207,8,1,20,15,25,35,FALSE
null,null,psychophysics,423,473576,0.0-3.0-1.206,,key,null,16.667,720,410.5,,,,,,,,
594.8,arrowright,psychophysics,424,474174,0.0-3.0-0.207,,key,arrowright,16.667,720,410.5,208,8,1,25,15,25,35,TRUE
null,null,psychophysics,425,475176,0.0-3.0-1.207,,key,null,16.667,720,410.5,,,,,,,,
715.5,arrowright,psychophysics,426,475895,0.0-3.0-0.208,,key,arrowright,16.667,720,410.5,209,8,-1,23,35,25,35,FALSE
null,null,psychophysics,427,476901,0.0-3.0-1.208,,key,null,16.667,720,410.5,,,,,,,,
535.6,arrowright,psychophysics,428,477449,0.0-3.0-0.209,,key,arrowright,16.667,720,410.5,210,8,-1,20,35,25,35,FALSE
null,null,psychophysics,429,478452,0.0-3.0-1.209,,key,null,16.667,720,410.5,,,,,,,,
586.5,arrowright,psychophysics,430,479043,0.0-3.0-0.210,,key,arrowright,16.667,720,410.5,211,8,1,27,15,25,35,TRUE
null,null,psychophysics,431,480046,0.0-3.0-1.210,,key,null,16.667,720,410.5,,,,,,,,
540.4,arrowleft,psychophysics,432,480589,0.0-3.0-0.211,,key,arrowleft,16.667,720,410.5,212,8,-1,26,35,25,35,TRUE
null,null,psychophysics,433,481591,0.0-3.0-1.211,,key,null,16.667,720,410.5,,,,,,,,
432.1,arrowright,psychophysics,434,482027,0.0-3.0-0.212,,key,arrowright,16.667,720,410.5,213,8,1,24,15,25,35,TRUE
null,null,psychophysics,435,483029,0.0-3.0-1.212,,key,null,16.667,720,410.5,,,,,,,,
514.2,arrowright,psychophysics,436,483558,0.0-3.0-0.213,,key,arrowright,16.667,720,410.5,214,8,1,26,15,25,35,TRUE
null,null,psychophysics,437,484560,0.0-3.0-1.213,,key,null,16.667,720,410.5,,,,,,,,
556,arrowleft,psychophysics,438,485130,0.0-3.0-0.214,,key,arrowleft,16.667,720,410.5,215,8,-1,27,15,25,35,TRUE
null,null,psychophysics,439,486132,0.0-3.0-1.214,,key,null,16.667,720,410.5,,,,,,,,
457.4,arrowright,psychophysics,440,486597,0.0-3.0-0.215,,key,arrowright,16.667,720,410.5,216,8,1,30,15,25,35,TRUE
null,null,psychophysics,441,487599,0.0-3.0-1.215,,key,null,16.667,720,410.5,,,,,,,,
471.5,arrowright,psychophysics,442,488075,0.0-3.0-0.216,,key,arrowright,16.667,720,410.5,217,8,1,26,15,25,35,TRUE
null,null,psychophysics,443,489078,0.0-3.0-1.216,,key,null,16.667,720,410.5,,,,,,,,
595.9,arrowleft,psychophysics,444,489689,0.0-3.0-0.217,,key,arrowleft,16.667,720,410.5,218,8,-1,26,35,25,35,TRUE
null,null,psychophysics,445,490691,0.0-3.0-1.217,,key,null,16.6750678,720,410.5,,,,,,,,
548.5,arrowright,psychophysics,446,491243,0.0-3.0-0.218,,key,arrowright,16.667,720,410.5,219,8,1,30,15,25,35,TRUE
null,null,psychophysics,447,492245,0.0-3.0-1.218,,key,null,16.667,720,410.5,,,,,,,,
698.5,arrowright,psychophysics,448,492947,0.0-3.0-0.219,,key,arrowright,16.667,720,410.5,220,8,-1,23,35,25,35,FALSE
null,null,psychophysics,449,493950,0.0-3.0-1.219,,key,null,16.667,720,410.5,,,,,,,,
456.5,arrowright,psychophysics,450,494413,0.0-3.0-0.220,,key,arrowright,16.667,720,410.5,221,8,1,27,15,25,35,TRUE
null,null,psychophysics,451,495415,0.0-3.0-1.220,,key,null,16.667,720,410.5,,,,,,,,
466.8,arrowleft,psychophysics,452,495894,0.0-3.0-0.221,,key,arrowleft,16.667,720,410.5,222,8,-1,26,15,25,35,TRUE
null,null,psychophysics,453,496897,0.0-3.0-1.221,,key,null,16.667,720,410.5,,,,,,,,
562.8,arrowright,psychophysics,454,497465,0.0-3.0-0.222,,key,arrowright,16.667,720,410.5,223,8,1,25,35,25,35,TRUE
null,null,psychophysics,455,498468,0.0-3.0-1.222,,key,null,16.667,720,410.5,,,,,,,,
494.8,arrowright,psychophysics,456,498967,0.0-3.0-0.223,,key,arrowright,16.667,720,410.5,224,9,1,25,15,25,35,TRUE
null,null,psychophysics,457,499971,0.0-3.0-1.223,,key,null,16.667,720,410.5,,,,,,,,
1329.8,arrowright,html-keyboard-response,458,501304,0.0-3.0-2.223-0.223,"<div style=""color: white; text-align: center; vertical-align: top; display: inline-block; width: 800px; margin: auto""><p>You have completed 80% of the trials. You are on block 9 of 10. <br>Good job! Take a break if you need to.</p><p>Press any key to continue the experiment.</p></div>",,,,,,,,,,,,,
627,arrowright,psychophysics,459,502953,0.0-3.0-0.224,,key,arrowright,16.68042105,720,410.5,225,9,1,25,35,25,35,TRUE
null,null,psychophysics,460,503956,0.0-3.0-1.224,,key,null,16.667,720,410.5,,,,,,,,
496.1,arrowleft,psychophysics,461,504456,0.0-3.0-0.225,,key,arrowleft,16.667,720,410.5,226,9,-1,27,15,25,35,TRUE
null,null,psychophysics,462,505460,0.0-3.0-1.225,,key,null,16.667,720,410.5,,,,,,,,
489.3,arrowright,psychophysics,463,505954,0.0-3.0-0.226,,key,arrowright,16.667,720,410.5,227,9,-1,23,35,25,35,FALSE
null,null,psychophysics,464,506957,0.0-3.0-1.226,,key,null,16.667,720,410.5,,,,,,,,
785.4,arrowright,psychophysics,465,507757,0.0-3.0-0.227,,key,arrowright,16.667,720,410.5,228,9,1,27,35,25,35,TRUE
null,null,psychophysics,466,508760,0.0-3.0-1.227,,key,null,16.667,720,410.5,,,,,,,,
646.7,arrowright,psychophysics,467,509410,0.0-3.0-0.228,,key,arrowright,16.667,720,410.5,229,9,1,23,15,25,35,TRUE
null,null,psychophysics,468,510414,0.0-3.0-1.228,,key,null,16.667,720,410.5,,,,,,,,
524.1,arrowright,psychophysics,469,510942,0.0-3.0-0.229,,key,arrowright,16.667,720,410.5,230,9,-1,23,35,25,35,FALSE
null,null,psychophysics,470,511944,0.0-3.0-1.229,,key,null,16.6750678,720,410.5,,,,,,,,
487.3,arrowleft,psychophysics,471,512435,0.0-3.0-0.230,,key,arrowleft,16.667,720,410.5,231,9,-1,30,15,25,35,TRUE
null,null,psychophysics,472,513439,0.0-3.0-1.230,,key,null,16.667,720,410.5,,,,,,,,
411.9,arrowright,psychophysics,473,513866,0.0-3.0-0.231,,key,arrowright,16.667,720,410.5,232,9,1,26,35,25,35,TRUE
null,null,psychophysics,474,514868,0.0-3.0-1.231,,key,null,16.667,720,410.5,,,,,,,,
413.7,arrowright,psychophysics,475,515290,0.0-3.0-0.232,,key,arrowright,16.667,720,410.5,233,9,-1,30,15,25,35,FALSE
null,null,psychophysics,476,516293,0.0-3.0-1.232,,key,null,17.25180702,720,410.5,,,,,,,,
534.9,arrowright,psychophysics,477,516835,0.0-3.0-0.233,,key,arrowright,16.667,720,410.5,234,9,1,27,15,25,35,TRUE
null,null,psychophysics,478,517838,0.0-3.0-1.233,,key,null,16.667,720,410.5,,,,,,,,
461.5,arrowleft,psychophysics,479,518305,0.0-3.0-0.234,,key,arrowleft,16.667,720,410.5,235,9,-1,24,15,25,35,TRUE
null,null,psychophysics,480,519308,0.0-3.0-1.234,,key,null,16.667,720,410.5,,,,,,,,
791.5,arrowleft,psychophysics,481,520115,0.0-3.0-0.235,,key,arrowleft,16.667,720,410.5,236,9,-1,30,35,25,35,TRUE
null,null,psychophysics,482,521118,0.0-3.0-1.235,,key,null,16.667,720,410.5,,,,,,,,
534.8,arrowright,psychophysics,483,521656,0.0-3.0-0.236,,key,arrowright,17.23843333,720,410.5,237,9,-1,20,15,25,35,FALSE
null,null,psychophysics,484,522658,0.0-3.0-1.236,,key,null,16.667,720,410.5,,,,,,,,
1377.5,arrowright,psychophysics,485,524041,0.0-3.0-0.237,,key,arrowright,16.667,720,410.5,238,9,1,20,15,25,35,TRUE
null,null,psychophysics,486,525043,0.0-3.0-1.237,,key,null,16.667,720,410.5,,,,,,,,
974.1,arrowright,psychophysics,487,526033,0.0-3.0-0.238,,key,arrowright,16.667,720,410.5,239,9,-1,20,15,25,35,FALSE
null,null,psychophysics,488,527036,0.0-3.0-1.238,,key,null,16.667,720,410.5,,,,,,,,
798.5,arrowright,psychophysics,489,527839,0.0-3.0-0.239,,key,arrowright,16.667,720,410.5,240,9,1,30,35,25,35,TRUE
null,null,psychophysics,490,528842,0.0-3.0-1.239,,key,null,16.667,720,410.5,,,,,,,,
528.2,arrowright,psychophysics,491,529374,0.0-3.0-0.240,,key,arrowright,16.667,720,410.5,241,9,-1,23,15,25,35,FALSE
null,null,psychophysics,492,530376,0.0-3.0-1.240,,key,null,16.667,720,410.5,,,,,,,,
2157.6,arrowright,psychophysics,493,532538,0.0-3.0-0.241,,key,arrowright,16.67068992,720,410.5,242,9,-1,24,15,25,35,FALSE
null,null,psychophysics,494,533549,0.0-3.0-1.241,,key,null,16.667,720,410.5,,,,,,,,
511.3,arrowleft,psychophysics,495,534074,0.0-3.0-0.242,,key,arrowleft,16.667,720,410.5,243,9,-1,30,15,25,35,TRUE
null,null,psychophysics,496,535077,0.0-3.0-1.242,,key,null,16.667,720,410.5,,,,,,,,
476.6,arrowleft,psychophysics,497,535559,0.0-3.0-0.243,,key,arrowleft,16.667,720,410.5,244,9,-1,25,15,25,35,TRUE
null,null,psychophysics,498,536562,0.0-3.0-1.243,,key,null,16.667,720,410.5,,,,,,,,
1610.3,arrowright,psychophysics,499,538178,0.0-3.0-0.244,,key,arrowright,16.667,720,410.5,245,9,-1,24,35,25,35,FALSE
null,null,psychophysics,500,539186,0.0-3.0-1.244,,key,null,16.667,720,410.5,,,,,,,,
892.7,arrowright,psychophysics,501,540083,0.0-3.0-0.245,,key,arrowright,16.667,720,410.5,246,9,1,24,35,25,35,TRUE
null,null,psychophysics,502,541085,0.0-3.0-1.245,,key,null,16.667,720,410.5,,,,,,,,
584.2,arrowright,psychophysics,503,541673,0.0-3.0-0.246,,key,arrowright,16.681,720,410.5,247,9,1,27,35,25,35,TRUE
null,null,psychophysics,504,542676,0.0-3.0-1.246,,key,null,16.667,720,410.5,,,,,,,,
782.9,arrowright,psychophysics,505,543462,0.0-3.0-0.247,,key,arrowright,16.667,720,410.5,248,9,1,26,15,25,35,TRUE
null,null,psychophysics,506,544465,0.0-3.0-1.247,,key,null,16.667,720,410.5,,,,,,,,
856.7,arrowleft,psychophysics,507,545337,0.0-3.0-0.248,,key,arrowleft,16.667,720,410.5,249,9,1,20,35,25,35,FALSE
null,null,psychophysics,508,546339,0.0-3.0-1.248,,key,null,16.667,720,410.5,,,,,,,,
1621.4,arrowright,psychophysics,509,547964,0.0-3.0-0.249,,key,arrowright,16.667,720,410.5,250,9,-1,24,35,25,35,FALSE
null,null,psychophysics,510,548967,0.0-3.0-1.249,,key,null,16.667,720,410.5,,,,,,,,
1656.4,arrowright,psychophysics,511,550631,0.0-3.0-0.250,,key,arrowright,16.667,720,410.5,251,9,-1,27,35,25,35,FALSE
null,null,psychophysics,512,551639,0.0-3.0-1.250,,key,null,16.67495,720,410.5,,,,,,,,
604.9,arrowright,psychophysics,513,552248,0.0-3.0-0.251,,key,arrowright,16.667,720,410.5,252,10,1,25,15,25,35,TRUE
null,null,psychophysics,514,553251,0.0-3.0-1.251,,key,null,16.667,720,410.5,,,,,,,,
2109.6,arrowright,html-keyboard-response,515,555363,0.0-3.0-2.251-0.251,"<div style=""color: white; text-align: center; vertical-align: top; display: inline-block; width: 800px; margin: auto""><p>You have completed 90% of the trials. You are on block 10 of 10. <br>Good job! Take a break if you need to.</p><p>Press any key to continue the experiment.</p></div>",,,,,,,,,,,,,
1131.7,arrowright,psychophysics,516,557514,0.0-3.0-0.252,,key,arrowright,16.667,720,410.5,253,10,1,24,35,25,35,TRUE
null,null,psychophysics,517,558522,0.0-3.0-1.252,,key,null,16.667,720,410.5,,,,,,,,
537.6,arrowright,psychophysics,518,559063,0.0-3.0-0.253,,key,arrowright,16.667,720,410.5,254,10,-1,26,35,25,35,FALSE
null,null,psychophysics,519,560064,0.0-3.0-1.253,,key,null,16.667,720,410.5,,,,,,,,
502.1,arrowright,psychophysics,520,560572,0.0-3.0-0.254,,key,arrowright,16.667,720,410.5,255,10,1,26,15,25,35,TRUE
null,null,psychophysics,521,561574,0.0-3.0-1.254,,key,null,16.667,720,410.5,,,,,,,,
713.1,arrowleft,psychophysics,522,562291,0.0-3.0-0.255,,key,arrowleft,16.67833333,720,410.5,256,10,1,26,35,25,35,FALSE
null,null,psychophysics,523,563293,0.0-3.0-1.255,,key,null,16.667,720,410.5,,,,,,,,
757.6,arrowright,psychophysics,524,564064,0.0-3.0-0.256,,key,arrowright,16.667,720,410.5,257,10,1,30,35,25,35,TRUE
null,null,psychophysics,525,565067,0.0-3.0-1.256,,key,null,16.667,720,410.5,,,,,,,,
597.2,arrowleft,psychophysics,526,565676,0.0-3.0-0.257,,key,arrowleft,16.667,720,410.5,258,10,-1,24,15,25,35,TRUE
null,null,psychophysics,527,566680,0.0-3.0-1.257,,key,null,16.667,720,410.5,,,,,,,,
1295.4,arrowright,psychophysics,528,567979,0.0-3.0-0.258,,key,arrowright,16.667,720,410.5,259,10,-1,20,15,25,35,FALSE
null,null,psychophysics,529,568981,0.0-3.0-1.258,,key,null,16.667,720,410.5,,,,,,,,
912.7,arrowleft,psychophysics,530,569909,0.0-3.0-0.259,,key,arrowleft,16.667,720,410.5,260,10,-1,27,15,25,35,TRUE
null,null,psychophysics,531,570911,0.0-3.0-1.259,,key,null,16.667,720,410.5,,,,,,,,
1297.4,arrowright,psychophysics,532,572211,0.0-3.0-0.260,,key,arrowright,16.67318182,720,410.5,261,10,1,24,15,25,35,TRUE
null,null,psychophysics,533,573212,0.0-3.0-1.260,,key,null,16.667,720,410.5,,,,,,,,
512.8,arrowleft,psychophysics,534,573728,0.0-3.0-0.261,,key,arrowleft,16.667,720,410.5,262,10,-1,25,15,25,35,TRUE
null,null,psychophysics,535,574731,0.0-3.0-1.261,,key,null,16.667,720,410.5,,,,,,,,
1704.3,arrowright,psychophysics,536,576458,0.0-3.0-0.262,,key,arrowright,16.9970396,720,410.5,263,10,-1,26,35,25,35,FALSE
null,null,psychophysics,537,577460,0.0-3.0-1.262,,key,null,16.667,720,410.5,,,,,,,,
550.3,arrowleft,psychophysics,538,578014,0.0-3.0-0.263,,key,arrowleft,16.667,720,410.5,264,10,-1,24,15,25,35,TRUE
null,null,psychophysics,539,579017,0.0-3.0-1.263,,key,null,16.667,720,410.5,,,,,,,,
454.1,arrowleft,psychophysics,540,579474,0.0-3.0-0.264,,key,arrowleft,16.667,720,410.5,265,10,-1,25,15,25,35,TRUE
null,null,psychophysics,541,580476,0.0-3.0-1.264,,key,null,16.667,720,410.5,,,,,,,,
330.7,arrowright,psychophysics,542,580820,0.0-3.0-0.265,,key,arrowright,16.667,720,410.5,266,10,-1,26,15,25,35,FALSE
null,null,psychophysics,543,581824,0.0-3.0-1.265,,key,null,16.67493333,720,410.5,,,,,,,,
525.7,arrowright,psychophysics,544,582354,0.0-3.0-0.266,,key,arrowright,16.667,720,410.5,267,10,-1,20,15,25,35,FALSE
null,null,psychophysics,545,583357,0.0-3.0-1.266,,key,null,16.667,720,410.5,,,,,,,,
618.4,arrowright,psychophysics,546,583980,0.0-3.0-0.267,,key,arrowright,16.667,720,410.5,268,10,1,27,15,25,35,TRUE
null,null,psychophysics,547,584983,0.0-3.0-1.267,,key,null,16.667,720,410.5,,,,,,,,
555.8,arrowright,psychophysics,548,585543,0.0-3.0-0.268,,key,arrowright,16.667,720,410.5,269,10,-1,24,35,25,35,FALSE
null,null,psychophysics,549,586546,0.0-3.0-1.268,,key,null,16.667,720,410.5,,,,,,,,
579.9,arrowleft,psychophysics,550,587142,0.0-3.0-0.269,,key,arrowleft,16.667,720,410.5,270,10,-1,24,15,25,35,TRUE
null,null,psychophysics,551,588144,0.0-3.0-1.269,,key,null,16.667,720,410.5,,,,,,,,
732.2,arrowright,psychophysics,552,588879,0.0-3.0-0.270,,key,arrowright,16.667,720,410.5,271,10,1,25,15,25,35,TRUE
null,null,psychophysics,553,589881,0.0-3.0-1.270,,key,null,16.667,720,410.5,,,,,,,,
528.5,arrowright,psychophysics,554,590413,0.0-3.0-0.271,,key,arrowright,16.667,720,410.5,272,10,1,30,35,25,35,TRUE
null,null,psychophysics,555,591416,0.0-3.0-1.271,,key,null,16.667,720,410.5,,,,,,,,
392.6,arrowleft,psychophysics,556,591811,0.0-3.0-0.272,,key,arrowleft,16.68769565,720,410.5,273,10,1,23,15,25,35,FALSE
null,null,psychophysics,557,592814,0.0-3.0-1.272,,key,null,16.667,720,410.5,,,,,,,,
554,arrowright,psychophysics,558,593385,0.0-3.0-0.273,,key,arrowright,16.667,720,410.5,274,10,1,24,35,25,35,TRUE
null,null,psychophysics,559,594387,0.0-3.0-1.273,,key,null,16.667,720,410.5,,,,,,,,
568.9,arrowright,psychophysics,560,594965,0.0-3.0-0.274,,key,arrowright,16.667,720,410.5,275,10,1,30,15,25,35,TRUE
null,null,psychophysics,561,595967,0.0-3.0-1.274,,key,null,16.667,720,410.5,,,,,,,,
416,arrowright,psychophysics,562,596387,0.0-3.0-0.275,,key,arrowright,16.667,720,410.5,276,10,1,23,15,25,35,TRUE
null,null,psychophysics,563,597390,0.0-3.0-1.275,,key,null,16.667,720,410.5,,,,,,,,
402.1,arrowright,psychophysics,564,597800,0.0-3.0-0.276,,key,arrowright,16.667,720,410.5,277,10,1,25,15,25,35,TRUE
null,null,psychophysics,565,598802,0.0-3.0-1.276,,key,null,16.667,720,410.5,,,,,,,,
402.8,arrowright,psychophysics,566,599221,0.0-3.0-0.277,,key,arrowright,16.667,720,410.5,278,10,1,25,35,25,35,TRUE
null,null,psychophysics,567,600225,0.0-3.0-1.277,,key,null,16.667,720,410.5,,,,,,,,
268.5,arrowright,psychophysics,568,600501,0.0-3.0-0.278,,key,arrowright,16.667,720,410.5,279,10,1,23,35,25,35,TRUE
null,null,psychophysics,569,601504,0.0-3.0-1.278,,key,null,16.667,720,410.5,,,,,,,,
492.3,arrowright,psychophysics,570,602001,0.0-3.0-0.279,,key,arrowright,16.68344828,720,410.5,280,11,-1,30,35,25,35,FALSE
null,null,psychophysics,571,603005,0.0-3.0-1.279,,key,null,16.667,720,410.5,,,,,,,,