"rt","response","trial_type","trial_index","time_elapsed","internal_node_id","stimulus","response_type","key_press","avg_frame_time","center_x","center_y","trial","block","test_pos","test_inner_radius","test_outer_radius","ref_inner_radius","ref_outer_radius","test_bigger"
"30752.5","{""p_id"":""5872"",""age"":""20"",""handedness"":""right"",""sex"":""male"",""other_sex"":""""}","survey-html-form","0","30757","0.0-0.0","","","","","","","","","","","","","",""
"12236.5"," ","html-keyboard-response","1","43000","0.0-1.0","<p style=""color: white"">Welcome to the Size Judgment Experiment. <br>There will be 10 blocks in this experiment. <br>There will be 28 trials in each block. <br>You will be given a chance to take a break between blocks. <br>Press any key to start the experiment.</p>","","","","","","","","","","","","",""
"50209.10000002384","arrowleft","psychophysics","2","93245","0.0-2.0","","key","arrowleft","16.67338844621514","720","319.5","","","","","","","",""
"1364.5","arrowright","psychophysics","3","94632","0.0-3.0-0.0","","key","arrowright","16.672987951807144","720","319.5","1","1","1","30","15","25","35","true"
"null","null","psychophysics","4","95637","0.0-3.0-1.0","","key","null","16.66700000000007","720","319.5","","","","","","","",""
"1015.1999999880791","arrowright","psychophysics","5","96657","0.0-3.0-0.1","","key","arrowright","16.66700000000007","720","319.5","2","1","1","30","15","25","35","true"
"null","null","psychophysics","6","97658","0.0-3.0-1.1","","key","null","16.6669999999998","720","319.5","","","","","","","",""
"2469","arrowright","psychophysics","7","100132","0.0-3.0-0.2","","key","arrowright","16.89688965517241","720","319.5","3","1","-1","20","15","25","35","false"
"null","null","psychophysics","8","101136","0.0-3.0-1.2","","key","null","16.66700000000007","720","319.5","","","","","","","",""
"1242.3999999761581","arrowright","psychophysics","9","102394","0.0-3.0-0.3","","key","arrowright","16.666999999999906","720","319.5","4","1","1","26","15","25","35","true"
"null","null","psychophysics","10","103396","0.0-3.0-1.3","","key","null","16.675338983050867","720","319.5","","","","","","","",""
"3490.2999999821186","arrowright","psychophysics","11","106890","0.0-3.0-0.4","","key","arrowright","16.667000000000026","720","319.5","5","1","1","26","15","25","35","true"
"null","null","psychophysics","12","107894","0.0-3.0-1.4","","key","null","16.6669999999998","720","319.5","","","","","","","",""
"1181.4000000059605","arrowleft","psychophysics","13","109080","0.0-3.0-0.5","","key","arrowleft","16.667000000000034","720","319.5","6","1","-1","30","15","25","35","true"
"null","null","psychophysics","14","110082","0.0-3.0-1.5","","key","null","16.667000000000048","720","319.5","","","","","","","",""
"673.9000000059605","arrowright","psychophysics","15","110760","0.0-3.0-0.6","","key","arrowright","16.666999999999824","720","319.5","7","1","1","27","35","25","35","true"
"null","null","psychophysics","16","111762","0.0-3.0-1.6","","key","null","16.667000000000048","720","319.5","","","","","","","",""
"626.4000000059605","arrowleft","psychophysics","17","112392","0.0-3.0-0.7","","key","arrowleft","16.6670000000001","720","319.5","8","1","1","20","15","25","35","false"
"null","null","psychophysics","18","113397","0.0-3.0-1.7","","key","null","16.675322033898258","720","319.5","","","","","","","",""
"2760.0999999940395","arrowright","psychophysics","19","116162","0.0-3.0-0.8","","key","arrowright","16.66699999999996","720","319.5","9","1","1","25","35","25","35","true"
"null","null","psychophysics","20","117164","0.0-3.0-1.8","","key","null","16.667000000000048","720","319.5","","","","","","","",""
"948.0999999940395","arrowright","psychophysics","21","118116","0.0-3.0-0.9","","key","arrowright","16.66699999999998","720","319.5","10","1","1","26","15","25","35","true"
"null","null","psychophysics","22","119121","0.0-3.0-1.9","","key","null","16.666999999999824","720","319.5","","","","","","","",""
"1704","arrowright","psychophysics","23","120829","0.0-3.0-0.10","","key","arrowright","16.666999999999984","720","319.5","11","1","-1","27","35","25","35","false"
"null","null","psychophysics","24","121833","0.0-3.0-1.10","","key","null","16.667000000000048","720","319.5","","","","","","","",""
"820","arrowleft","psychophysics","25","122660","0.0-3.0-0.11","","key","arrowleft","16.667000000000094","720","319.5","12","1","-1","30","35","25","35","true"
"null","null","psychophysics","26","123663","0.0-3.0-1.11","","key","null","16.675355932203228","720","319.5","","","","","","","",""
"574.0999999940395","arrowright","psychophysics","27","124243","0.0-3.0-0.12","","key","arrowright","16.666999999999998","720","319.5","13","1","1","30","15","25","35","true"
"null","null","psychophysics","28","125246","0.0-3.0-1.12","","key","null","16.667000000000048","720","319.5","","","","","","","",""
"694.1999999880791","arrowright","psychophysics","29","125944","0.0-3.0-0.13","","key","arrowright","16.66699999999986","720","319.5","14","1","-1","24","35","25","35","false"
"null","null","psychophysics","30","126947","0.0-3.0-1.13","","key","null","16.667000000000048","720","319.5","","","","","","","",""
"612.0999999940395","arrowleft","psychophysics","31","127562","0.0-3.0-0.14","","key","arrowleft","16.66700000000007","720","319.5","15","1","1","20","15","25","35","false"
"null","null","psychophysics","32","128566","0.0-3.0-1.14","","key","null","16.6669999999998","720","319.5","","","","","","","",""
"642.0999999940395","arrowleft","psychophysics","33","129212","0.0-3.0-0.15","","key","arrowleft","16.667000000000133","720","319.5","16","1","-1","27","15","25","35","true"
"null","null","psychophysics","34","130217","0.0-3.0-1.15","","key","null","16.6669999999998","720","319.5","","","","","","","",""
"577.0999999940395","arrowleft","psychophysics","35","130797","0.0-3.0-0.16","","key","arrowleft","16.666999999999568","720","319.5","17","1","1","20","35","25","35","false"
"null","null","psychophysics","36","131801","0.0-3.0-1.16","","key","null","16.667000000000048","720","319.5","","","","","","","",""
"1607.2999999821186","arrowright","psychophysics","37","133412","0.0-3.0-0.17","","key","arrowright","16.671572916666566","720","319.5","18","1","-1","24","35","25","35","false"
"null","null","psychophysics","38","134415","0.0-3.0-1.17","","key","null","16.667000000000048","720","319.5","","","","","","","",""
"1390.699999988079","arrowright","psychophysics","39","135810","0.0-3.0-0.18","","key","arrowright","16.667000000000055","720","319.5","19","1","-1","23","35","25","35","false"
"null","null","psychophysics","40","136814","0.0-3.0-1.18","","key","null","16.667000000000048","720","319.5","","","","","","","",""
"595","arrowright","psychophysics","41","137413","0.0-3.0-0.19","","key","arrowright","16.667000000000034","720","319.5","20","1","-1","24","35","25","35","false"
"null","null","psychophysics","42","138416","0.0-3.0-1.19","","key","null","16.667000000000048","720","319.5","","","","","","","",""
"599","arrowright","psychophysics","43","139018","0.0-3.0-0.20","","key","arrowright","16.667000000000034","720","319.5","21","1","-1","20","35","25","35","false"
"null","null","psychophysics","44","140021","0.0-3.0-1.20","","key","null","16.667000000000048","720","319.5","","","","","","","",""
"2006.7000000178814","arrowright","psychophysics","45","142031","0.0-3.0-0.21","","key","arrowright","16.666999999999824","720","319.5","22","1","-1","20","15","25","35","false"
"null","null","psychophysics","46","143037","0.0-3.0-1.21","","key","null","16.667000000000048","720","319.5","","","","","","","",""
"768.6999999880791","arrowright","psychophysics","47","143811","0.0-3.0-0.22","","key","arrowright","16.67884782608725","720","319.5","23","1","1","25","15","25","35","true"
"null","null","psychophysics","48","144812","0.0-3.0-1.22","","key","null","16.667000000000048","720","319.5","","","","","","","",""
"582.0999999940395","arrowright","psychophysics","49","145398","0.0-3.0-0.23","","key","arrowright","16.667000000000424","720","319.5","24","1","1","27","35","25","35","true"
"null","null","psychophysics","50","146402","0.0-3.0-1.23","","key","null","16.667000000000048","720","319.5","","","","","","","",""
"792.4000000059605","arrowright","psychophysics","51","147197","0.0-3.0-0.24","","key","arrowright","16.66699999999973","720","319.5","25","1","-1","26","35","25","35","false"
"null","null","psychophysics","52","148201","0.0-3.0-1.24","","key","null","16.667000000000048","720","319.5","","","","","","","",""
"657.0999999940395","arrowleft","psychophysics","53","148863","0.0-3.0-0.25","","key","arrowleft","16.66700000000016","720","319.5","26","1","1","20","35","25","35","false"
"null","null","psychophysics","54","149865","0.0-3.0-1.25","","key","null","16.667000000000048","720","319.5","","","","","","","",""
"579.3000000119209","arrowleft","psychophysics","55","150448","0.0-3.0-0.26","","key","arrowleft","16.666999999999568","720","319.5","27","1","1","24","35","25","35","false"
"null","null","psychophysics","56","151451","0.0-3.0-1.26","","key","null","16.666999999999554","720","319.5","","","","","","","",""
"790.7000000178814","arrowright","psychophysics","57","152246","0.0-3.0-0.27","","key","arrowright","16.66699999999973","720","319.5","28","2","1","30","35","25","35","true"
"null","null","psychophysics","58","153250","0.0-3.0-1.27","","key","null","16.667000000000048","720","319.5","","","","","","","",""
"59412.40000000596"," ","html-keyboard-response","59","212665","0.0-3.0-2.27-0.27","<div style=""color: white; text-align: center; vertical-align: top; display: inline-block; width: 800px; margin: auto""><p>You have completed 10% of the trials. You are on block 2 of 10. <br>Good job! Take a break if you need to.</p><p>Press any key to continue the experiment.</p></div>","","","","","","","","","","","","",""
"2725.7999999821186","arrowright","psychophysics","60","216403","0.0-3.0-0.28","","key","arrowright","16.667000000000037","720","319.5","29","2","1","30","35","25","35","true"
"null","null","psychophysics","61","217406","0.0-3.0-1.28","","key","null","16.667000000000048","720","319.5","","","","","","","",""
"545.5","arrowleft","psychophysics","62","217955","0.0-3.0-0.29","","key","arrowleft","16.66700000000037","720","319.5","30","2","1","20","35","25","35","false"
"null","null","psychophysics","63","218958","0.0-3.0-1.29","","key","null","16.666999999999554","720","319.5","","","","","","","",""
"652.5999999940395","arrowright","psychophysics","64","219618","0.0-3.0-0.30","","key","arrowright","16.66700000000016","720","319.5","31","2","1","26","35","25","35","true"
"null","null","psychophysics","65","220621","0.0-3.0-1.30","","key","null","16.667000000000048","720","319.5","","","","","","","",""
"544","arrowright","psychophysics","66","221169","0.0-3.0-0.31","","key","arrowright","16.66700000000037","720","319.5","32","2","1","27","15","25","35","true"
"null","null","psychophysics","67","222172","0.0-3.0-1.31","","key","null","16.674457627118237","720","319.5","","","","","","","",""
"626.4000000059605","arrowright","psychophysics","68","222802","0.0-3.0-0.32","","key","arrowright","16.6670000000001","720","319.5","33","2","1","24","15","25","35","true"
"null","null","psychophysics","69","223806","0.0-3.0-1.32","","key","null","16.667000000000048","720","319.5","","","","","","","",""
"953","arrowright","psychophysics","70","224763","0.0-3.0-0.33","","key","arrowright","16.66699999999972","720","319.5","34","2","1","25","35","25","35","true"
"null","null","psychophysics","71","225769","0.0-3.0-1.33","","key","null","16.66700000000031","720","319.5","","","","","","","",""
"548.4000000059605","arrowright","psychophysics","72","226321","0.0-3.0-0.34","","key","arrowright","16.66700000000037","720","319.5","35","2","1","26","35","25","35","true"
"null","null","psychophysics","73","227324","0.0-3.0-1.34","","key","null","16.667000000000048","720","319.5","","","","","","","",""
"491.19999998807907","arrowright","psychophysics","74","227819","0.0-3.0-0.35","","key","arrowright","16.666999999999774","720","319.5","36","2","1","26","15","25","35","true"
"null","null","psychophysics","75","228821","0.0-3.0-1.35","","key","null","16.667000000000048","720","319.5","","","","","","","",""
"601.5999999940395","arrowright","psychophysics","76","229426","0.0-3.0-0.36","","key","arrowright","16.667000000000034","720","319.5","37","2","1","25","15","25","35","true"
"null","null","psychophysics","77","230429","0.0-3.0-1.36","","key","null","16.667000000000048","720","319.5","","","","","","","",""
"476.90000000596046","arrowright","psychophysics","78","230912","0.0-3.0-0.37","","key","arrowright","16.666999999999202","720","319.5","38","2","1","26","15","25","35","true"
"null","null","psychophysics","79","231916","0.0-3.0-1.37","","key","null","16.67521666666677","720","319.5","","","","","","","",""
"565.0999999940395","arrowright","psychophysics","80","232485","0.0-3.0-0.38","","key","arrowright","16.66699999999996","720","319.5","39","2","1","27","35","25","35","true"
"null","null","psychophysics","81","233487","0.0-3.0-1.38","","key","null","16.666999999999554","720","319.5","","","","","","","",""
"413.60000002384186","arrowright","psychophysics","82","233904","0.0-3.0-0.39","","key","arrowright","16.66700000000007","720","319.5","40","2","-1","23","35","25","35","false"
"null","null","psychophysics","83","234907","0.0-3.0-1.39","","key","null","16.667000000000048","720","319.5","","","","","","","",""
"1017.6999999880791","arrowright","psychophysics","84","235943","0.0-3.0-0.40","","key","arrowright","16.66699999999961","720","319.5","41","2","-1","24","15","25","35","false"
"null","null","psychophysics","85","236948","0.0-3.0-1.40","","key","null","17.544210526315606","720","319.5","","","","","","","",""
"2654.5","arrowright","psychophysics","86","239607","0.0-3.0-0.41","","key","arrowright","16.66699999999999","720","319.5","42","2","1","24","15","25","35","true"
"null","null","psychophysics","87","240611","0.0-3.0-1.41","","key","null","16.667000000000048","720","319.5","","","","","","","",""
"221862.90000000596","arrowleft","psychophysics","88","462482","0.0-3.0-0.42","","key","arrowleft","16.667852967693463","720","319.5","43","2","-1","26","15","25","35","true"
"null","null","psychophysics","89","463487","0.0-3.0-1.42","","key","null","16.66699999999934","720","319.5","","","","","","","",""
"966.8999999761581","arrowright","psychophysics","90","464457","0.0-3.0-0.43","","key","arrowright","16.667000000000513","720","319.5","44","2","1","24","35","25","35","true"
"null","null","psychophysics","91","465461","0.0-3.0-1.43","","key","null","16.667000000000048","720","319.5","","","","","","","",""
"582.1999999880791","arrowright","psychophysics","92","466046","0.0-3.0-0.44","","key","arrowright","16.667000000000424","720","319.5","45","2","-1","24","35","25","35","false"
"null","null","psychophysics","93","467050","0.0-3.0-1.44","","key","null","16.667000000000048","720","319.5","","","","","","","",""
"3230","arrowright","psychophysics","94","470284","0.0-3.0-0.45","","key","arrowright","16.66700000000015","720","319.5","46","2","1","24","15","25","35","true"
"null","null","psychophysics","95","471288","0.0-3.0-1.45","","key","null","16.66700000000031","720","319.5","","","","","","","",""
"568","arrowright","psychophysics","96","471859","0.0-3.0-0.46","","key","arrowright","16.66699999999996","720","319.5","47","2","-1","25","35","25","35","false"
"null","null","psychophysics","97","472862","0.0-3.0-1.46","","key","null","16.675576271186387","720","319.5","","","","","","","",""
"792.2999999821186","arrowright","psychophysics","98","473658","0.0-3.0-0.47","","key","arrowright","16.66700000000097","720","319.5","48","2","1","23","15","25","35","true"
"null","null","psychophysics","99","474661","0.0-3.0-1.47","","key","null","16.667000000000048","720","319.5","","","","","","","",""
"461.69999998807907","arrowright","psychophysics","100","475127","0.0-3.0-0.48","","key","arrowright","16.66700000000074","720","319.5","49","2","1","23","35","25","35","true"
"null","null","psychophysics","101","476130","0.0-3.0-1.48","","key","null","16.667000000000048","720","319.5","","","","","","","",""
"863.4000000059605","arrowleft","psychophysics","102","477001","0.0-3.0-0.49","","key","arrowleft","16.666999999999852","720","319.5","50","2","1","23","35","25","35","false"
"null","null","psychophysics","103","478005","0.0-3.0-1.49","","key","null","16.66700000000031","720","319.5","","","","","","","",""
"616.3999999761581","arrowleft","psychophysics","104","478625","0.0-3.0-0.50","","key","arrowleft","16.666999999999664","720","319.5","51","2","1","20","35","25","35","false"
"null","null","psychophysics","105","479627","0.0-3.0-1.50","","key","null","16.667000000000048","720","319.5","","","","","","","",""
"579.2000000178814","arrowright","psychophysics","106","480209","0.0-3.0-0.51","","key","arrowright","16.667000000000424","720","319.5","52","2","1","27","15","25","35","true"
"null","null","psychophysics","107","481213","0.0-3.0-1.51","","key","null","16.667000000000048","720","319.5","","","","","","","",""
"617.2999999821186","arrowleft","psychophysics","108","481834","0.0-3.0-0.52","","key","arrowleft","16.666999999999664","720","319.5","53","2","-1","24","15","25","35","true"
"null","null","psychophysics","109","482840","0.0-3.0-1.52","","key","null","16.957728813559218","720","319.5","","","","","","","",""
"759.7000000178814","arrowright","psychophysics","110","483603","0.0-3.0-0.53","","key","arrowright","16.66699999999996","720","319.5","54","2","-1","20","15","25","35","false"
"null","null","psychophysics","111","484605","0.0-3.0-1.53","","key","null","16.66699999999934","720","319.5","","","","","","","",""
"854.2999999821186","arrowright","psychophysics","112","485463","0.0-3.0-0.54","","key","arrowright","16.666999999999533","720","319.5","55","2","1","26","15","25","35","true"
"null","null","psychophysics","113","486465","0.0-3.0-1.54","","key","null","16.667000000000048","720","319.5","","","","","","","",""
"488.09999999403954","arrowright","psychophysics","114","486958","0.0-3.0-0.55","","key","arrowright","16.666999999999774","720","319.5","56","3","1","30","15","25","35","true"
"null","null","psychophysics","115","487961","0.0-3.0-1.55","","key","null","16.667000000000048","720","319.5","","","","","","","",""
"205495.40000000596"," ","html-keyboard-response","116","693465","0.0-3.0-2.55-0.55","<div style=""color: white; text-align: center; vertical-align: top; display: inline-block; width: 800px; margin: auto""><p>You have completed 20% of the trials. You are on block 3 of 10. <br>Good job! Take a break if you need to.</p><p>Press any key to continue the experiment.</p></div>","","","","","","","","","","","","",""
"787","arrowleft","psychophysics","117","695262","0.0-3.0-0.56","","key","arrowleft","16.535583333333005","720","319.5","57","3","-1","25","15","25","35","true"
"null","null","psychophysics","118","696267","0.0-3.0-1.56","","key","null","16.667000000000048","720","319.5","","","","","","","",""
"497.90000000596046","arrowleft","psychophysics","119","696768","0.0-3.0-0.57","","key","arrowleft","16.666999999999774","720","319.5","58","3","-1","26","15","25","35","true"
"null","null","psychophysics","120","697772","0.0-3.0-1.57","","key","null","16.667000000000048","720","319.5","","","","","","","",""
"443.10000002384186","arrowleft","psychophysics","121","698221","0.0-3.0-0.58","","key","arrowleft","16.666999999997923","720","319.5","59","3","-1","30","15","25","35","true"
"null","null","psychophysics","122","699223","0.0-3.0-1.58","","key","null","16.66700000000031","720","319.5","","","","","","","",""
"468.69999998807907","arrowright","psychophysics","123","699696","0.0-3.0-0.59","","key","arrowright","16.666999999998584","720","319.5","60","3","1","30","35","25","35","true"
"null","null","psychophysics","124","700700","0.0-3.0-1.59","","key","null","16.667000000000048","720","319.5","","","","","","","",""
"528.5999999940395","arrowleft","psychophysics","125","701246","0.0-3.0-0.60","","key","arrowleft","16.66700000000128","720","319.5","61","3","-1","23","15","25","35","true"
"null","null","psychophysics","126","702250","0.0-3.0-1.60","","key","null","16.667000000000048","720","319.5","","","","","","","",""
"498.5","arrowleft","psychophysics","127","702753","0.0-3.0-0.61","","key","arrowleft","16.666999999999774","720","319.5","62","3","-1","30","35","25","35","true"
"null","null","psychophysics","128","703755","0.0-3.0-1.61","","key","null","16.67522033898286","720","319.5","","","","","","","",""
"541.4000000059605","arrowright","psychophysics","129","704303","0.0-3.0-0.62","","key","arrowright","16.66700000000128","720","319.5","63","3","-1","27","35","25","35","false"
"null","null","psychophysics","130","705306","0.0-3.0-1.62","","key","null","16.667000000000048","720","319.5","","","","","","","",""
"623.1999999880791","arrowright","psychophysics","131","705932","0.0-3.0-0.63","","key","arrowright","16.6670000000001","720","319.5","64","3","1","25","15","25","35","true"
"null","null","psychophysics","132","706936","0.0-3.0-1.63","","key","null","16.667000000000048","720","319.5","","","","","","","",""
"866.9000000059605","arrowright","psychophysics","133","707813","0.0-3.0-0.64","","key","arrowright","16.66700000000016","720","319.5","65","3","-1","26","35","25","35","false"
"null","null","psychophysics","134","708816","0.0-3.0-1.64","","key","null","16.667000000000048","720","319.5","","","","","","","",""
"515.4000000059605","arrowleft","psychophysics","135","709335","0.0-3.0-0.65","","key","arrowleft","16.66700000000031","720","319.5","66","3","-1","27","15","25","35","true"
"null","null","psychophysics","136","710339","0.0-3.0-1.65","","key","null","16.667000000000048","720","319.5","","","","","","","",""
"3838.199999988079","arrowright","psychophysics","137","714181","0.0-3.0-0.66","","key","arrowright","16.66916521739154","720","319.5","67","3","-1","23","15","25","35","false"
"null","null","psychophysics","138","715187","0.0-3.0-1.66","","key","null","16.667000000000048","720","319.5","","","","","","","",""
"581.6999999880791","arrowright","psychophysics","139","715772","0.0-3.0-0.67","","key","arrowright","16.666999999998712","720","319.5","68","3","1","23","35","25","35","true"
"null","null","psychophysics","140","716774","0.0-3.0-1.67","","key","null","16.66700000000031","720","319.5","","","","","","","",""
"724","arrowleft","psychophysics","141","717503","0.0-3.0-0.68","","key","arrowleft","16.666999999999202","720","319.5","69","3","-1","27","15","25","35","true"
"null","null","psychophysics","142","718507","0.0-3.0-1.68","","key","null","16.667000000000048","720","319.5","","","","","","","",""
"570.7999999821186","arrowright","psychophysics","143","719081","0.0-3.0-0.69","","key","arrowright","16.666999999998712","720","319.5","70","3","-1","24","35","25","35","false"
"null","null","psychophysics","144","720084","0.0-3.0-1.69","","key","null","16.667000000000048","720","319.5","","","","","","","",""
"908.5","arrowright","psychophysics","145","720999","0.0-3.0-0.70","","key","arrowright","16.666999999998584","720","319.5","71","3","-1","26","35","25","35","false"
"null","null","psychophysics","146","722002","0.0-3.0-1.70","","key","null","16.667000000000048","720","319.5","","","","","","","",""
"509.2999999821186","arrowright","psychophysics","147","722515","0.0-3.0-0.71","","key","arrowright","16.66700000000031","720","319.5","72","3","1","23","15","25","35","true"
"null","null","psychophysics","148","723517","0.0-3.0-1.71","","key","null","16.667000000000048","720","319.5","","","","","","","",""
"614.3000000119209","arrowright","psychophysics","149","724136","0.0-3.0-0.72","","key","arrowright","16.680666666665477","720","319.5","73","3","1","25","15","25","35","true"
"null","null","psychophysics","150","725140","0.0-3.0-1.72","","key","null","16.667000000000048","720","319.5","","","","","","","",""
"1020.1999999880791","arrowright","psychophysics","151","726164","0.0-3.0-0.73","","key","arrowright","16.666999999998655","720","319.5","74","3","-1","27","35","25","35","false"
"null","null","psychophysics","152","727170","0.0-3.0-1.73","","key","null","16.667000000000048","720","319.5","","","","","","","",""
"732.4000000059605","arrowright","psychophysics","153","727906","0.0-3.0-0.74","","key","arrowright","16.66699999999959","720","319.5","75","3","1","23","15","25","35","true"
"null","null","psychophysics","154","728908","0.0-3.0-1.74","","key","null","16.667000000000048","720","319.5","","","","","","","",""
"603.4000000059605","arrowright","psychophysics","155","729514","0.0-3.0-0.75","","key","arrowright","16.666999999999664","720","319.5","76","3","-1","26","35","25","35","false"
"null","null","psychophysics","156","730516","0.0-3.0-1.75","","key","null","16.667000000000048","720","319.5","","","","","","","",""
"1435","arrowright","psychophysics","157","731953","0.0-3.0-0.76","","key","arrowright","16.666999999999398","720","319.5","77","3","1","20","35","25","35","true"
"null","null","psychophysics","158","732959","0.0-3.0-1.76","","key","null","16.66700000000031","720","319.5","","","","","","","",""
"518.6999999880791","arrowleft","psychophysics","159","733482","0.0-3.0-0.77","","key","arrowleft","16.66700000000031","720","319.5","78","3","-1","30","15","25","35","true"
"null","null","psychophysics","160","734485","0.0-3.0-1.77","","key","null","16.675203389829512","720","319.5","","","","","","","",""
"694.0999999940395","arrowright","psychophysics","161","735245","0.0-3.0-0.78","","key","arrowright","16.666999999998797","720","319.5","79","3","1","24","35","25","35","true"
"null","null","psychophysics","162","736247","0.0-3.0-1.78","","key","null","16.954362068965565","720","319.5","","","","","","","",""
"847","arrowright","psychophysics","163","737098","0.0-3.0-0.79","","key","arrowright","16.666999999999533","720","319.5","80","3","1","20","15","25","35","true"
"null","null","psychophysics","164","738101","0.0-3.0-1.79","","key","null","16.667000000000048","720","319.5","","","","","","","",""
"611","arrowright","psychophysics","165","738719","0.0-3.0-0.80","","key","arrowright","16.666999999999664","720","319.5","81","3","1","24","35","25","35","true"
"null","null","psychophysics","166","739721","0.0-3.0-1.80","","key","null","16.667000000000048","720","319.5","","","","","","","",""
"950.0999999940395","arrowright","psychophysics","167","740676","0.0-3.0-0.81","","key","arrowright","16.666999999999494","720","319.5","82","3","-1","23","15","25","35","false"
"null","null","psychophysics","168","741678","0.0-3.0-1.81","","key","null","16.667000000000048","720","319.5","","","","","","","",""
"464.19999998807907","arrowright","psychophysics","169","742146","0.0-3.0-0.82","","key","arrowright","16.666999999998584","720","319.5","83","3","1","27","15","25","35","true"
"null","null","psychophysics","170","743149","0.0-3.0-1.82","","key","null","16.667000000000048","720","319.5","","","","","","","",""
"627.0999999940395","arrowright","psychophysics","171","743779","0.0-3.0-0.83","","key","arrowright","16.680513513513613","720","319.5","84","4","1","25","35","25","35","true"
"null","null","psychophysics","172","744785","0.0-3.0-1.83","","key","null","16.667000000000048","720","319.5","","","","","","","",""
"2673.300000011921","arrowright","html-keyboard-response","173","747460","0.0-3.0-2.83-0.83","<div style=""color: white; text-align: center; vertical-align: top; display: inline-block; width: 800px; margin: auto""><p>You have completed 30% of the trials. You are on block 4 of 10. <br>Good job! Take a break if you need to.</p><p>Press any key to continue the experiment.</p></div>","","","","","","","","","","","","",""
"1701.2999999821186","arrowright","psychophysics","174","750171","0.0-3.0-0.84","","key","arrowright","16.666999999999852","720","319.5","85","4","-1","26","35","25","35","false"
"null","null","psychophysics","175","751176","0.0-3.0-1.84","","key","null","16.66699999999837","720","319.5","","","","","","","",""
"582.7000000178814","arrowright","psychophysics","176","751763","0.0-3.0-0.85","","key","arrowright","16.667000000002137","720","319.5","86","4","1","25","35","25","35","true"
"null","null","psychophysics","177","752766","0.0-3.0-1.85","","key","null","16.667000000000048","720","319.5","","","","","","","",""
"658.9000000059605","arrowright","psychophysics","178","753428","0.0-3.0-0.86","","key","arrowright","16.667000000000908","720","319.5","87","4","-1","27","35","25","35","false"
"null","null","psychophysics","179","754430","0.0-3.0-1.86","","key","null","16.675440677966513","720","319.5","","","","","","","",""
"996.1999999880791","arrowright","psychophysics","180","755430","0.0-3.0-0.87","","key","arrowright","16.667000000000048","720","319.5","88","4","-1","26","35","25","35","false"
"null","null","psychophysics","181","756433","0.0-3.0-1.87","","key","null","16.667000000000048","720","319.5","","","","","","","",""
"845.6000000238419","arrowleft","psychophysics","182","757286","0.0-3.0-0.88","","key","arrowleft","16.666999999999533","720","319.5","89","4","1","20","35","25","35","false"
"null","null","psychophysics","183","758302","0.0-3.0-1.88","","key","null","16.66700000000031","720","319.5","","","","","","","",""
"944.5","arrowright","psychophysics","184","759249","0.0-3.0-0.89","","key","arrowright","16.666999999999202","720","319.5","90","4","1","26","35","25","35","true"
"null","null","psychophysics","185","760252","0.0-3.0-1.89","","key","null","16.667000000000048","720","319.5","","","","","","","",""
"573","arrowleft","psychophysics","186","760830","0.0-3.0-0.90","","key","arrowleft","16.666999999998712","720","319.5","91","4","-1","30","35","25","35","true"
"null","null","psychophysics","187","761831","0.0-3.0-1.90","","key","null","16.667000000000048","720","319.5","","","","","","","",""
"563","arrowright","psychophysics","188","762398","0.0-3.0-0.91","","key","arrowright","16.66700000000172","720","319.5","92","4","1","27","35","25","35","true"
"null","null","psychophysics","189","763415","0.0-3.0-1.91","","key","null","16.66699999999837","720","319.5","","","","","","","",""
"628.3000000119209","arrowleft","psychophysics","190","764047","0.0-3.0-0.92","","key","arrowleft","16.68010810810783","720","319.5","93","4","-1","30","15","25","35","true"
"null","null","psychophysics","191","765049","0.0-3.0-1.92","","key","null","16.667000000000048","720","319.5","","","","","","","",""
"583.0999999940395","arrowleft","psychophysics","192","765635","0.0-3.0-0.93","","key","arrowleft","16.666999999998712","720","319.5","94","4","-1","30","15","25","35","true"
"null","null","psychophysics","193","766639","0.0-3.0-1.93","","key","null","16.667000000000048","720","319.5","","","","","","","",""
"496.7999999821186","arrowleft","psychophysics","194","767139","0.0-3.0-0.94","","key","arrowleft","16.666999999999774","720","319.5","95","4","-1","30","15","25","35","true"
"null","null","psychophysics","195","768154","0.0-3.0-1.94","","key","null","16.66700000000031","720","319.5","","","","","","","",""
"627","arrowright","psychophysics","196","768790","0.0-3.0-0.95","","key","arrowright","16.6670000000001","720","319.5","96","4","1","25","35","25","35","true"
"null","null","psychophysics","197","769795","0.0-3.0-1.95","","key","null","16.66699999999837","720","319.5","","","","","","","",""
"856.5999999940395","arrowleft","psychophysics","198","770656","0.0-3.0-0.96","","key","arrowleft","16.666999999999533","720","319.5","97","4","1","23","35","25","35","false"
"null","null","psychophysics","199","771658","0.0-3.0-1.96","","key","null","16.667000000000048","720","319.5","","","","","","","",""
"536.5999999940395","arrowleft","psychophysics","200","772198","0.0-3.0-0.97","","key","arrowleft","16.66700000000128","720","319.5","98","4","-1","25","15","25","35","true"
"null","null","psychophysics","201","773202","0.0-3.0-1.97","","key","null","16.667000000000048","720","319.5","","","","","","","",""
"567.6999999880791","arrowleft","psychophysics","202","773773","0.0-3.0-0.98","","key","arrowleft","16.666999999998193","720","319.5","99","4","1","20","15","25","35","false"
"null","null","psychophysics","203","774779","0.0-3.0-1.98","","key","null","16.674966666667025","720","319.5","","","","","","","",""
"518.8000000119209","arrowright","psychophysics","204","775314","0.0-3.0-0.99","","key","arrowright","16.666999999997056","720","319.5","100","4","1","30","15","25","35","true"
"null","null","psychophysics","205","776317","0.0-3.0-1.99","","key","null","16.667000000000048","720","319.5","","","","","","","",""
"519.3000000119209","arrowleft","psychophysics","206","776839","0.0-3.0-0.100","","key","arrowleft","16.66700000000031","720","319.5","101","4","-1","27","15","25","35","true"
"null","null","psychophysics","207","777842","0.0-3.0-1.100","","key","null","16.667000000000048","720","319.5","","","","","","","",""
"570.1999999880791","arrowright","psychophysics","208","778416","0.0-3.0-0.101","","key","arrowright","16.666999999998712","720","319.5","102","4","-1","24","35","25","35","false"
"null","null","psychophysics","209","779419","0.0-3.0-1.101","","key","null","16.667000000000048","720","319.5","","","","","","","",""
"547.1999999880791","arrowright","psychophysics","210","779974","0.0-3.0-0.102","","key","arrowright","16.666999999997643","720","319.5","103","4","-1","23","35","25","35","false"
"null","null","psychophysics","211","780978","0.0-3.0-1.102","","key","null","16.66700000000031","720","319.5","","","","","","","",""
"667.6999999880791","arrowleft","psychophysics","212","781650","0.0-3.0-0.103","","key","arrowleft","16.667000000000908","720","319.5","104","4","-1","25","15","25","35","true"
"null","null","psychophysics","213","782653","0.0-3.0-1.103","","key","null","16.667000000000048","720","319.5","","","","","","","",""
"491.7999999821186","arrowright","psychophysics","214","783148","0.0-3.0-0.104","","key","arrowright","16.666999999999774","720","319.5","105","4","1","27","15","25","35","true"
"null","null","psychophysics","215","784150","0.0-3.0-1.104","","key","null","16.675525423729304","720","319.5","","","","","","","",""
"529","arrowleft","psychophysics","216","784683","0.0-3.0-0.105","","key","arrowleft","16.66700000000081","720","319.5","106","4","-1","24","15","25","35","true"
"null","null","psychophysics","217","785684","0.0-3.0-1.105","","key","null","16.667000000000048","720","319.5","","","","","","","",""
"483","arrowright","psychophysics","218","786175","0.0-3.0-0.106","","key","arrowright","16.66700000000336","720","319.5","107","4","-1","24","35","25","35","false"
"null","null","psychophysics","219","787179","0.0-3.0-1.106","","key","null","16.66700000000031","720","319.5","","","","","","","",""
"622","arrowleft","psychophysics","220","787804","0.0-3.0-0.107","","key","arrowleft","16.666999999999664","720","319.5","108","4","-1","30","35","25","35","true"
"null","null","psychophysics","221","788807","0.0-3.0-1.107","","key","null","16.667000000000048","720","319.5","","","","","","","",""
"493.69999998807907","arrowright","psychophysics","222","789304","0.0-3.0-0.108","","key","arrowright","16.666999999999774","720","319.5","109","4","1","27","15","25","35","true"
"null","null","psychophysics","223","790308","0.0-3.0-1.108","","key","null","16.667000000000048","720","319.5","","","","","","","",""
"441.30000001192093","arrowright","psychophysics","224","790753","0.0-3.0-0.109","","key","arrowright","16.666999999997923","720","319.5","110","4","1","27","15","25","35","true"
"null","null","psychophysics","225","791757","0.0-3.0-1.109","","key","null","16.667000000000048","720","319.5","","","","","","","",""
"1091.2000000178814","arrowright","psychophysics","226","792860","0.0-3.0-0.110","","key","arrowright","16.666999999999714","720","319.5","111","4","1","25","15","25","35","true"
"null","null","psychophysics","227","793862","0.0-3.0-1.110","","key","null","16.66700000000031","720","319.5","","","","","","","",""
"438.90000000596046","arrowright","psychophysics","228","794306","0.0-3.0-0.111","","key","arrowright","16.68651999999769","720","319.5","112","5","1","30","35","25","35","true"
"null","null","psychophysics","229","795310","0.0-3.0-1.111","","key","null","16.667000000000048","720","319.5","","","","","","","",""
"986.4000000059605","arrowright","html-keyboard-response","230","796298","0.0-3.0-2.111-0.111","<div style=""color: white; text-align: center; vertical-align: top; display: inline-block; width: 800px; margin: auto""><p>You have completed 40% of the trials. You are on block 5 of 10. <br>Good job! Take a break if you need to.</p><p>Press any key to continue the experiment.</p></div>","","","","","","","","","","","","",""
"638.7000000178814","arrowright","psychophysics","231","797944","0.0-3.0-0.112","","key","arrowright","16.66699999999745","720","319.5","113","5","1","30","35","25","35","true"
"null","null","psychophysics","232","798951","0.0-3.0-1.112","","key","null","16.66700000000031","720","319.5","","","","","","","",""
"1618.1000000238419","arrowright","psychophysics","233","800573","0.0-3.0-0.113","","key","arrowright","16.66700000000007","720","319.5","114","5","1","20","15","25","35","true"
"null","null","psychophysics","234","801576","0.0-3.0-1.113","","key","null","16.667000000000048","720","319.5","","","","","","","",""
"574.0999999940395","arrowright","psychophysics","235","802156","0.0-3.0-0.114","","key","arrowright","16.666999999998712","720","319.5","115","5","-1","20","35","25","35","false"
"null","null","psychophysics","236","803160","0.0-3.0-1.114","","key","null","16.667000000000048","720","319.5","","","","","","","",""
"677.7000000178814","arrowright","psychophysics","237","803843","0.0-3.0-0.115","","key","arrowright","16.66699999999837","720","319.5","116","5","1","23","15","25","35","true"
"null","null","psychophysics","238","804850","0.0-3.0-1.115","","key","null","16.675166666666822","720","319.5","","","","","","","",""
"498.69999998807907","arrowright","psychophysics","239","805352","0.0-3.0-0.116","","key","arrowright","16.666999999999774","720","319.5","117","5","1","25","35","25","35","true"
"null","null","psychophysics","240","806355","0.0-3.0-1.116","","key","null","16.667000000000048","720","319.5","","","","","","","",""
"967.8000000119209","arrowleft","psychophysics","241","807327","0.0-3.0-0.117","","key","arrowleft","16.666999999999494","720","319.5","118","5","-1","23","15","25","35","true"
"null","null","psychophysics","242","808329","0.0-3.0-1.117","","key","null","16.66700000000031","720","319.5","","","","","","","",""
"573.2000000178814","arrowright","psychophysics","243","808907","0.0-3.0-0.118","","key","arrowright","16.666999999998193","720","319.5","119","5","1","25","15","25","35","true"
"null","null","psychophysics","244","809911","0.0-3.0-1.118","","key","null","16.667000000000048","720","319.5","","","","","","","",""
"612.3000000119209","arrowleft","psychophysics","245","810534","0.0-3.0-0.119","","key","arrowleft","16.6670000000001","720","319.5","120","5","-1","23","15","25","35","true"
"null","null","psychophysics","246","811536","0.0-3.0-1.119","","key","null","16.667000000000048","720","319.5","","","","","","","",""
"835.7999999821186","arrowleft","psychophysics","247","812375","0.0-3.0-0.120","","key","arrowleft","16.66700000000158","720","319.5","121","5","-1","20","15","25","35","true"
"null","null","psychophysics","248","813379","0.0-3.0-1.120","","key","null","16.667000000000048","720","319.5","","","","","","","",""
"821","arrowleft","psychophysics","249","814203","0.0-3.0-0.121","","key","arrowleft","16.677306122450652","720","319.5","122","5","1","23","35","25","35","false"
"null","null","psychophysics","250","815206","0.0-3.0-1.121","","key","null","16.667000000000048","720","319.5","","","","","","","",""
"810.5999999940395","arrowleft","psychophysics","251","816020","0.0-3.0-0.122","","key","arrowleft","16.66700000000128","720","319.5","123","5","-1","27","35","25","35","true"
"null","null","psychophysics","252","817027","0.0-3.0-1.122","","key","null","16.667000000000048","720","319.5","","","","","","","",""
"1481.6000000238419","arrowleft","psychophysics","253","818514","0.0-3.0-0.123","","key","arrowleft","16.66699999999996","720","319.5","124","5","-1","24","15","25","35","true"
"null","null","psychophysics","254","819516","0.0-3.0-1.123","","key","null","16.66699999999837","720","319.5","","","","","","","",""
"483.5","arrowleft","psychophysics","255","820003","0.0-3.0-0.124","","key","arrowleft","16.666999999999202","720","319.5","125","5","-1","30","35","25","35","true"
"null","null","psychophysics","256","821005","0.0-3.0-1.124","","key","null","16.667000000000048","720","319.5","","","","","","","",""
"643.6000000238419","arrowleft","psychophysics","257","821652","0.0-3.0-0.125","","key","arrowleft","16.667000000000513","720","319.5","126","5","-1","24","15","25","35","true"
"null","null","psychophysics","258","822659","0.0-3.0-1.125","","key","null","16.667000000000048","720","319.5","","","","","","","",""
"500.2999999821186","arrowleft","psychophysics","259","823163","0.0-3.0-0.126","","key","arrowleft","16.666999999999774","720","319.5","127","5","-1","20","15","25","35","true"
"null","null","psychophysics","260","824165","0.0-3.0-1.126","","key","null","16.675","720","319.5","","","","","","","",""
"920.9000000059605","arrowright","psychophysics","261","825091","0.0-3.0-0.127","","key","arrowright","16.66700000000074","720","319.5","128","5","1","30","35","25","35","true"
"null","null","psychophysics","262","826094","0.0-3.0-1.127","","key","null","16.667000000000048","720","319.5","","","","","","","",""
"606.6999999880791","arrowleft","psychophysics","263","826704","0.0-3.0-0.128","","key","arrowleft","16.666999999999664","720","319.5","129","5","-1","27","15","25","35","true"
"null","null","psychophysics","264","827707","0.0-3.0-1.128","","key","null","16.667000000000048","720","319.5","","","","","","","",""
"700.9000000059605","arrowright","psychophysics","265","828412","0.0-3.0-0.129","","key","arrowright","16.666999999998797","720","319.5","130","5","1","26","15","25","35","true"
"null","null","psychophysics","266","829430","0.0-3.0-1.129","","key","null","16.66700000000031","720","319.5","","","","","","","",""
"558.5","arrowright","psychophysics","267","829993","0.0-3.0-0.130","","key","arrowright","16.666999999998193","720","319.5","131","5","1","25","15","25","35","true"
"null","null","psychophysics","268","830997","0.0-3.0-1.130","","key","null","16.667000000000048","720","319.5","","","","","","","",""
"792","arrowleft","psychophysics","269","831793","0.0-3.0-0.131","","key","arrowleft","16.666999999998495","720","319.5","132","5","-1","25","15","25","35","true"
"null","null","psychophysics","270","832797","0.0-3.0-1.131","","key","null","16.667000000000048","720","319.5","","","","","","","",""
"526.7000000178814","arrowright","psychophysics","271","833327","0.0-3.0-0.132","","key","arrowright","16.66700000000081","720","319.5","133","5","1","26","15","25","35","true"
"null","null","psychophysics","272","834331","0.0-3.0-1.132","","key","null","16.675338983050374","720","319.5","","","","","","","",""
"711.8000000119209","arrowright","psychophysics","273","835053","0.0-3.0-0.133","","key","arrowright","16.66699999999959","720","319.5","134","5","1","23","15","25","35","true"
"null","null","psychophysics","274","836056","0.0-3.0-1.133","","key","null","16.667000000000048","720","319.5","","","","","","","",""
"531.5","arrowright","psychophysics","275","836606","0.0-3.0-0.134","","key","arrowright","16.666999999997643","720","319.5","135","5","1","25","35","25","35","true"
"null","null","psychophysics","276","837609","0.0-3.0-1.134","","key","null","16.667000000000048","720","319.5","","","","","","","",""
"461.90000000596046","arrowright","psychophysics","277","838074","0.0-3.0-0.135","","key","arrowright","16.666999999998584","720","319.5","136","5","-1","23","35","25","35","false"
"null","null","psychophysics","278","839077","0.0-3.0-1.135","","key","null","16.667000000000048","720","319.5","","","","","","","",""
"579.4000000059605","arrowleft","psychophysics","279","839660","0.0-3.0-0.136","","key","arrowleft","16.667000000002137","720","319.5","137","5","-1","23","15","25","35","true"
"null","null","psychophysics","280","840665","0.0-3.0-1.136","","key","null","16.667000000000048","720","319.5","","","","","","","",""
"434.39999997615814","arrowright","psychophysics","281","841110","0.0-3.0-0.137","","key","arrowright","16.6670000000024","720","319.5","138","5","-1","25","35","25","35","false"
"null","null","psychophysics","282","842114","0.0-3.0-1.137","","key","null","16.667000000000048","720","319.5","","","","","","","",""
"558","arrowleft","psychophysics","283","842677","0.0-3.0-0.138","","key","arrowleft","16.66700000000172","720","319.5","139","5","-1","30","15","25","35","true"
"null","null","psychophysics","284","843681","0.0-3.0-1.138","","key","null","16.667000000000048","720","319.5","","","","","","","",""
"570.9000000059605","arrowright","psychophysics","285","844256","0.0-3.0-0.139","","key","arrowright","16.681499999999204","720","319.5","140","6","1","25","35","25","35","true"
"null","null","psychophysics","286","845259","0.0-3.0-1.139","","key","null","16.667000000000048","720","319.5","","","","","","","",""
"5018.199999988079","arrowright","html-keyboard-response","287","850279","0.0-3.0-2.139-0.139","<div style=""color: white; text-align: center; vertical-align: top; display: inline-block; width: 800px; margin: auto""><p>You have completed 50% of the trials. You are on block 6 of 10. <br>Good job! Take a break if you need to.</p><p>Press any key to continue the experiment.</p></div>","","","","","","","","","","","","",""
"832.2000000178814","arrowleft","psychophysics","288","852124","0.0-3.0-0.140","","key","arrowleft","16.667000000001863","720","319.5","141","6","-1","25","15","25","35","true"
"null","null","psychophysics","289","853127","0.0-3.0-1.140","","key","null","16.666999999998072","720","319.5","","","","","","","",""
"1241.5","arrowleft","psychophysics","290","854372","0.0-3.0-0.141","","key","arrowleft","16.673689189189226","720","319.5","142","6","-1","30","15","25","35","true"
"null","null","psychophysics","291","855374","0.0-3.0-1.141","","key","null","16.667000000000048","720","319.5","","","","","","","",""
"630.3000000119209","arrowright","psychophysics","292","856008","0.0-3.0-0.142","","key","arrowright","16.6670000000001","720","319.5","143","6","-1","25","35","25","35","false"
"null","null","psychophysics","293","857015","0.0-3.0-1.142","","key","null","16.667000000000048","720","319.5","","","","","","","",""
"574.9000000059605","arrowleft","psychophysics","294","857593","0.0-3.0-0.143","","key","arrowleft","16.666999999998712","720","319.5","144","6","-1","24","15","25","35","true"
"null","null","psychophysics","295","858597","0.0-3.0-1.143","","key","null","16.667000000000048","720","319.5","","","","","","","",""
"534.5999999940395","arrowright","psychophysics","296","859135","0.0-3.0-0.144","","key","arrowright","16.66700000000081","720","319.5","145","6","-1","20","35","25","35","false"
"null","null","psychophysics","297","860137","0.0-3.0-1.144","","key","null","16.66700000000031","720","319.5","","","","","","","",""
"504.2999999821186","arrowright","psychophysics","298","860645","0.0-3.0-0.145","","key","arrowright","16.666999999999774","720","319.5","146","6","-1","27","35","25","35","false"
"null","null","psychophysics","299","861648","0.0-3.0-1.145","","key","null","16.667000000000048","720","319.5","","","","","","","",""
"480.40000000596046","arrowright","psychophysics","300","862141","0.0-3.0-0.146","","key","arrowright","16.666999999999774","720","319.5","147","6","1","30","15","25","35","true"
"null","null","psychophysics","301","863143","0.0-3.0-1.146","","key","null","16.667000000000048","720","319.5","","","","","","","",""
"381.5","arrowright","psychophysics","302","863528","0.0-3.0-0.147","","key","arrowright","16.66699999999996","720","319.5","148","6","1","26","15","25","35","true"
"null","null","psychophysics","303","864532","0.0-3.0-1.147","","key","null","16.67522033898286","720","319.5","","","","","","","",""
"599","arrowleft","psychophysics","304","865135","0.0-3.0-0.148","","key","arrowleft","16.667000000002528","720","319.5","149","6","-1","25","15","25","35","true"
"null","null","psychophysics","305","866137","0.0-3.0-1.148","","key","null","16.66699999999837","720","319.5","","","","","","","",""
"609.1999999880791","arrowright","psychophysics","306","866750","0.0-3.0-0.149","","key","arrowright","16.667000000002528","720","319.5","150","6","-1","25","35","25","35","false"
"null","null","psychophysics","307","867752","0.0-3.0-1.149","","key","null","16.66700000000031","720","319.5","","","","","","","",""
"413.19999998807907","arrowright","psychophysics","308","868175","0.0-3.0-0.150","","key","arrowright","16.66700000000128","720","319.5","151","6","-1","24","35","25","35","false"
"null","null","psychophysics","309","869178","0.0-3.0-1.150","","key","null","16.667000000000048","720","319.5","","","","","","","",""
"775.8999999761581","arrowright","psychophysics","310","869957","0.0-3.0-0.151","","key","arrowright","16.66699999999812","720","319.5","152","6","1","30","15","25","35","true"
"null","null","psychophysics","311","870959","0.0-3.0-1.151","","key","null","16.667000000000048","720","319.5","","","","","","","",""
"449.59999999403954","arrowright","psychophysics","312","871412","0.0-3.0-0.152","","key","arrowright","16.666999999997923","720","319.5","153","6","1","26","15","25","35","true"
"null","null","psychophysics","313","872416","0.0-3.0-1.152","","key","null","16.667000000000048","720","319.5","","","","","","","",""
"465","arrowright","psychophysics","314","872884","0.0-3.0-0.153","","key","arrowright","16.666999999998584","720","319.5","154","6","1","24","15","25","35","true"
"null","null","psychophysics","315","873888","0.0-3.0-1.153","","key","null","16.66700000000031","720","319.5","","","","","","","",""
"596.3000000119209","arrowleft","psychophysics","316","874492","0.0-3.0-0.154","","key","arrowleft","16.681314285714844","720","319.5","155","6","-1","30","35","25","35","true"
"null","null","psychophysics","317","875495","0.0-3.0-1.154","","key","null","16.667000000000048","720","319.5","","","","","","","",""
"471","arrowright","psychophysics","318","875970","0.0-3.0-0.155","","key","arrowright","16.666999999998584","720","319.5","156","6","1","30","35","25","35","true"
"null","null","psychophysics","319","876972","0.0-3.0-1.155","","key","null","16.66700000000031","720","319.5","","","","","","","",""
"1118.5","arrowleft","psychophysics","320","878094","0.0-3.0-0.156","","key","arrowleft","16.66700000000172","720","319.5","157","6","-1","23","15","25","35","true"
"null","null","psychophysics","321","879098","0.0-3.0-1.156","","key","null","16.667000000000048","720","319.5","","","","","","","",""
"513.5999999940395","arrowleft","psychophysics","322","879615","0.0-3.0-0.157","","key","arrowleft","16.66700000000031","720","319.5","158","6","1","20","15","25","35","false"
"null","null","psychophysics","323","880619","0.0-3.0-1.157","","key","null","16.667000000000048","720","319.5","","","","","","","",""
"598.3000000119209","arrowleft","psychophysics","324","881229","0.0-3.0-0.158","","key","arrowleft","16.666999999999664","720","319.5","159","6","-1","26","15","25","35","true"
"null","null","psychophysics","325","882232","0.0-3.0-1.158","","key","null","16.667000000000048","720","319.5","","","","","","","",""
"506.5","arrowright","psychophysics","326","882743","0.0-3.0-0.159","","key","arrowright","16.66700000000031","720","319.5","160","6","1","23","15","25","35","true"
"null","null","psychophysics","327","883746","0.0-3.0-1.159","","key","null","16.667000000000048","720","319.5","","","","","","","",""
"367.90000000596046","arrowright","psychophysics","328","884117","0.0-3.0-0.160","","key","arrowright","16.666999999999202","720","319.5","161","6","1","23","35","25","35","true"
"null","null","psychophysics","329","885119","0.0-3.0-1.160","","key","null","16.675440677966513","720","319.5","","","","","","","",""
"450.90000000596046","arrowright","psychophysics","330","885574","0.0-3.0-0.161","","key","arrowright","16.666999999998584","720","319.5","162","6","1","24","15","25","35","true"
"null","null","psychophysics","331","886576","0.0-3.0-1.161","","key","null","16.954362068965565","720","319.5","","","","","","","",""
"375.2000000178814","arrowright","psychophysics","332","886960","0.0-3.0-0.162","","key","arrowright","16.66699999999996","720","319.5","163","6","-1","25","35","25","35","false"
"null","null","psychophysics","333","887963","0.0-3.0-1.162","","key","null","16.667000000000048","720","319.5","","","","","","","",""
"541.8000000119209","arrowright","psychophysics","334","888508","0.0-3.0-0.163","","key","arrowright","16.666999999997643","720","319.5","164","6","1","24","15","25","35","true"
"null","null","psychophysics","335","889510","0.0-3.0-1.163","","key","null","16.667000000000048","720","319.5","","","","","","","",""
"296.30000001192093","arrowright","psychophysics","336","889810","0.0-3.0-0.164","","key","arrowright","16.667000000002137","720","319.5","165","6","-1","27","15","25","35","false"
"null","null","psychophysics","337","890813","0.0-3.0-1.164","","key","null","16.667000000000048","720","319.5","","","","","","","",""
"644.2999999821186","arrowright","psychophysics","338","891461","0.0-3.0-0.165","","key","arrowright","16.667000000000513","720","319.5","166","6","1","30","35","25","35","true"
"null","null","psychophysics","339","892462","0.0-3.0-1.165","","key","null","16.667000000000048","720","319.5","","","","","","","",""
"1141.2999999821186","arrowright","psychophysics","340","893611","0.0-3.0-0.166","","key","arrowright","16.667000000000424","720","319.5","167","6","-1","20","15","25","35","false"
"null","null","psychophysics","341","894614","0.0-3.0-1.166","","key","null","16.67522033898286","720","319.5","","","","","","","",""
"520.5","arrowleft","psychophysics","342","895138","0.0-3.0-0.167","","key","arrowleft","16.66699999999643","720","319.5","168","7","-1","27","15","25","35","true"
"null","null","psychophysics","343","896140","0.0-3.0-1.167","","key","null","16.66700000000031","720","319.5","","","","","","","",""
"1272.7999999821186","arrowright","html-keyboard-response","344","897416","0.0-3.0-2.167-0.167","<div style=""color: white; text-align: center; vertical-align: top; display: inline-block; width: 800px; margin: auto""><p>You have completed 60% of the trials. You are on block 7 of 10. <br>Good job! Take a break if you need to.</p><p>Press any key to continue the experiment.</p></div>","","","","","","","","","","","","",""
"552","arrowright","psychophysics","345","898978","0.0-3.0-0.168","","key","arrowright","16.666999999998193","720","319.5","169","7","-1","25","35","25","35","false"
"null","null","psychophysics","346","899986","0.0-3.0-1.168","","key","null","16.667000000000048","720","319.5","","","","","","","",""
"668","arrowright","psychophysics","347","900660","0.0-3.0-0.169","","key","arrowright","16.66699999999837","720","319.5","170","7","-1","27","35","25","35","false"
"null","null","psychophysics","348","901662","0.0-3.0-1.169","","key","null","16.667000000000048","720","319.5","","","","","","","",""
"531.1999999880791","arrowleft","psychophysics","349","902197","0.0-3.0-0.170","","key","arrowleft","16.66700000000081","720","319.5","171","7","-1","25","15","25","35","true"
"null","null","psychophysics","350","903200","0.0-3.0-1.170","","key","null","16.667000000000048","720","319.5","","","","","","","",""
"489.59999999403954","arrowleft","psychophysics","351","903693","0.0-3.0-0.171","","key","arrowleft","16.666999999999774","720","319.5","172","7","-1","27","15","25","35","true"
"null","null","psychophysics","352","904695","0.0-3.0-1.171","","key","null","16.675423728815137","720","319.5","","","","","","","",""
"584.5","arrowright","psychophysics","353","905283","0.0-3.0-0.172","","key","arrowright","16.667000000002137","720","319.5","173","7","1","24","15","25","35","true"
"null","null","psychophysics","354","906291","0.0-3.0-1.172","","key","null","16.66700000000031","720","319.5","","","","","","","",""
"753.4000000059605","arrowright","psychophysics","355","907048","0.0-3.0-0.173","","key","arrowright","16.66699999999996","720","319.5","174","7","1","27","35","25","35","true"
"null","null","psychophysics","356","908052","0.0-3.0-1.173","","key","null","16.667000000000048","720","319.5","","","","","","","",""
"472.7999999821186","arrowright","psychophysics","357","908529","0.0-3.0-0.174","","key","arrowright","16.666999999999202","720","319.5","175","7","-1","20","15","25","35","false"
"null","null","psychophysics","358","909532","0.0-3.0-1.174","","key","null","16.667000000000048","720","319.5","","","","","","","",""
"642.1999999880791","arrowleft","psychophysics","359","910177","0.0-3.0-0.175","","key","arrowleft","16.667000000000513","720","319.5","176","7","-1","27","15","25","35","true"
"null","null","psychophysics","360","911179","0.0-3.0-1.175","","key","null","16.667000000000048","720","319.5","","","","","","","",""
"626.4000000059605","arrowright","psychophysics","361","911827","0.0-3.0-0.176","","key","arrowright","16.66699999999745","720","319.5","177","7","-1","24","15","25","35","false"
"null","null","psychophysics","362","912829","0.0-3.0-1.176","","key","null","16.667000000000048","720","319.5","","","","","","","",""
"588.2999999821186","arrowleft","psychophysics","363","913421","0.0-3.0-0.177","","key","arrowleft","16.666999999998712","720","319.5","178","7","1","20","15","25","35","false"
"null","null","psychophysics","364","914423","0.0-3.0-1.177","","key","null","16.67498333333448","720","319.5","","","","","","","",""
"701.3999999761581","arrowleft","psychophysics","365","915130","0.0-3.0-0.178","","key","arrowleft","16.666999999998797","720","319.5","179","7","-1","30","15","25","35","true"
"null","null","psychophysics","366","916133","0.0-3.0-1.178","","key","null","16.667000000000048","720","319.5","","","","","","","",""
"546.9000000059605","arrowright","psychophysics","367","916683","0.0-3.0-0.179","","key","arrowright","16.666999999997643","720","319.5","180","7","-1","20","35","25","35","false"
"null","null","psychophysics","368","917687","0.0-3.0-1.179","","key","null","16.667000000000048","720","319.5","","","","","","","",""
"636.5","arrowright","psychophysics","369","918346","0.0-3.0-0.180","","key","arrowright","16.667000000000908","720","319.5","181","7","1","23","15","25","35","true"
"null","null","psychophysics","370","919349","0.0-3.0-1.180","","key","null","16.667000000000048","720","319.5","","","","","","","",""
"514.2999999821186","arrowright","psychophysics","371","919867","0.0-3.0-0.181","","key","arrowright","16.66699999999643","720","319.5","182","7","1","26","35","25","35","true"
"null","null","psychophysics","372","920871","0.0-3.0-1.181","","key","null","16.667000000000048","720","319.5","","","","","","","",""
"393.7000000178814","arrowright","psychophysics","373","921268","0.0-3.0-0.182","","key","arrowright","16.667000000000648","720","319.5","183","7","1","27","15","25","35","true"
"null","null","psychophysics","374","922271","0.0-3.0-1.182","","key","null","16.667000000000048","720","319.5","","","","","","","",""
"622.5","arrowright","psychophysics","375","922898","0.0-3.0-0.183","","key","arrowright","16.6670000000001","720","319.5","184","7","-1","23","35","25","35","false"
"null","null","psychophysics","376","923901","0.0-3.0-1.183","","key","null","16.667000000000048","720","319.5","","","","","","","",""
"532.6999999880791","arrowright","psychophysics","377","924447","0.0-3.0-0.184","","key","arrowright","16.682593749999796","720","319.5","185","7","1","27","15","25","35","true"
"null","null","psychophysics","378","925450","0.0-3.0-1.184","","key","null","16.667000000000048","720","319.5","","","","","","","",""
"795.6999999880791","arrowright","psychophysics","379","926249","0.0-3.0-0.185","","key","arrowright","16.66700000000097","720","319.5","186","7","1","24","35","25","35","true"
"null","null","psychophysics","380","927252","0.0-3.0-1.185","","key","null","16.667000000000048","720","319.5","","","","","","","",""
"575.1999999880791","arrowleft","psychophysics","381","927831","0.0-3.0-0.186","","key","arrowleft","16.667000000002137","720","319.5","187","7","-1","26","15","25","35","true"
"null","null","psychophysics","382","928834","0.0-3.0-1.186","","key","null","16.667000000000048","720","319.5","","","","","","","",""
"729.7999999821186","arrowleft","psychophysics","383","929567","0.0-3.0-0.187","","key","arrowleft","16.66699999999959","720","319.5","188","7","-1","30","35","25","35","true"
"null","null","psychophysics","384","930570","0.0-3.0-1.187","","key","null","16.667000000000048","720","319.5","","","","","","","",""
"535.3000000119209","arrowright","psychophysics","385","931118","0.0-3.0-0.188","","key","arrowright","16.66700000000128","720","319.5","189","7","1","30","15","25","35","true"
"null","null","psychophysics","386","932122","0.0-3.0-1.188","","key","null","16.667000000000048","720","319.5","","","","","","","",""
"621.6999999880791","arrowleft","psychophysics","387","932748","0.0-3.0-0.189","","key","arrowleft","16.6670000000001","720","319.5","190","7","1","23","35","25","35","false"
"null","null","psychophysics","388","933751","0.0-3.0-1.189","","key","null","16.667000000000048","720","319.5","","","","","","","",""
"592.3000000119209","arrowright","psychophysics","389","934347","0.0-3.0-0.190","","key","arrowright","16.667000000002528","720","319.5","191","7","1","26","35","25","35","true"
"null","null","psychophysics","390","935348","0.0-3.0-1.190","","key","null","16.67522033898286","720","319.5","","","","","","","",""
"612.5","arrowleft","psychophysics","391","935965","0.0-3.0-0.191","","key","arrowleft","16.667000000002897","720","319.5","192","7","-1","30","35","25","35","true"
"null","null","psychophysics","392","936967","0.0-3.0-1.191","","key","null","16.667000000000048","720","319.5","","","","","","","",""
"545.7999999821186","arrowright","psychophysics","393","937524","0.0-3.0-0.192","","key","arrowright","16.66700000000128","720","319.5","193","7","-1","20","35","25","35","false"
"null","null","psychophysics","394","938526","0.0-3.0-1.192","","key","null","16.66700000000031","720","319.5","","","","","","","",""
"636.3000000119209","arrowleft","psychophysics","395","939167","0.0-3.0-0.193","","key","arrowleft","16.666999999996953","720","319.5","194","7","1","20","35","25","35","false"
"null","null","psychophysics","396","940170","0.0-3.0-1.193","","key","null","16.667000000000048","720","319.5","","","","","","","",""
"542.4000000059605","arrowleft","psychophysics","397","940716","0.0-3.0-0.194","","key","arrowleft","16.66700000000128","720","319.5","195","7","1","20","15","25","35","false"
"null","null","psychophysics","398","941719","0.0-3.0-1.194","","key","null","16.667000000000048","720","319.5","","","","","","","",""
"641.0999999940395","arrowleft","psychophysics","399","942363","0.0-3.0-0.195","","key","arrowleft","16.666999999996953","720","319.5","196","8","1","20","15","25","35","false"
"null","null","psychophysics","400","943366","0.0-3.0-1.195","","key","null","16.66700000000031","720","319.5","","","","","","","",""
"877.9000000059605","arrowright","html-keyboard-response","401","944251","0.0-3.0-2.195-0.195","<div style=""color: white; text-align: center; vertical-align: top; display: inline-block; width: 800px; margin: auto""><p>You have completed 70% of the trials. You are on block 8 of 10. <br>Good job! Take a break if you need to.</p><p>Press any key to continue the experiment.</p></div>","","","","","","","","","","","","",""
"626.0999999940395","arrowright","psychophysics","402","945889","0.0-3.0-0.196","","key","arrowright","16.68010526315591","720","319.5","197","8","1","26","35","25","35","true"
"null","null","psychophysics","403","946892","0.0-3.0-1.196","","key","null","16.667000000000048","720","319.5","","","","","","","",""
"1052.5999999940395","arrowright","psychophysics","404","947952","0.0-3.0-0.197","","key","arrowright","16.66700000000105","720","319.5","198","8","-1","23","35","25","35","false"
"null","null","psychophysics","405","948955","0.0-3.0-1.197","","key","null","16.667000000000048","720","319.5","","","","","","","",""
"2700.699999988079","arrowleft","psychophysics","406","951660","0.0-3.0-0.198","","key","arrowleft","16.666999999999923","720","319.5","199","8","1","20","15","25","35","false"
"null","null","psychophysics","407","952669","0.0-3.0-1.198","","key","null","16.66700000000031","720","319.5","","","","","","","",""
"749.7999999821186","arrowleft","psychophysics","408","953423","0.0-3.0-0.199","","key","arrowleft","16.66699999999996","720","319.5","200","8","-1","23","15","25","35","true"
"null","null","psychophysics","409","954426","0.0-3.0-1.199","","key","null","16.667000000000048","720","319.5","","","","","","","",""
"989.1999999880791","arrowleft","psychophysics","410","955418","0.0-3.0-0.200","","key","arrowleft","16.676067796608795","720","319.5","201","8","1","23","35","25","35","false"
"null","null","psychophysics","411","956421","0.0-3.0-1.200","","key","null","16.667000000000048","720","319.5","","","","","","","",""
"1452.2999999821186","arrowright","psychophysics","412","957877","0.0-3.0-0.201","","key","arrowright","16.66699999999959","720","319.5","202","8","1","26","35","25","35","true"
"null","null","psychophysics","413","958886","0.0-3.0-1.201","","key","null","16.66700000000031","720","319.5","","","","","","","",""
"678","arrowright","psychophysics","414","959568","0.0-3.0-0.202","","key","arrowright","16.66700000000128","720","319.5","203","8","-1","20","35","25","35","false"
"null","null","psychophysics","415","960571","0.0-3.0-1.202","","key","null","16.667000000000048","720","319.5","","","","","","","",""
"1308.5","arrowright","psychophysics","416","961883","0.0-3.0-0.203","","key","arrowright","16.667000000000908","720","319.5","204","8","1","26","35","25","35","true"
"null","null","psychophysics","417","962885","0.0-3.0-1.203","","key","null","16.666999999998072","720","319.5","","","","","","","",""
"846.5999999940395","arrowleft","psychophysics","418","963735","0.0-3.0-0.204","","key","arrowleft","16.667000000001863","720","319.5","205","8","-1","23","15","25","35","true"
"null","null","psychophysics","419","964744","0.0-3.0-1.204","","key","null","16.667000000000048","720","319.5","","","","","","","",""
"608.8000000119209","arrowright","psychophysics","420","965360","0.0-3.0-0.205","","key","arrowright","16.666999999999664","720","319.5","206","8","-1","20","35","25","35","false"
"null","null","psychophysics","421","966362","0.0-3.0-1.205","","key","null","16.675166666666822","720","319.5","","","","","","","",""
"571","arrowright","psychophysics","422","966938","0.0-3.0-0.206","","key","arrowright","16.66700000000172","720","319.5","207","8","1","30","15","25","35","true"
"null","null","psychophysics","423","967941","0.0-3.0-1.206","","key","null","16.667000000000048","720","319.5","","","","","","","",""
"660.7999999821186","arrowright","psychophysics","424","968606","0.0-3.0-0.207","","key","arrowright","16.667000000000908","720","319.5","208","8","1","26","35","25","35","true"
"null","null","psychophysics","425","969610","0.0-3.0-1.207","","key","null","16.667000000000048","720","319.5","","","","","","","",""
"770.6999999880791","arrowright","psychophysics","426","970385","0.0-3.0-0.208","","key","arrowright","16.66699999999812","720","319.5","209","8","-1","23","35","25","35","false"
"null","null","psychophysics","427","971394","0.0-3.0-1.208","","key","null","16.667000000000048","720","319.5","","","","","","","",""
"1962.7000000178814","arrowleft","psychophysics","428","973364","0.0-3.0-0.209","","key","arrowleft","16.667000000000048","720","319.5","210","8","-1","30","35","25","35","true"
"null","null","psychophysics","429","974366","0.0-3.0-1.209","","key","null","16.667000000000048","720","319.5","","","","","","","",""
"648.4000000059605","arrowleft","psychophysics","430","975018","0.0-3.0-0.210","","key","arrowleft","16.667000000000513","720","319.5","211","8","1","23","15","25","35","false"
"null","null","psychophysics","431","976021","0.0-3.0-1.210","","key","null","16.67549152542458","720","319.5","","","","","","","",""
"668.9000000059605","arrowleft","psychophysics","432","976693","0.0-3.0-0.211","","key","arrowleft","16.667000000000908","720","319.5","212","8","-1","26","35","25","35","true"
"null","null","psychophysics","433","977703","0.0-3.0-1.211","","key","null","16.66700000000031","720","319.5","","","","","","","",""
"3054.0999999940395","arrowleft","psychophysics","434","980760","0.0-3.0-0.212","","key","arrowleft","16.66699999999984","720","319.5","213","8","1","24","35","25","35","false"
"null","null","psychophysics","435","981764","0.0-3.0-1.212","","key","null","16.66700000000031","720","319.5","","","","","","","",""
"608.4000000059605","arrowleft","psychophysics","436","982376","0.0-3.0-0.213","","key","arrowleft","16.666999999999202","720","319.5","214","8","-1","26","35","25","35","true"
"null","null","psychophysics","437","983379","0.0-3.0-1.213","","key","null","16.667000000000048","720","319.5","","","","","","","",""
"634.9000000059605","arrowleft","psychophysics","438","984026","0.0-3.0-0.214","","key","arrowleft","16.667000000000513","720","319.5","215","8","1","23","35","25","35","false"
"null","null","psychophysics","439","985029","0.0-3.0-1.214","","key","null","16.667000000000048","720","319.5","","","","","","","",""
"1762.2999999821186","arrowright","psychophysics","440","986795","0.0-3.0-0.215","","key","arrowright","16.671619047619224","720","319.5","216","8","1","25","15","25","35","true"
"null","null","psychophysics","441","987798","0.0-3.0-1.215","","key","null","16.66700000000031","720","319.5","","","","","","","",""
"619.1999999880791","arrowleft","psychophysics","442","988422","0.0-3.0-0.216","","key","arrowleft","16.666999999999664","720","319.5","217","8","-1","25","35","25","35","true"
"null","null","psychophysics","443","989425","0.0-3.0-1.216","","key","null","16.667000000000048","720","319.5","","","","","","","",""
"866","arrowleft","psychophysics","444","990305","0.0-3.0-0.217","","key","arrowleft","16.66700000000016","720","319.5","218","8","1","27","15","25","35","false"
"null","null","psychophysics","445","991308","0.0-3.0-1.217","","key","null","16.667000000000048","720","319.5","","","","","","","",""
"981","arrowleft","psychophysics","446","992292","0.0-3.0-0.218","","key","arrowleft","16.666999999999774","720","319.5","219","8","-1","20","15","25","35","true"
"null","null","psychophysics","447","993296","0.0-3.0-1.218","","key","null","16.667000000000048","720","319.5","","","","","","","",""
"777.4000000059605","arrowleft","psychophysics","448","994081","0.0-3.0-0.219","","key","arrowleft","16.667000000000648","720","319.5","220","8","1","25","35","25","35","false"
"null","null","psychophysics","449","995083","0.0-3.0-1.219","","key","null","16.66700000000031","720","319.5","","","","","","","",""
"803.3999999761581","arrowleft","psychophysics","450","995890","0.0-3.0-0.220","","key","arrowleft","16.67744680851242","720","319.5","221","8","1","25","15","25","35","false"
"null","null","psychophysics","451","996898","0.0-3.0-1.220","","key","null","16.66699999999837","720","319.5","","","","","","","",""
"923.7000000178814","arrowleft","psychophysics","452","997827","0.0-3.0-0.221","","key","arrowleft","16.66700000000074","720","319.5","222","8","1","24","35","25","35","false"
"null","null","psychophysics","453","998832","0.0-3.0-1.221","","key","null","16.66700000000031","720","319.5","","","","","","","",""
"622.6999999880791","arrowleft","psychophysics","454","999459","0.0-3.0-0.222","","key","arrowleft","16.667000000002897","720","319.5","223","8","1","24","35","25","35","false"
"null","null","psychophysics","455","1000462","0.0-3.0-1.222","","key","null","16.667000000000048","720","319.5","","","","","","","",""
"921.2000000178814","arrowleft","psychophysics","456","1001387","0.0-3.0-0.223","","key","arrowleft","16.667000000001018","720","319.5","224","9","1","24","15","25","35","false"
"null","null","psychophysics","457","1002389","0.0-3.0-1.223","","key","null","16.667000000000048","720","319.5","","","","","","","",""
"1215.7999999821186","arrowright","html-keyboard-response","458","1003614","0.0-3.0-2.223-0.223","<div style=""color: white; text-align: center; vertical-align: top; display: inline-block; width: 800px; margin: auto""><p>You have completed 80% of the trials. You are on block 9 of 10. <br>Good job! Take a break if you need to.</p><p>Press any key to continue the experiment.</p></div>","","","","","","","","","","","","",""
"850.0999999940395","arrowright","psychophysics","459","1005474","0.0-3.0-0.224","","key","arrowright","16.666999999999852","720","319.5","225","9","1","24","35","25","35","true"
"null","null","psychophysics","460","1006476","0.0-3.0-1.224","","key","null","16.675338983052345","720","319.5","","","","","","","",""
"525.4000000059605","arrowright","psychophysics","461","1007005","0.0-3.0-0.225","","key","arrowright","16.66700000000081","720","319.5","226","9","-1","23","35","25","35","false"
"null","null","psychophysics","462","1008008","0.0-3.0-1.225","","key","null","16.667000000000048","720","319.5","","","","","","","",""
"600.5999999940395","arrowleft","psychophysics","463","1008612","0.0-3.0-0.226","","key","arrowleft","16.666999999999202","720","319.5","227","9","-1","26","15","25","35","true"
"null","null","psychophysics","464","1009633","0.0-3.0-1.226","","key","null","16.667000000000566","720","319.5","","","","","","","",""
"693.1000000238419","arrowright","psychophysics","465","1010330","0.0-3.0-0.227","","key","arrowright","16.66699999999837","720","319.5","228","9","1","26","35","25","35","true"
"null","null","psychophysics","466","1011332","0.0-3.0-1.227","","key","null","16.667000000000048","720","319.5","","","","","","","",""
"637","arrowleft","psychophysics","467","1011976","0.0-3.0-0.228","","key","arrowleft","16.667000000000513","720","319.5","229","9","1","20","35","25","35","false"
"null","null","psychophysics","468","1012980","0.0-3.0-1.228","","key","null","16.667000000000048","720","319.5","","","","","","","",""
"580.5","arrowright","psychophysics","469","1013564","0.0-3.0-0.229","","key","arrowright","16.667000000002137","720","319.5","230","9","-1","20","35","25","35","false"
"null","null","psychophysics","470","1014567","0.0-3.0-1.229","","key","null","16.66699999999837","720","319.5","","","","","","","",""
"706.5","arrowleft","psychophysics","471","1015285","0.0-3.0-0.230","","key","arrowleft","16.667000000001636","720","319.5","231","9","1","27","35","25","35","false"
"null","null","psychophysics","472","1016287","0.0-3.0-1.230","","key","null","16.675349999999163","720","319.5","","","","","","","",""
"631.5","arrowleft","psychophysics","473","1016923","0.0-3.0-0.231","","key","arrowleft","16.6670000000001","720","319.5","232","9","-1","27","15","25","35","true"
"null","null","psychophysics","474","1017926","0.0-3.0-1.231","","key","null","16.667000000000048","720","319.5","","","","","","","",""
"717.0999999940395","arrowright","psychophysics","475","1018647","0.0-3.0-0.232","","key","arrowright","16.666999999999202","720","319.5","233","9","1","24","15","25","35","true"
"null","null","psychophysics","476","1019649","0.0-3.0-1.232","","key","null","16.667000000000048","720","319.5","","","","","","","",""
"520.7000000178814","arrowright","psychophysics","477","1020174","0.0-3.0-0.233","","key","arrowright","16.666999999997056","720","319.5","234","9","1","24","15","25","35","true"
"null","null","psychophysics","478","1021177","0.0-3.0-1.233","","key","null","16.667000000000048","720","319.5","","","","","","","",""
"564.4000000059605","arrowleft","psychophysics","479","1021755","0.0-3.0-0.234","","key","arrowleft","16.666999999998712","720","319.5","235","9","-1","26","15","25","35","true"
"null","null","psychophysics","480","1022758","0.0-3.0-1.234","","key","null","16.667000000000048","720","319.5","","","","","","","",""
"514","arrowright","psychophysics","481","1023275","0.0-3.0-0.235","","key","arrowright","16.66700000000031","720","319.5","236","9","1","27","35","25","35","true"
"null","null","psychophysics","482","1024279","0.0-3.0-1.235","","key","null","16.667000000000048","720","319.5","","","","","","","",""
"546.0999999940395","arrowright","psychophysics","483","1024828","0.0-3.0-0.236","","key","arrowright","16.666999999997643","720","319.5","237","9","-1","26","35","25","35","false"
"null","null","psychophysics","484","1025833","0.0-3.0-1.236","","key","null","16.675389830508443","720","319.5","","","","","","","",""
"591.8999999761581","arrowleft","psychophysics","485","1026432","0.0-3.0-0.237","","key","arrowleft","16.666999999999202","720","319.5","238","9","-1","26","15","25","35","true"
"null","null","psychophysics","486","1027435","0.0-3.0-1.237","","key","null","16.66700000000031","720","319.5","","","","","","","",""
"544.5999999940395","arrowright","psychophysics","487","1027991","0.0-3.0-0.238","","key","arrowright","16.66700000000128","720","319.5","239","9","-1","25","35","25","35","false"
"null","null","psychophysics","488","1028994","0.0-3.0-1.238","","key","null","16.667000000000048","720","319.5","","","","","","","",""
"547.7999999821186","arrowright","psychophysics","489","1029545","0.0-3.0-0.239","","key","arrowright","16.66700000000128","720","319.5","240","9","-1","27","35","25","35","false"
"null","null","psychophysics","490","1030550","0.0-3.0-1.239","","key","null","16.667000000000048","720","319.5","","","","","","","",""
"513.2999999821186","arrowright","psychophysics","491","1031068","0.0-3.0-0.240","","key","arrowright","16.66700000000031","720","319.5","241","9","-1","23","35","25","35","false"
"null","null","psychophysics","492","1032070","0.0-3.0-1.240","","key","null","16.66700000000031","720","319.5","","","","","","","",""
"532.7000000178814","arrowleft","psychophysics","493","1032606","0.0-3.0-0.241","","key","arrowleft","16.66700000000081","720","319.5","242","9","-1","30","15","25","35","true"
"null","null","psychophysics","494","1033609","0.0-3.0-1.241","","key","null","16.667000000000048","720","319.5","","","","","","","",""
"472.5","arrowleft","psychophysics","495","1034094","0.0-3.0-0.242","","key","arrowleft","16.666999999999202","720","319.5","243","9","-1","26","15","25","35","true"
"null","null","psychophysics","496","1035097","0.0-3.0-1.242","","key","null","16.667000000000048","720","319.5","","","","","","","",""
"581","arrowright","psychophysics","497","1035682","0.0-3.0-0.243","","key","arrowright","16.681264705880654","720","319.5","244","9","1","24","35","25","35","true"
"null","null","psychophysics","498","1036686","0.0-3.0-1.243","","key","null","16.66700000000031","720","319.5","","","","","","","",""
"1917.8999999761581","arrowleft","psychophysics","499","1038609","0.0-3.0-0.244","","key","arrowleft","16.666999999999494","720","319.5","245","9","-1","25","15","25","35","true"
"null","null","psychophysics","500","1039612","0.0-3.0-1.244","","key","null","16.667000000000048","720","319.5","","","","","","","",""
"562.4000000059605","arrowright","psychophysics","501","1040178","0.0-3.0-0.245","","key","arrowright","16.666999999998193","720","319.5","246","9","1","25","15","25","35","true"
"null","null","psychophysics","502","1041185","0.0-3.0-1.245","","key","null","16.667000000000048","720","319.5","","","","","","","",""
"619.0999999940395","arrowleft","psychophysics","503","1041812","0.0-3.0-0.246","","key","arrowleft","16.6670000000001","720","319.5","247","9","1","20","35","25","35","false"
"null","null","psychophysics","504","1042815","0.0-3.0-1.246","","key","null","16.667000000000048","720","319.5","","","","","","","",""
"555.5","arrowleft","psychophysics","505","1043374","0.0-3.0-0.247","","key","arrowleft","16.666999999998193","720","319.5","248","9","-1","26","35","25","35","true"
"null","null","psychophysics","506","1044376","0.0-3.0-1.247","","key","null","16.667000000000048","720","319.5","","","","","","","",""
"782.7999999821186","arrowright","psychophysics","507","1045163","0.0-3.0-0.248","","key","arrowright","16.667000000000648","720","319.5","249","9","-1","24","35","25","35","false"
"null","null","psychophysics","508","1046167","0.0-3.0-1.248","","key","null","16.675338983050374","720","319.5","","","","","","","",""
"604.2000000178814","arrowleft","psychophysics","509","1046785","0.0-3.0-0.249","","key","arrowleft","16.666999999999664","720","319.5","250","9","-1","27","35","25","35","true"
"null","null","psychophysics","510","1047789","0.0-3.0-1.249","","key","null","16.66700000000031","720","319.5","","","","","","","",""
"809.0999999940395","arrowright","psychophysics","511","1048602","0.0-3.0-0.250","","key","arrowright","16.666999999998495","720","319.5","251","9","-1","24","35","25","35","false"
"null","null","psychophysics","512","1049605","0.0-3.0-1.250","","key","null","16.66700000000031","720","319.5","","","","","","","",""
"656.3000000119209","arrowright","psychophysics","513","1050265","0.0-3.0-0.251","","key","arrowright","16.66700000000358","720","319.5","252","10","1","27","35","25","35","true"
"null","null","psychophysics","514","1051269","0.0-3.0-1.251","","key","null","16.66700000000202","720","319.5","","","","","","","",""
"832.0999999940395","arrowright","html-keyboard-response","515","1052102","0.0-3.0-2.251-0.251","<div style=""color: white; text-align: center; vertical-align: top; display: inline-block; width: 800px; margin: auto""><p>You have completed 90% of the trials. You are on block 10 of 10. <br>Good job! Take a break if you need to.</p><p>Press any key to continue the experiment.</p></div>","","","","","","","","","","","","",""
"915","arrowleft","psychophysics","516","1054031","0.0-3.0-0.252","","key","arrowleft","16.666999999996783","720","319.5","253","10","1","20","35","25","35","false"
"null","null","psychophysics","517","1055036","0.0-3.0-1.252","","key","null","16.666999999998072","720","319.5","","","","","","","",""
"572.9000000059605","arrowleft","psychophysics","518","1055615","0.0-3.0-0.253","","key","arrowleft","16.666999999995287","720","319.5","254","10","-1","26","15","25","35","true"
"null","null","psychophysics","519","1056618","0.0-3.0-1.253","","key","null","16.675338983050374","720","319.5","","","","","","","",""
"523.5","arrowleft","psychophysics","520","1057146","0.0-3.0-0.254","","key","arrowleft","16.667000000004567","720","319.5","255","10","-1","26","15","25","35","true"
"null","null","psychophysics","521","1058150","0.0-3.0-1.254","","key","null","16.66700000000202","720","319.5","","","","","","","",""
"451.80000001192093","arrowleft","psychophysics","522","1058616","0.0-3.0-0.255","","key","arrowleft","16.667000000002897","720","319.5","256","10","-1","25","15","25","35","true"
"null","null","psychophysics","523","1059620","0.0-3.0-1.255","","key","null","16.66700000000202","720","319.5","","","","","","","",""
"874.7000000178814","arrowleft","psychophysics","524","1060499","0.0-3.0-0.256","","key","arrowleft","16.6670000000024","720","319.5","257","10","-1","20","15","25","35","true"
"null","null","psychophysics","525","1061503","0.0-3.0-1.256","","key","null","16.666999999998072","720","319.5","","","","","","","",""
"776.6999999880791","arrowright","psychophysics","526","1062288","0.0-3.0-0.257","","key","arrowright","16.667000000000648","720","319.5","258","10","-1","20","35","25","35","false"
"null","null","psychophysics","527","1063290","0.0-3.0-1.257","","key","null","16.66700000000031","720","319.5","","","","","","","",""
"516.6999999880791","arrowright","psychophysics","528","1063811","0.0-3.0-0.258","","key","arrowright","16.66700000000031","720","319.5","259","10","-1","23","35","25","35","false"
"null","null","psychophysics","529","1064814","0.0-3.0-1.258","","key","null","16.666999999998072","720","319.5","","","","","","","",""
"571","arrowleft","psychophysics","530","1065397","0.0-3.0-0.259","","key","arrowleft","16.667000000002137","720","319.5","260","10","-1","30","35","25","35","true"
"null","null","psychophysics","531","1066401","0.0-3.0-1.259","","key","null","16.675322033899","720","319.5","","","","","","","",""
"658.5","arrowleft","psychophysics","532","1067063","0.0-3.0-0.260","","key","arrowleft","16.667000000000908","720","319.5","261","10","-1","23","15","25","35","true"
"null","null","psychophysics","533","1068065","0.0-3.0-1.260","","key","null","16.666999999998072","720","319.5","","","","","","","",""
"1056.5999999940395","arrowleft","psychophysics","534","1069125","0.0-3.0-0.261","","key","arrowleft","16.667000000002897","720","319.5","262","10","1","23","15","25","35","false"
"null","null","psychophysics","535","1070128","0.0-3.0-1.261","","key","null","16.66700000000202","720","319.5","","","","","","","",""
"518.0999999940395","arrowleft","psychophysics","536","1070650","0.0-3.0-0.262","","key","arrowleft","16.66700000000031","720","319.5","263","10","-1","24","15","25","35","true"
"null","null","psychophysics","537","1071654","0.0-3.0-1.262","","key","null","16.66700000000202","720","319.5","","","","","","","",""
"460.5","arrowleft","psychophysics","538","1072130","0.0-3.0-0.263","","key","arrowleft","16.666999999999202","720","319.5","264","10","-1","25","15","25","35","true"
"null","null","psychophysics","539","1073133","0.0-3.0-1.263","","key","null","16.666999999998072","720","319.5","","","","","","","",""
"578.1000000238419","arrowright","psychophysics","540","1073715","0.0-3.0-0.264","","key","arrowright","16.666999999995287","720","319.5","265","10","1","27","15","25","35","true"
"null","null","psychophysics","541","1074719","0.0-3.0-1.264","","key","null","16.666999999998072","720","319.5","","","","","","","",""
"839.4000000059605","arrowright","psychophysics","542","1075561","0.0-3.0-0.265","","key","arrowright","16.666999999997206","720","319.5","266","10","1","25","35","25","35","true"
"null","null","psychophysics","543","1076563","0.0-3.0-1.265","","key","null","16.67474576271281","720","319.5","","","","","","","",""
"414.30000001192093","arrowright","psychophysics","544","1076981","0.0-3.0-0.266","","key","arrowright","16.66699999999643","720","319.5","267","10","-1","25","35","25","35","false"
"null","null","psychophysics","545","1077985","0.0-3.0-1.266","","key","null","16.666999999998072","720","319.5","","","","","","","",""
"929.8000000119209","arrowleft","psychophysics","546","1078928","0.0-3.0-0.267","","key","arrowleft","16.666999999999202","720","319.5","268","10","1","23","35","25","35","false"
"null","null","psychophysics","547","1079944","0.0-3.0-1.267","","key","null","16.66700000000031","720","319.5","","","","","","","",""
"548.6999999880791","arrowleft","psychophysics","548","1080496","0.0-3.0-0.268","","key","arrowleft","16.66700000000128","720","319.5","269","10","-1","27","35","25","35","true"
"null","null","psychophysics","549","1081500","0.0-3.0-1.268","","key","null","16.666999999998072","720","319.5","","","","","","","",""
"453.40000000596046","arrowright","psychophysics","550","1081957","0.0-3.0-0.269","","key","arrowright","16.666999999997923","720","319.5","270","10","-1","20","35","25","35","false"
"null","null","psychophysics","551","1082959","0.0-3.0-1.269","","key","null","16.66699999999643","720","319.5","","","","","","","",""
"453","arrowright","psychophysics","552","1083417","0.0-3.0-0.270","","key","arrowright","16.666999999997923","720","319.5","271","10","1","30","15","25","35","true"
"null","null","psychophysics","553","1084421","0.0-3.0-1.270","","key","null","16.666999999998072","720","319.5","","","","","","","",""
"744.9000000059605","arrowright","psychophysics","554","1085180","0.0-3.0-0.271","","key","arrowright","16.667000000002897","720","319.5","272","10","1","23","15","25","35","true"
"null","null","psychophysics","555","1086183","0.0-3.0-1.271","","key","null","16.675915254240508","720","319.5","","","","","","","",""
"564","arrowright","psychophysics","556","1086750","0.0-3.0-0.272","","key","arrowright","16.666999999998193","720","319.5","273","10","-1","25","35","25","35","false"
"null","null","psychophysics","557","1087754","0.0-3.0-1.272","","key","null","16.666999999998072","720","319.5","","","","","","","",""
"531.5999999940395","arrowright","psychophysics","558","1088289","0.0-3.0-0.273","","key","arrowright","16.666999999997056","720","319.5","274","10","1","27","35","25","35","true"
"null","null","psychophysics","559","1089292","0.0-3.0-1.273","","key","null","16.66700000000031","720","319.5","","","","","","","",""
"556.8999999761581","arrowright","psychophysics","560","1089853","0.0-3.0-0.274","","key","arrowright","16.66700000000128","720","319.5","275","10","1","27","35","25","35","true"
"null","null","psychophysics","561","1090856","0.0-3.0-1.274","","key","null","16.66700000000202","720","319.5","","","","","","","",""
"609.0999999940395","arrowleft","psychophysics","562","1091479","0.0-3.0-0.275","","key","arrowleft","16.6670000000001","720","319.5","276","10","-1","24","15","25","35","true"
"null","null","psychophysics","563","1092481","0.0-3.0-1.275","","key","null","16.66700000000202","720","319.5","","","","","","","",""
"647.3000000119209","arrowleft","psychophysics","564","1093132","0.0-3.0-0.276","","key","arrowleft","16.66700000000358","720","319.5","277","10","-1","24","15","25","35","true"
"null","null","psychophysics","565","1094134","0.0-3.0-1.276","","key","null","16.66700000000202","720","319.5","","","","","","","",""
"1768","arrowright","psychophysics","566","1095906","0.0-3.0-0.277","","key","arrowright","16.671619047619224","720","319.5","278","10","-1","20","15","25","35","false"
"null","null","psychophysics","567","1096909","0.0-3.0-1.277","","key","null","16.66700000000031","720","319.5","","","","","","","",""
"559.3000000119209","arrowright","psychophysics","568","1097480","0.0-3.0-0.278","","key","arrowright","16.666999999998193","720","319.5","279","10","1","30","35","25","35","true"
"null","null","psychophysics","569","1098481","0.0-3.0-1.278","","key","null","16.66700000000202","720","319.5","","","","","","","",""
"512.3000000119209","arrowright","psychophysics","570","1098997","0.0-3.0-0.279","","key","arrowright","16.66700000000031","720","319.5","280","11","1","30","35","25","35","true"
"null","null","psychophysics","571","1100000","0.0-3.0-1.279","","key","null","16.666999999998072","720","319.5","","","","","","","",""
