rt,response,trial_type,trial_index,time_elapsed,internal_node_id,stimulus,response_type,key_press,avg_frame_time,center_x,center_y,trial,block,test_pos,test_inner_radius,test_outer_radius,ref_inner_radius,ref_outer_radius,test_bigger
4224.9,"{""p_id"":""7024"",""age"":""19"",""handedness"":""right"",""sex"":""female"",""other_sex"":""""}",survey-html-form,0,4229,0.0-0.0,,,,,,,,,,,,,,
1346.8, ,html-keyboard-response,1,5583,0.0-1.0,"<p style=""color: white"">Welcome to the Size Judgment Experiment. <br>There will be 10 blocks in this experiment. <br>There will be 28 trials in each block. <br>You will be given a chance to take a break between blocks. <br>Press any key to start the experiment.</p>",,,,,,,,,,,,,
2194.8,arrowright,psychophysics,2,7798,0.0-2.0,,key,arrowright,16.79452273,720,394.5,,,,,,,,
808.5,arrowright,psychophysics,3,8611,0.0-3.0-0.0,,key,arrowright,16.666,720,394.5,1,1,1,26,15,25,35,TRUE
null,null,psychophysics,4,9614,0.0-3.0-1.0,,key,null,16.666,720,394.5,,,,,,,,
974.2,arrowright,psychophysics,5,10596,0.0-3.0-0.1,,key,arrowright,16.666,720,394.5,2,1,-1,23,35,25,35,FALSE
null,null,psychophysics,6,11598,0.0-3.0-1.1,,key,null,16.666,720,394.5,,,,,,,,
696.9,arrowleft,psychophysics,7,12298,0.0-3.0-0.2,,key,arrowleft,16.666,720,394.5,3,1,-1,25,15,25,35,TRUE
null,null,psychophysics,8,13302,0.0-3.0-1.2,,key,null,16.666,720,394.5,,,,,,,,
1480.5,arrowleft,psychophysics,9,14788,0.0-3.0-0.3,,key,arrowleft,16.666,720,394.5,4,1,-1,30,15,25,35,TRUE
null,null,psychophysics,10,15790,0.0-3.0-1.3,,key,null,16.7577931,720,394.5,,,,,,,,
955,arrowright,psychophysics,11,16751,0.0-3.0-0.4,,key,arrowright,16.666,720,394.5,5,1,-1,20,35,25,35,FALSE
null,null,psychophysics,12,17753,0.0-3.0-1.4,,key,null,16.95334483,720,394.5,,,,,,,,
1111.8,arrowright,psychophysics,13,18867,0.0-3.0-0.5,,key,arrowright,16.666,720,394.5,6,1,-1,20,15,25,35,FALSE
null,null,psychophysics,14,19869,0.0-3.0-1.5,,key,null,16.666,720,394.5,,,,,,,,
2181.5,arrowleft,psychophysics,15,22053,0.0-3.0-0.6,,key,arrowleft,16.666,720,394.5,7,1,1,27,35,25,35,FALSE
null,null,psychophysics,16,23057,0.0-3.0-1.6,,key,null,16.666,720,394.5,,,,,,,,
837.2,arrowright,psychophysics,17,23900,0.0-3.0-0.7,,key,arrowright,16.666,720,394.5,8,1,1,26,15,25,35,TRUE
null,null,psychophysics,18,24903,0.0-3.0-1.7,,key,null,16.666,720,394.5,,,,,,,,
643.1,arrowleft,psychophysics,19,25550,0.0-3.0-0.8,,key,arrowleft,16.666,720,394.5,9,1,-1,30,35,25,35,TRUE
null,null,psychophysics,20,26552,0.0-3.0-1.8,,key,null,16.67047458,720,394.5,,,,,,,,
615.3,arrowleft,psychophysics,21,27170,0.0-3.0-0.9,,key,arrowleft,16.666,720,394.5,10,1,-1,30,35,25,35,TRUE
null,null,psychophysics,22,28173,0.0-3.0-1.9,,key,null,16.666,720,394.5,,,,,,,,
965.6,arrowleft,psychophysics,23,29148,0.0-3.0-0.10,,key,arrowleft,16.666,720,394.5,11,1,1,24,35,25,35,FALSE
null,null,psychophysics,24,30150,0.0-3.0-1.10,,key,null,16.666,720,394.5,,,,,,,,
859.3,arrowright,psychophysics,25,31012,0.0-3.0-0.11,,key,arrowright,16.666,720,394.5,12,1,-1,27,35,25,35,FALSE
null,null,psychophysics,26,32013,0.0-3.0-1.11,,key,null,16.666,720,394.5,,,,,,,,
736.2,arrowleft,psychophysics,27,32753,0.0-3.0-0.12,,key,arrowleft,16.666,720,394.5,13,1,-1,26,35,25,35,TRUE
null,null,psychophysics,28,33755,0.0-3.0-1.12,,key,null,16.666,720,394.5,,,,,,,,
609.1,arrowleft,psychophysics,29,34371,0.0-3.0-0.13,,key,arrowleft,16.666,720,394.5,14,1,-1,30,35,25,35,TRUE
null,null,psychophysics,30,35373,0.0-3.0-1.13,,key,null,16.666,720,394.5,,,,,,,,
941.6,arrowleft,psychophysics,31,36322,0.0-3.0-0.14,,key,arrowleft,16.66982143,720,394.5,15,1,1,24,35,25,35,FALSE
null,null,psychophysics,32,37325,0.0-3.0-1.14,,key,null,16.666,720,394.5,,,,,,,,
552.3,arrowright,psychophysics,33,37881,0.0-3.0-0.15,,key,arrowright,16.666,720,394.5,16,1,-1,27,15,25,35,FALSE
null,null,psychophysics,34,38884,0.0-3.0-1.15,,key,null,16.666,720,394.5,,,,,,,,
750.3,arrowright,psychophysics,35,39636,0.0-3.0-0.16,,key,arrowright,16.666,720,394.5,17,1,1,26,35,25,35,TRUE
null,null,psychophysics,36,40640,0.0-3.0-1.16,,key,null,16.666,720,394.5,,,,,,,,
616.9,arrowleft,psychophysics,37,41263,0.0-3.0-0.17,,key,arrowleft,16.666,720,394.5,18,1,1,24,35,25,35,FALSE
null,null,psychophysics,38,42264,0.0-3.0-1.17,,key,null,16.666,720,394.5,,,,,,,,
565.4,arrowleft,psychophysics,39,42832,0.0-3.0-0.18,,key,arrowleft,16.666,720,394.5,19,1,1,23,15,25,35,FALSE
null,null,psychophysics,40,43833,0.0-3.0-1.18,,key,null,16.666,720,394.5,,,,,,,,
761.3,arrowleft,psychophysics,41,44598,0.0-3.0-0.19,,key,arrowleft,16.666,720,394.5,20,1,-1,25,15,25,35,TRUE
null,null,psychophysics,42,45600,0.0-3.0-1.19,,key,null,16.666,720,394.5,,,,,,,,
806.9,arrowright,psychophysics,43,46413,0.0-3.0-0.20,,key,arrowright,16.67158333,720,394.5,21,1,1,26,15,25,35,TRUE
null,null,psychophysics,44,47415,0.0-3.0-1.20,,key,null,16.666,720,394.5,,,,,,,,
711.2,arrowright,psychophysics,45,48129,0.0-3.0-0.21,,key,arrowright,16.666,720,394.5,22,1,1,30,15,25,35,TRUE
null,null,psychophysics,46,49131,0.0-3.0-1.21,,key,null,16.666,720,394.5,,,,,,,,
1698.5,arrowright,psychophysics,47,50832,0.0-3.0-0.22,,key,arrowright,16.666,720,394.5,23,1,1,20,35,25,35,TRUE
null,null,psychophysics,48,51833,0.0-3.0-1.22,,key,null,16.666,720,394.5,,,,,,,,
1339,arrowleft,psychophysics,49,53180,0.0-3.0-0.23,,key,arrowleft,16.666,720,394.5,24,1,1,24,35,25,35,FALSE
null,null,psychophysics,50,54181,0.0-3.0-1.23,,key,null,16.666,720,394.5,,,,,,,,
2391.2,arrowright,psychophysics,51,56575,0.0-3.0-0.24,,key,arrowright,16.66824476,720,394.5,25,1,-1,23,15,25,35,FALSE
null,null,psychophysics,52,57576,0.0-3.0-1.24,,key,null,16.666,720,394.5,,,,,,,,
1949.3,arrowleft,psychophysics,53,59531,0.0-3.0-0.25,,key,arrowleft,16.666,720,394.5,26,1,-1,27,15,25,35,TRUE
null,null,psychophysics,54,60533,0.0-3.0-1.25,,key,null,16.666,720,394.5,,,,,,,,
546,arrowleft,psychophysics,55,61083,0.0-3.0-0.26,,key,arrowleft,16.666,720,394.5,27,1,-1,26,15,25,35,TRUE
null,null,psychophysics,56,62084,0.0-3.0-1.26,,key,null,16.666,720,394.5,,,,,,,,
876.5,arrowright,psychophysics,57,62963,0.0-3.0-0.27,,key,arrowright,16.666,720,394.5,28,2,-1,23,35,25,35,FALSE
null,null,psychophysics,58,63967,0.0-3.0-1.27,,key,null,16.666,720,394.5,,,,,,,,
4953.6,arrowright,html-keyboard-response,59,68922,0.0-3.0-2.27-0.27,"<div style=""color: white; text-align: center; vertical-align: top; display: inline-block; width: 800px; margin: auto""><p>You have completed 10% of the trials. You are on block 2 of 10. <br>Good job! Take a break if you need to.</p><p>Press any key to continue the experiment.</p></div>",,,,,,,,,,,,,
2889.4,arrowleft,psychophysics,60,72824,0.0-3.0-0.28,,key,arrowleft,16.66768966,720,394.5,29,2,-1,27,15,25,35,TRUE
null,null,psychophysics,61,73825,0.0-3.0-1.28,,key,null,16.666,720,394.5,,,,,,,,
814.1,arrowright,psychophysics,62,74642,0.0-3.0-0.29,,key,arrowright,16.666,720,394.5,30,2,1,27,35,25,35,TRUE
null,null,psychophysics,63,75653,0.0-3.0-1.29,,key,null,16.666,720,394.5,,,,,,,,
663.5,arrowleft,psychophysics,64,76319,0.0-3.0-0.30,,key,arrowleft,16.666,720,394.5,31,2,-1,26,35,25,35,TRUE
null,null,psychophysics,65,77320,0.0-3.0-1.30,,key,null,16.666,720,394.5,,,,,,,,
702,arrowright,psychophysics,66,78027,0.0-3.0-0.31,,key,arrowright,16.666,720,394.5,32,2,1,30,35,25,35,TRUE
null,null,psychophysics,67,79030,0.0-3.0-1.31,,key,null,16.79865517,720,394.5,,,,,,,,
834.7,arrowleft,psychophysics,68,79871,0.0-3.0-0.32,,key,arrowleft,16.666,720,394.5,33,2,-1,26,15,25,35,TRUE
null,null,psychophysics,69,80873,0.0-3.0-1.32,,key,null,16.666,720,394.5,,,,,,,,
578.7,arrowright,psychophysics,70,81458,0.0-3.0-0.33,,key,arrowright,16.666,720,394.5,34,2,-1,20,15,25,35,FALSE
null,null,psychophysics,71,82460,0.0-3.0-1.33,,key,null,16.666,720,394.5,,,,,,,,
500.6,arrowleft,psychophysics,72,82965,0.0-3.0-0.34,,key,arrowleft,16.666,720,394.5,35,2,-1,27,15,25,35,TRUE
null,null,psychophysics,73,83967,0.0-3.0-1.34,,key,null,16.666,720,394.5,,,,,,,,
534.3,arrowleft,psychophysics,74,84504,0.0-3.0-0.35,,key,arrowleft,16.666,720,394.5,36,2,-1,27,35,25,35,TRUE
null,null,psychophysics,75,85505,0.0-3.0-1.35,,key,null,16.666,720,394.5,,,,,,,,
545.1,arrowleft,psychophysics,76,86053,0.0-3.0-0.36,,key,arrowleft,16.666,720,394.5,37,2,1,26,15,25,35,FALSE
null,null,psychophysics,77,87054,0.0-3.0-1.36,,key,null,16.666,720,394.5,,,,,,,,
533.8,arrowright,psychophysics,78,87593,0.0-3.0-0.37,,key,arrowright,16.666,720,394.5,38,2,-1,23,15,25,35,FALSE
null,null,psychophysics,79,88595,0.0-3.0-1.37,,key,null,16.666,720,394.5,,,,,,,,
751.5,arrowleft,psychophysics,80,89353,0.0-3.0-0.38,,key,arrowleft,16.67204444,720,394.5,39,2,-1,24,15,25,35,TRUE
null,null,psychophysics,81,90354,0.0-3.0-1.38,,key,null,16.666,720,394.5,,,,,,,,
789.1,arrowright,psychophysics,82,91145,0.0-3.0-0.39,,key,arrowright,16.666,720,394.5,40,2,-1,20,35,25,35,FALSE
null,null,psychophysics,83,92147,0.0-3.0-1.39,,key,null,16.666,720,394.5,,,,,,,,
732.6,arrowleft,psychophysics,84,92884,0.0-3.0-0.40,,key,arrowleft,16.666,720,394.5,41,2,-1,27,35,25,35,TRUE
null,null,psychophysics,85,93887,0.0-3.0-1.40,,key,null,16.666,720,394.5,,,,,,,,
2895.8,arrowleft,psychophysics,86,96786,0.0-3.0-0.41,,key,arrowleft,16.666,720,394.5,42,2,1,24,35,25,35,FALSE
null,null,psychophysics,87,97787,0.0-3.0-1.41,,key,null,16.666,720,394.5,,,,,,,,
869,arrowright,psychophysics,88,98659,0.0-3.0-0.42,,key,arrowright,16.666,720,394.5,43,2,1,24,15,25,35,TRUE
null,null,psychophysics,89,99663,0.0-3.0-1.42,,key,null,16.67115254,720,394.5,,,,,,,,
833.4,arrowleft,psychophysics,90,100506,0.0-3.0-0.43,,key,arrowleft,16.666,720,394.5,44,2,-1,24,15,25,35,TRUE
null,null,psychophysics,91,101509,0.0-3.0-1.43,,key,null,16.666,720,394.5,,,,,,,,
946.1,arrowleft,psychophysics,92,102459,0.0-3.0-0.44,,key,arrowleft,16.666,720,394.5,45,2,1,23,35,25,35,FALSE
null,null,psychophysics,93,103460,0.0-3.0-1.44,,key,null,16.666,720,394.5,,,,,,,,
689.4,arrowright,psychophysics,94,104153,0.0-3.0-0.45,,key,arrowright,16.666,720,394.5,46,2,1,26,15,25,35,TRUE
null,null,psychophysics,95,105154,0.0-3.0-1.45,,key,null,16.666,720,394.5,,,,,,,,
695.9,arrowleft,psychophysics,96,105855,0.0-3.0-0.46,,key,arrowleft,16.666,720,394.5,47,2,1,25,35,25,35,FALSE
null,null,psychophysics,97,106857,0.0-3.0-1.46,,key,null,16.666,720,394.5,,,,,,,,
648.3,arrowright,psychophysics,98,107508,0.0-3.0-0.47,,key,arrowright,16.666,720,394.5,48,2,1,30,35,25,35,TRUE
null,null,psychophysics,99,108510,0.0-3.0-1.47,,key,null,16.666,720,394.5,,,,,,,,
556.6,arrowleft,psychophysics,100,109069,0.0-3.0-0.48,,key,arrowleft,16.666,720,394.5,49,2,-1,26,35,25,35,TRUE
null,null,psychophysics,101,110071,0.0-3.0-1.48,,key,null,16.67079661,720,394.5,,,,,,,,
780.5,arrowleft,psychophysics,102,110854,0.0-3.0-0.49,,key,arrowleft,16.666,720,394.5,50,2,1,25,35,25,35,FALSE
null,null,psychophysics,103,111858,0.0-3.0-1.49,,key,null,16.666,720,394.5,,,,,,,,
1997.9,arrowright,psychophysics,104,113859,0.0-3.0-0.50,,key,arrowright,16.666,720,394.5,51,2,1,25,15,25,35,TRUE
null,null,psychophysics,105,114861,0.0-3.0-1.50,,key,null,16.666,720,394.5,,,,,,,,
614.7,arrowright,psychophysics,106,115477,0.0-3.0-0.51,,key,arrowright,16.666,720,394.5,52,2,1,27,15,25,35,TRUE
null,null,psychophysics,107,116480,0.0-3.0-1.51,,key,null,16.666,720,394.5,,,,,,,,
665.2,arrowleft,psychophysics,108,117153,0.0-3.0-0.52,,key,arrowleft,16.666,720,394.5,53,2,-1,25,35,25,35,TRUE
null,null,psychophysics,109,118154,0.0-3.0-1.52,,key,null,16.666,720,394.5,,,,,,,,
527,arrowleft,psychophysics,110,118685,0.0-3.0-0.53,,key,arrowleft,16.666,720,394.5,54,2,1,24,15,25,35,FALSE
null,null,psychophysics,111,119687,0.0-3.0-1.53,,key,null,16.67013559,720,394.5,,,,,,,,
894.7,arrowleft,psychophysics,112,120584,0.0-3.0-0.54,,key,arrowleft,16.666,720,394.5,55,2,-1,24,15,25,35,TRUE
null,null,psychophysics,113,121585,0.0-3.0-1.54,,key,null,16.666,720,394.5,,,,,,,,
690,arrowright,psychophysics,114,122278,0.0-3.0-0.55,,key,arrowright,16.666,720,394.5,56,3,1,27,35,25,35,TRUE
null,null,psychophysics,115,123283,0.0-3.0-1.55,,key,null,16.666,720,394.5,,,,,,,,
21497.9, ,html-keyboard-response,116,144783,0.0-3.0-2.55-0.55,"<div style=""color: white; text-align: center; vertical-align: top; display: inline-block; width: 800px; margin: auto""><p>You have completed 20% of the trials. You are on block 3 of 10. <br>Good job! Take a break if you need to.</p><p>Press any key to continue the experiment.</p></div>",,,,,,,,,,,,,
744,arrowright,psychophysics,117,146537,0.0-3.0-0.56,,key,arrowright,16.63757778,720,394.5,57,3,1,30,35,25,35,TRUE
null,null,psychophysics,118,147539,0.0-3.0-1.56,,key,null,16.666,720,394.5,,,,,,,,
1969,arrowleft,psychophysics,119,149510,0.0-3.0-0.57,,key,arrowleft,16.666,720,394.5,58,3,1,27,15,25,35,FALSE
null,null,psychophysics,120,150512,0.0-3.0-1.57,,key,null,16.666,720,394.5,,,,,,,,
730.4,arrowleft,psychophysics,121,151250,0.0-3.0-0.58,,key,arrowleft,16.666,720,394.5,59,3,1,24,35,25,35,FALSE
null,null,psychophysics,122,152252,0.0-3.0-1.58,,key,null,16.666,720,394.5,,,,,,,,
441.6,arrowleft,psychophysics,123,152696,0.0-3.0-0.59,,key,arrowleft,16.666,720,394.5,60,3,-1,30,35,25,35,TRUE
null,null,psychophysics,124,153698,0.0-3.0-1.59,,key,null,16.666,720,394.5,,,,,,,,
575.2,arrowright,psychophysics,125,154277,0.0-3.0-0.60,,key,arrowright,16.666,720,394.5,61,3,1,30,35,25,35,TRUE
null,null,psychophysics,126,155281,0.0-3.0-1.60,,key,null,16.73794915,720,394.5,,,,,,,,
707.9,arrowleft,psychophysics,127,155995,0.0-3.0-0.61,,key,arrowleft,16.666,720,394.5,62,3,-1,26,15,25,35,TRUE
null,null,psychophysics,128,157002,0.0-3.0-1.61,,key,null,16.666,720,394.5,,,,,,,,
503.9,arrowleft,psychophysics,129,157511,0.0-3.0-0.62,,key,arrowleft,16.666,720,394.5,63,3,1,20,15,25,35,FALSE
null,null,psychophysics,130,158514,0.0-3.0-1.62,,key,null,16.666,720,394.5,,,,,,,,
518,arrowright,psychophysics,131,159037,0.0-3.0-0.63,,key,arrowright,16.666,720,394.5,64,3,1,30,15,25,35,TRUE
null,null,psychophysics,132,160039,0.0-3.0-1.63,,key,null,16.666,720,394.5,,,,,,,,
628.5,arrowleft,psychophysics,133,160670,0.0-3.0-0.64,,key,arrowleft,16.666,720,394.5,65,3,-1,24,15,25,35,TRUE
null,null,psychophysics,134,161673,0.0-3.0-1.64,,key,null,16.666,720,394.5,,,,,,,,
582.8,arrowright,psychophysics,135,162258,0.0-3.0-0.65,,key,arrowright,16.666,720,394.5,66,3,-1,24,15,25,35,FALSE
null,null,psychophysics,136,163261,0.0-3.0-1.65,,key,null,16.666,720,394.5,,,,,,,,
678.2,arrowright,psychophysics,137,163954,0.0-3.0-0.66,,key,arrowright,16.666,720,394.5,67,3,-1,23,35,25,35,FALSE
null,null,psychophysics,138,164956,0.0-3.0-1.66,,key,null,16.67072881,720,394.5,,,,,,,,
620.4,arrowleft,psychophysics,139,165579,0.0-3.0-0.67,,key,arrowleft,16.666,720,394.5,68,3,-1,26,35,25,35,TRUE
null,null,psychophysics,140,166581,0.0-3.0-1.67,,key,null,16.666,720,394.5,,,,,,,,
573.2,arrowleft,psychophysics,141,167160,0.0-3.0-0.68,,key,arrowleft,16.666,720,394.5,69,3,-1,26,35,25,35,TRUE
null,null,psychophysics,142,168164,0.0-3.0-1.68,,key,null,16.666,720,394.5,,,,,,,,
1221.4,arrowright,psychophysics,143,169391,0.0-3.0-0.69,,key,arrowright,16.666,720,394.5,70,3,-1,24,35,25,35,FALSE
null,null,psychophysics,144,170397,0.0-3.0-1.69,,key,null,16.666,720,394.5,,,,,,,,
693.1,arrowright,psychophysics,145,171097,0.0-3.0-0.70,,key,arrowright,16.666,720,394.5,71,3,1,27,15,25,35,TRUE
null,null,psychophysics,146,172099,0.0-3.0-1.70,,key,null,16.666,720,394.5,,,,,,,,
578.1,arrowleft,psychophysics,147,172680,0.0-3.0-0.71,,key,arrowleft,16.666,720,394.5,72,3,-1,23,35,25,35,TRUE
null,null,psychophysics,148,173681,0.0-3.0-1.71,,key,null,16.666,720,394.5,,,,,,,,
655.7,arrowleft,psychophysics,149,174342,0.0-3.0-0.72,,key,arrowleft,16.666,720,394.5,73,3,1,23,35,25,35,FALSE
null,null,psychophysics,150,175345,0.0-3.0-1.72,,key,null,16.67018644,720,394.5,,,,,,,,
1322.1,arrowright,psychophysics,151,176676,0.0-3.0-0.73,,key,arrowright,16.666,720,394.5,74,3,-1,24,35,25,35,FALSE
null,null,psychophysics,152,177679,0.0-3.0-1.73,,key,null,16.666,720,394.5,,,,,,,,
794,arrowleft,psychophysics,153,178479,0.0-3.0-0.74,,key,arrowleft,16.666,720,394.5,75,3,1,25,15,25,35,FALSE
null,null,psychophysics,154,179480,0.0-3.0-1.74,,key,null,16.666,720,394.5,,,,,,,,
879.6,arrowleft,psychophysics,155,180370,0.0-3.0-0.75,,key,arrowleft,16.666,720,394.5,76,3,1,23,15,25,35,FALSE
null,null,psychophysics,156,181372,0.0-3.0-1.75,,key,null,16.666,720,394.5,,,,,,,,
613.8,arrowleft,psychophysics,157,181992,0.0-3.0-0.76,,key,arrowleft,16.666,720,394.5,77,3,-1,24,35,25,35,TRUE
null,null,psychophysics,158,182995,0.0-3.0-1.76,,key,null,16.666,720,394.5,,,,,,,,
635.7,arrowleft,psychophysics,159,183636,0.0-3.0-0.77,,key,arrowleft,16.666,720,394.5,78,3,-1,20,15,25,35,TRUE
null,null,psychophysics,160,184638,0.0-3.0-1.77,,key,null,16.666,720,394.5,,,,,,,,
1221,arrowleft,psychophysics,161,185862,0.0-3.0-0.78,,key,arrowleft,16.67056944,720,394.5,79,3,-1,23,15,25,35,TRUE
null,null,psychophysics,162,186864,0.0-3.0-1.78,,key,null,16.666,720,394.5,,,,,,,,
819.7,arrowleft,psychophysics,163,187689,0.0-3.0-0.79,,key,arrowleft,16.666,720,394.5,80,3,-1,26,35,25,35,TRUE
null,null,psychophysics,164,188694,0.0-3.0-1.79,,key,null,16.666,720,394.5,,,,,,,,
703.5,arrowright,psychophysics,165,189402,0.0-3.0-0.80,,key,arrowright,16.666,720,394.5,81,3,-1,23,35,25,35,FALSE
null,null,psychophysics,166,190403,0.0-3.0-1.80,,key,null,16.666,720,394.5,,,,,,,,
1557.2,arrowleft,psychophysics,167,191963,0.0-3.0-0.81,,key,arrowleft,16.666,720,394.5,82,3,1,23,35,25,35,FALSE
null,null,psychophysics,168,192965,0.0-3.0-1.81,,key,null,16.666,720,394.5,,,,,,,,
584.6,arrowright,psychophysics,169,193553,0.0-3.0-0.82,,key,arrowright,16.666,720,394.5,83,3,1,25,15,25,35,TRUE
null,null,psychophysics,170,194558,0.0-3.0-1.82,,key,null,16.666,720,394.5,,,,,,,,
923.2,arrowright,psychophysics,171,195485,0.0-3.0-0.83,,key,arrowright,16.67076364,720,394.5,84,4,-1,25,35,25,35,FALSE
null,null,psychophysics,172,196486,0.0-3.0-1.83,,key,null,16.666,720,394.5,,,,,,,,
1635.1,arrowleft,html-keyboard-response,173,198122,0.0-3.0-2.83-0.83,"<div style=""color: white; text-align: center; vertical-align: top; display: inline-block; width: 800px; margin: auto""><p>You have completed 30% of the trials. You are on block 4 of 10. <br>Good job! Take a break if you need to.</p><p>Press any key to continue the experiment.</p></div>",,,,,,,,,,,,,
757.5,arrowleft,psychophysics,174,199886,0.0-3.0-0.84,,key,arrowleft,16.666,720,394.5,85,4,-1,26,15,25,35,TRUE
null,null,psychophysics,175,200892,0.0-3.0-1.84,,key,null,16.666,720,394.5,,,,,,,,
1043.1,arrowright,psychophysics,176,201937,0.0-3.0-0.85,,key,arrowright,16.666,720,394.5,86,4,-1,20,35,25,35,FALSE
null,null,psychophysics,177,202938,0.0-3.0-1.85,,key,null,16.666,720,394.5,,,,,,,,
945.1,arrowright,psychophysics,178,203885,0.0-3.0-0.86,,key,arrowright,16.666,720,394.5,87,4,1,26,35,25,35,TRUE
null,null,psychophysics,179,204886,0.0-3.0-1.86,,key,null,16.666,720,394.5,,,,,,,,
995.5,arrowright,psychophysics,180,205884,0.0-3.0-0.87,,key,arrowright,16.66952542,720,394.5,88,4,1,23,15,25,35,TRUE
null,null,psychophysics,181,206888,0.0-3.0-1.87,,key,null,16.666,720,394.5,,,,,,,,
570.7,arrowright,psychophysics,182,207462,0.0-3.0-0.88,,key,arrowright,16.666,720,394.5,89,4,1,30,15,25,35,TRUE
null,null,psychophysics,183,208463,0.0-3.0-1.88,,key,null,16.666,720,394.5,,,,,,,,
726.3,arrowleft,psychophysics,184,209195,0.0-3.0-0.89,,key,arrowleft,16.666,720,394.5,90,4,1,23,35,25,35,FALSE
null,null,psychophysics,185,210197,0.0-3.0-1.89,,key,null,16.666,720,394.5,,,,,,,,
790.2,arrowleft,psychophysics,186,210992,0.0-3.0-0.90,,key,arrowleft,16.666,720,394.5,91,4,1,23,35,25,35,FALSE
null,null,psychophysics,187,211994,0.0-3.0-1.90,,key,null,16.666,720,394.5,,,,,,,,
745.9,arrowleft,psychophysics,188,212753,0.0-3.0-0.91,,key,arrowleft,16.666,720,394.5,92,4,-1,26,15,25,35,TRUE
null,null,psychophysics,189,213754,0.0-3.0-1.91,,key,null,16.666,720,394.5,,,,,,,,
597.1,arrowleft,psychophysics,190,214354,0.0-3.0-0.92,,key,arrowleft,16.666,720,394.5,93,4,-1,30,15,25,35,TRUE
null,null,psychophysics,191,215357,0.0-3.0-1.92,,key,null,16.67059322,720,394.5,,,,,,,,
1048.8,arrowleft,psychophysics,192,216409,0.0-3.0-0.93,,key,arrowleft,16.666,720,394.5,94,4,1,20,15,25,35,FALSE
null,null,psychophysics,193,217413,0.0-3.0-1.93,,key,null,16.666,720,394.5,,,,,,,,
798.6,arrowleft,psychophysics,194,218218,0.0-3.0-0.94,,key,arrowleft,16.666,720,394.5,95,4,1,27,35,25,35,FALSE
null,null,psychophysics,195,219224,0.0-3.0-1.94,,key,null,16.666,720,394.5,,,,,,,,
696.1,arrowleft,psychophysics,196,219924,0.0-3.0-0.95,,key,arrowleft,16.666,720,394.5,96,4,-1,25,15,25,35,TRUE
null,null,psychophysics,197,220926,0.0-3.0-1.95,,key,null,16.666,720,394.5,,,,,,,,
712.5,arrowleft,psychophysics,198,221642,0.0-3.0-0.96,,key,arrowleft,16.666,720,394.5,97,4,1,25,35,25,35,FALSE
null,null,psychophysics,199,222644,0.0-3.0-1.96,,key,null,16.666,720,394.5,,,,,,,,
687.7,arrowright,psychophysics,200,223340,0.0-3.0-0.97,,key,arrowright,16.666,720,394.5,98,4,1,30,35,25,35,TRUE
null,null,psychophysics,201,224341,0.0-3.0-1.97,,key,null,16.666,720,394.5,,,,,,,,
572.7,arrowleft,psychophysics,202,224924,0.0-3.0-0.98,,key,arrowleft,16.666,720,394.5,99,4,1,26,35,25,35,FALSE
null,null,psychophysics,203,225927,0.0-3.0-1.98,,key,null,16.67049153,720,394.5,,,,,,,,
957.9,arrowright,psychophysics,204,226887,0.0-3.0-0.99,,key,arrowright,16.666,720,394.5,100,4,1,24,15,25,35,TRUE
null,null,psychophysics,205,227890,0.0-3.0-1.99,,key,null,16.666,720,394.5,,,,,,,,
661,arrowleft,psychophysics,206,228554,0.0-3.0-0.100,,key,arrowleft,16.666,720,394.5,101,4,-1,27,35,25,35,TRUE
null,null,psychophysics,207,229557,0.0-3.0-1.100,,key,null,16.666,720,394.5,,,,,,,,
724.7,arrowleft,psychophysics,208,230286,0.0-3.0-0.101,,key,arrowleft,16.666,720,394.5,102,4,-1,24,15,25,35,TRUE
null,null,psychophysics,209,231293,0.0-3.0-1.101,,key,null,16.666,720,394.5,,,,,,,,
597.3,arrowleft,psychophysics,210,231894,0.0-3.0-0.102,,key,arrowleft,16.666,720,394.5,103,4,-1,25,15,25,35,TRUE
null,null,psychophysics,211,232896,0.0-3.0-1.102,,key,null,16.666,720,394.5,,,,,,,,
541.3,arrowleft,psychophysics,212,233444,0.0-3.0-0.103,,key,arrowleft,16.666,720,394.5,104,4,1,26,35,25,35,FALSE
null,null,psychophysics,213,234446,0.0-3.0-1.103,,key,null,16.666,720,394.5,,,,,,,,
517.7,arrowleft,psychophysics,214,234970,0.0-3.0-0.104,,key,arrowleft,16.666,720,394.5,105,4,-1,30,15,25,35,TRUE
null,null,psychophysics,215,235972,0.0-3.0-1.104,,key,null,16.67049153,720,394.5,,,,,,,,
355.2,arrowleft,psychophysics,216,236334,0.0-3.0-0.105,,key,arrowleft,16.666,720,394.5,106,4,-1,20,15,25,35,TRUE
null,null,psychophysics,217,237336,0.0-3.0-1.105,,key,null,16.666,720,394.5,,,,,,,,
646.7,arrowleft,psychophysics,218,237986,0.0-3.0-0.106,,key,arrowleft,16.666,720,394.5,107,4,-1,26,35,25,35,TRUE
null,null,psychophysics,219,238988,0.0-3.0-1.106,,key,null,16.666,720,394.5,,,,,,,,
648.8,arrowleft,psychophysics,220,239641,0.0-3.0-0.107,,key,arrowleft,16.666,720,394.5,108,4,-1,25,35,25,35,TRUE
null,null,psychophysics,221,240644,0.0-3.0-1.107,,key,null,16.666,720,394.5,,,,,,,,
846.4,arrowleft,psychophysics,222,241497,0.0-3.0-0.108,,key,arrowleft,16.666,720,394.5,109,4,-1,27,35,25,35,TRUE
null,null,psychophysics,223,242498,0.0-3.0-1.108,,key,null,16.666,720,394.5,,,,,,,,
1013.8,arrowleft,psychophysics,224,243520,0.0-3.0-0.109,,key,arrowleft,16.666,720,394.5,110,4,-1,26,35,25,35,TRUE
null,null,psychophysics,225,244521,0.0-3.0-1.109,,key,null,16.666,720,394.5,,,,,,,,
943.5,arrowright,psychophysics,226,245467,0.0-3.0-0.110,,key,arrowright,16.67080357,720,394.5,111,4,1,27,35,25,35,TRUE
null,null,psychophysics,227,246469,0.0-3.0-1.110,,key,null,16.666,720,394.5,,,,,,,,
631.2,arrowleft,psychophysics,228,247103,0.0-3.0-0.111,,key,arrowleft,16.666,720,394.5,112,5,1,20,35,25,35,FALSE
null,null,psychophysics,229,248105,0.0-3.0-1.111,,key,null,16.666,720,394.5,,,,,,,,
900.7,arrowleft,html-keyboard-response,230,249011,0.0-3.0-2.111-0.111,"<div style=""color: white; text-align: center; vertical-align: top; display: inline-block; width: 800px; margin: auto""><p>You have completed 40% of the trials. You are on block 5 of 10. <br>Good job! Take a break if you need to.</p><p>Press any key to continue the experiment.</p></div>",,,,,,,,,,,,,
902.8,arrowright,psychophysics,231,250928,0.0-3.0-0.112,,key,arrowright,16.666,720,394.5,113,5,1,27,15,25,35,TRUE
null,null,psychophysics,232,251930,0.0-3.0-1.112,,key,null,16.666,720,394.5,,,,,,,,
673.4,arrowleft,psychophysics,233,252609,0.0-3.0-0.113,,key,arrowleft,16.666,720,394.5,114,5,-1,30,35,25,35,TRUE
null,null,psychophysics,234,253612,0.0-3.0-1.113,,key,null,16.666,720,394.5,,,,,,,,
1251.4,arrowright,psychophysics,235,254871,0.0-3.0-0.114,,key,arrowright,16.666,720,394.5,115,5,1,25,15,25,35,TRUE
null,null,psychophysics,236,255876,0.0-3.0-1.114,,key,null,16.75354237,720,394.5,,,,,,,,
713.4,arrowright,psychophysics,237,256592,0.0-3.0-0.115,,key,arrowright,16.666,720,394.5,116,5,1,27,15,25,35,TRUE
null,null,psychophysics,238,257594,0.0-3.0-1.115,,key,null,16.666,720,394.5,,,,,,,,
600.1,arrowleft,psychophysics,239,258196,0.0-3.0-0.116,,key,arrowleft,16.666,720,394.5,117,5,-1,30,35,25,35,TRUE
null,null,psychophysics,240,259198,0.0-3.0-1.116,,key,null,16.666,720,394.5,,,,,,,,
704,arrowright,psychophysics,241,259908,0.0-3.0-0.117,,key,arrowright,16.666,720,394.5,118,5,1,30,35,25,35,TRUE
null,null,psychophysics,242,260910,0.0-3.0-1.117,,key,null,16.666,720,394.5,,,,,,,,
779.2,arrowleft,psychophysics,243,261697,0.0-3.0-0.118,,key,arrowleft,16.666,720,394.5,119,5,-1,26,15,25,35,TRUE
null,null,psychophysics,244,262698,0.0-3.0-1.118,,key,null,16.666,720,394.5,,,,,,,,
560.4,arrowleft,psychophysics,245,263264,0.0-3.0-0.119,,key,arrowleft,16.666,720,394.5,120,5,1,20,35,25,35,FALSE
null,null,psychophysics,246,264267,0.0-3.0-1.119,,key,null,16.666,720,394.5,,,,,,,,
500.9,arrowleft,psychophysics,247,264774,0.0-3.0-0.120,,key,arrowleft,16.666,720,394.5,121,5,-1,23,35,25,35,TRUE
null,null,psychophysics,248,265775,0.0-3.0-1.120,,key,null,16.6709322,720,394.5,,,,,,,,
648.9,arrowleft,psychophysics,249,266427,0.0-3.0-0.121,,key,arrowleft,16.666,720,394.5,122,5,-1,25,15,25,35,TRUE
null,null,psychophysics,250,267429,0.0-3.0-1.121,,key,null,16.666,720,394.5,,,,,,,,
724.5,arrowleft,psychophysics,251,268156,0.0-3.0-0.122,,key,arrowleft,16.666,720,394.5,123,5,-1,24,35,25,35,TRUE
null,null,psychophysics,252,269164,0.0-3.0-1.122,,key,null,16.666,720,394.5,,,,,,,,
563.8,arrowright,psychophysics,253,269731,0.0-3.0-0.123,,key,arrowright,16.666,720,394.5,124,5,1,30,15,25,35,TRUE
null,null,psychophysics,254,270734,0.0-3.0-1.123,,key,null,16.666,720,394.5,,,,,,,,
1195.6,arrowright,psychophysics,255,271935,0.0-3.0-0.124,,key,arrowright,16.666,720,394.5,125,5,1,20,15,25,35,TRUE
null,null,psychophysics,256,272937,0.0-3.0-1.124,,key,null,16.666,720,394.5,,,,,,,,
735.6,arrowleft,psychophysics,257,273680,0.0-3.0-0.125,,key,arrowleft,16.666,720,394.5,126,5,-1,26,15,25,35,TRUE
null,null,psychophysics,258,274682,0.0-3.0-1.125,,key,null,16.666,720,394.5,,,,,,,,
556.4,arrowright,psychophysics,259,275248,0.0-3.0-0.126,,key,arrowright,16.666,720,394.5,127,5,1,30,15,25,35,TRUE
null,null,psychophysics,260,276250,0.0-3.0-1.126,,key,null,16.66957627,720,394.5,,,,,,,,
733.4,arrowright,psychophysics,261,276990,0.0-3.0-0.127,,key,arrowright,16.666,720,394.5,128,5,1,24,15,25,35,TRUE
null,null,psychophysics,262,277991,0.0-3.0-1.127,,key,null,16.666,720,394.5,,,,,,,,
584.6,arrowleft,psychophysics,263,278578,0.0-3.0-0.128,,key,arrowleft,16.666,720,394.5,129,5,1,20,35,25,35,FALSE
null,null,psychophysics,264,279580,0.0-3.0-1.128,,key,null,16.666,720,394.5,,,,,,,,
574.1,arrowleft,psychophysics,265,280158,0.0-3.0-0.129,,key,arrowleft,16.666,720,394.5,130,5,1,20,15,25,35,FALSE
null,null,psychophysics,266,281160,0.0-3.0-1.129,,key,null,16.666,720,394.5,,,,,,,,
631.9,arrowleft,psychophysics,267,281807,0.0-3.0-0.130,,key,arrowleft,16.666,720,394.5,131,5,1,20,35,25,35,FALSE
null,null,psychophysics,268,282809,0.0-3.0-1.130,,key,null,16.666,720,394.5,,,,,,,,
1262.2,arrowleft,psychophysics,269,284074,0.0-3.0-0.131,,key,arrowleft,16.666,720,394.5,132,5,-1,25,35,25,35,TRUE
null,null,psychophysics,270,285075,0.0-3.0-1.131,,key,null,16.666,720,394.5,,,,,,,,
603.4,arrowleft,psychophysics,271,285681,0.0-3.0-0.132,,key,arrowleft,16.67522857,720,394.5,133,5,-1,27,15,25,35,TRUE
null,null,psychophysics,272,286683,0.0-3.0-1.132,,key,null,16.666,720,394.5,,,,,,,,
718.8,arrowleft,psychophysics,273,287409,0.0-3.0-0.133,,key,arrowleft,16.666,720,394.5,134,5,1,23,35,25,35,FALSE
null,null,psychophysics,274,288416,0.0-3.0-1.133,,key,null,16.666,720,394.5,,,,,,,,
618.8,arrowright,psychophysics,275,289040,0.0-3.0-0.134,,key,arrowright,16.666,720,394.5,135,5,1,25,15,25,35,TRUE
null,null,psychophysics,276,290042,0.0-3.0-1.134,,key,null,16.666,720,394.5,,,,,,,,
679.7,arrowleft,psychophysics,277,290724,0.0-3.0-0.135,,key,arrowleft,16.666,720,394.5,136,5,-1,30,15,25,35,TRUE
null,null,psychophysics,278,291726,0.0-3.0-1.135,,key,null,16.666,720,394.5,,,,,,,,
593,arrowright,psychophysics,279,292322,0.0-3.0-0.136,,key,arrowright,16.666,720,394.5,137,5,-1,23,35,25,35,FALSE
null,null,psychophysics,280,293323,0.0-3.0-1.136,,key,null,16.666,720,394.5,,,,,,,,
569.2,arrowright,psychophysics,281,293895,0.0-3.0-0.137,,key,arrowright,16.666,720,394.5,138,5,1,27,15,25,35,TRUE
null,null,psychophysics,282,294897,0.0-3.0-1.137,,key,null,16.666,720,394.5,,,,,,,,
656.8,arrowleft,psychophysics,283,295557,0.0-3.0-0.138,,key,arrowleft,16.67269231,720,394.5,139,5,-1,24,15,25,35,TRUE
null,null,psychophysics,284,296558,0.0-3.0-1.138,,key,null,16.666,720,394.5,,,,,,,,
527.9,arrowleft,psychophysics,285,297094,0.0-3.0-0.139,,key,arrowleft,16.666,720,394.5,140,6,-1,20,35,25,35,TRUE
null,null,psychophysics,286,298096,0.0-3.0-1.139,,key,null,16.666,720,394.5,,,,,,,,
14406.1,arrowleft,html-keyboard-response,287,312504,0.0-3.0-2.139-0.139,"<div style=""color: white; text-align: center; vertical-align: top; display: inline-block; width: 800px; margin: auto""><p>You have completed 50% of the trials. You are on block 6 of 10. <br>Good job! Take a break if you need to.</p><p>Press any key to continue the experiment.</p></div>",,,,,,,,,,,,,
801.4,arrowleft,psychophysics,288,314320,0.0-3.0-0.140,,key,arrowleft,16.57302041,720,394.5,141,6,-1,25,35,25,35,TRUE
null,null,psychophysics,289,315322,0.0-3.0-1.140,,key,null,16.666,720,394.5,,,,,,,,
678.7,arrowleft,psychophysics,290,316003,0.0-3.0-0.141,,key,arrowleft,16.666,720,394.5,142,6,1,25,35,25,35,FALSE
null,null,psychophysics,291,317005,0.0-3.0-1.141,,key,null,16.666,720,394.5,,,,,,,,
832.7,arrowright,psychophysics,292,317841,0.0-3.0-0.142,,key,arrowright,16.666,720,394.5,143,6,1,23,15,25,35,TRUE
null,null,psychophysics,293,318844,0.0-3.0-1.142,,key,null,16.666,720,394.5,,,,,,,,
521.4,arrowright,psychophysics,294,319378,0.0-3.0-0.143,,key,arrowright,16.666,720,394.5,144,6,1,25,15,25,35,TRUE
null,null,psychophysics,295,320380,0.0-3.0-1.143,,key,null,16.666,720,394.5,,,,,,,,
670.3,arrowright,psychophysics,296,321054,0.0-3.0-0.144,,key,arrowright,16.666,720,394.5,145,6,1,23,35,25,35,TRUE
null,null,psychophysics,297,322056,0.0-3.0-1.144,,key,null,16.666,720,394.5,,,,,,,,
818,arrowright,psychophysics,298,322876,0.0-3.0-0.145,,key,arrowright,16.50257143,720,394.5,146,6,1,23,15,25,35,TRUE
null,null,psychophysics,299,323878,0.0-3.0-1.145,,key,null,16.666,720,394.5,,,,,,,,
676.4,arrowright,psychophysics,300,324558,0.0-3.0-0.146,,key,arrowright,16.666,720,394.5,147,6,-1,25,35,25,35,FALSE
null,null,psychophysics,301,325565,0.0-3.0-1.146,,key,null,16.666,720,394.5,,,,,,,,
959.7,arrowright,psychophysics,302,326528,0.0-3.0-0.147,,key,arrowright,16.666,720,394.5,148,6,1,27,15,25,35,TRUE
null,null,psychophysics,303,327531,0.0-3.0-1.147,,key,null,16.666,720,394.5,,,,,,,,
931.4,arrowright,psychophysics,304,328465,0.0-3.0-0.148,,key,arrowright,16.666,720,394.5,149,6,1,23,15,25,35,TRUE
null,null,psychophysics,305,329467,0.0-3.0-1.148,,key,null,16.666,720,394.5,,,,,,,,
956.9,arrowleft,psychophysics,306,330427,0.0-3.0-0.149,,key,arrowleft,16.666,720,394.5,150,6,1,24,35,25,35,FALSE
null,null,psychophysics,307,331428,0.0-3.0-1.149,,key,null,16.666,720,394.5,,,,,,,,
723.3,arrowright,psychophysics,308,332162,0.0-3.0-0.150,,key,arrowright,16.666,720,394.5,151,6,1,26,35,25,35,TRUE
null,null,psychophysics,309,333165,0.0-3.0-1.150,,key,null,16.67016949,720,394.5,,,,,,,,
567.1,arrowright,psychophysics,310,333734,0.0-3.0-0.151,,key,arrowright,16.666,720,394.5,152,6,1,30,15,25,35,TRUE
null,null,psychophysics,311,334736,0.0-3.0-1.151,,key,null,16.666,720,394.5,,,,,,,,
614.9,arrowleft,psychophysics,312,335358,0.0-3.0-0.152,,key,arrowleft,16.666,720,394.5,153,6,-1,30,15,25,35,TRUE
null,null,psychophysics,313,336360,0.0-3.0-1.152,,key,null,16.666,720,394.5,,,,,,,,
897.8,arrowleft,psychophysics,314,337260,0.0-3.0-0.153,,key,arrowleft,16.666,720,394.5,154,6,-1,23,15,25,35,TRUE
null,null,psychophysics,315,338267,0.0-3.0-1.153,,key,null,16.666,720,394.5,,,,,,,,
611.6,arrowleft,psychophysics,316,338888,0.0-3.0-0.154,,key,arrowleft,16.666,720,394.5,155,6,-1,27,35,25,35,TRUE
null,null,psychophysics,317,339890,0.0-3.0-1.154,,key,null,16.666,720,394.5,,,,,,,,
800.4,arrowleft,psychophysics,318,340694,0.0-3.0-0.155,,key,arrowleft,16.666,720,394.5,156,6,-1,25,15,25,35,TRUE
null,null,psychophysics,319,341695,0.0-3.0-1.155,,key,null,16.666,720,394.5,,,,,,,,
753.6,arrowright,psychophysics,320,342452,0.0-3.0-0.156,,key,arrowright,16.666,720,394.5,157,6,1,24,15,25,35,TRUE
null,null,psychophysics,321,343453,0.0-3.0-1.156,,key,null,16.67049153,720,394.5,,,,,,,,
712.8,arrowleft,psychophysics,322,344176,0.0-3.0-0.157,,key,arrowleft,16.666,720,394.5,158,6,-1,23,35,25,35,TRUE
null,null,psychophysics,323,345178,0.0-3.0-1.157,,key,null,16.666,720,394.5,,,,,,,,
2449.4,arrowleft,psychophysics,324,347630,0.0-3.0-0.158,,key,arrowleft,16.666,720,394.5,159,6,1,23,15,25,35,FALSE
null,null,psychophysics,325,348632,0.0-3.0-1.158,,key,null,16.666,720,394.5,,,,,,,,
1521.4,arrowleft,psychophysics,326,350157,0.0-3.0-0.159,,key,arrowleft,16.666,720,394.5,160,6,-1,27,15,25,35,TRUE
null,null,psychophysics,327,351165,0.0-3.0-1.159,,key,null,16.666,720,394.5,,,,,,,,
992,arrowright,psychophysics,328,352160,0.0-3.0-0.160,,key,arrowright,16.666,720,394.5,161,6,1,20,15,25,35,TRUE
null,null,psychophysics,329,353162,0.0-3.0-1.160,,key,null,16.66964407,720,394.5,,,,,,,,
675.8,arrowright,psychophysics,330,353841,0.0-3.0-0.161,,key,arrowright,16.666,720,394.5,162,6,1,26,15,25,35,TRUE
null,null,psychophysics,331,354842,0.0-3.0-1.161,,key,null,16.666,720,394.5,,,,,,,,
775.9,arrowright,psychophysics,332,355621,0.0-3.0-0.162,,key,arrowright,16.666,720,394.5,163,6,-1,27,35,25,35,FALSE
null,null,psychophysics,333,356622,0.0-3.0-1.162,,key,null,16.666,720,394.5,,,,,,,,
623.6,arrowright,psychophysics,334,357252,0.0-3.0-0.163,,key,arrowright,16.666,720,394.5,164,6,-1,27,35,25,35,FALSE
null,null,psychophysics,335,358254,0.0-3.0-1.163,,key,null,16.666,720,394.5,,,,,,,,
856.9,arrowleft,psychophysics,336,359115,0.0-3.0-0.164,,key,arrowleft,16.666,720,394.5,165,6,1,20,15,25,35,FALSE
null,null,psychophysics,337,360117,0.0-3.0-1.164,,key,null,16.666,720,394.5,,,,,,,,
623.2,arrowleft,psychophysics,338,360745,0.0-3.0-0.165,,key,arrowleft,16.666,720,394.5,166,6,-1,27,35,25,35,TRUE
null,null,psychophysics,339,361746,0.0-3.0-1.165,,key,null,16.666,720,394.5,,,,,,,,
647.9,arrowleft,psychophysics,340,362398,0.0-3.0-0.166,,key,arrowleft,16.666,720,394.5,167,6,1,24,15,25,35,FALSE
null,null,psychophysics,341,363405,0.0-3.0-1.166,,key,null,16.67126667,720,394.5,,,,,,,,
618,arrowleft,psychophysics,342,364026,0.0-3.0-0.167,,key,arrowleft,16.666,720,394.5,168,7,1,20,35,25,35,FALSE
null,null,psychophysics,343,365028,0.0-3.0-1.167,,key,null,16.666,720,394.5,,,,,,,,
1465.3,arrowleft,html-keyboard-response,344,366494,0.0-3.0-2.167-0.167,"<div style=""color: white; text-align: center; vertical-align: top; display: inline-block; width: 800px; margin: auto""><p>You have completed 60% of the trials. You are on block 7 of 10. <br>Good job! Take a break if you need to.</p><p>Press any key to continue the experiment.</p></div>",,,,,,,,,,,,,
7918.2,arrowright,psychophysics,345,375419,0.0-3.0-0.168,,key,arrowright,16.66645684,720,394.5,169,7,-1,20,35,25,35,FALSE
null,null,psychophysics,346,376430,0.0-3.0-1.168,,key,null,16.666,720,394.5,,,,,,,,
759.9,arrowright,psychophysics,347,377193,0.0-3.0-0.169,,key,arrowright,16.666,720,394.5,170,7,1,26,35,25,35,TRUE
null,null,psychophysics,348,378195,0.0-3.0-1.169,,key,null,16.666,720,394.5,,,,,,,,
837.8,arrowright,psychophysics,349,379035,0.0-3.0-0.170,,key,arrowright,16.666,720,394.5,171,7,-1,24,35,25,35,FALSE
null,null,psychophysics,350,380036,0.0-3.0-1.170,,key,null,16.666,720,394.5,,,,,,,,
707.3,arrowright,psychophysics,351,380748,0.0-3.0-0.171,,key,arrowright,16.666,720,394.5,172,7,-1,23,35,25,35,FALSE
null,null,psychophysics,352,381749,0.0-3.0-1.171,,key,null,16.666,720,394.5,,,,,,,,
796.1,arrowright,psychophysics,353,382557,0.0-3.0-0.172,,key,arrowright,16.666,720,394.5,173,7,-1,20,15,25,35,FALSE
null,null,psychophysics,354,383558,0.0-3.0-1.172,,key,null,16.67110169,720,394.5,,,,,,,,
929.8,arrowright,psychophysics,355,384490,0.0-3.0-0.173,,key,arrowright,16.666,720,394.5,174,7,1,25,15,25,35,TRUE
null,null,psychophysics,356,385493,0.0-3.0-1.173,,key,null,16.666,720,394.5,,,,,,,,
786.6,arrowright,psychophysics,357,386282,0.0-3.0-0.174,,key,arrowright,16.666,720,394.5,175,7,1,26,15,25,35,TRUE
null,null,psychophysics,358,387285,0.0-3.0-1.174,,key,null,16.666,720,394.5,,,,,,,,
668.4,arrowleft,psychophysics,359,387960,0.0-3.0-0.175,,key,arrowleft,16.666,720,394.5,176,7,-1,23,15,25,35,TRUE
null,null,psychophysics,360,388968,0.0-3.0-1.175,,key,null,16.666,720,394.5,,,,,,,,
648.6,arrowleft,psychophysics,361,389623,0.0-3.0-0.176,,key,arrowleft,16.666,720,394.5,177,7,-1,25,35,25,35,TRUE
null,null,psychophysics,362,390626,0.0-3.0-1.176,,key,null,16.666,720,394.5,,,,,,,,
550.4,arrowleft,psychophysics,363,391179,0.0-3.0-0.177,,key,arrowleft,16.666,720,394.5,178,7,1,26,35,25,35,FALSE
null,null,psychophysics,364,392181,0.0-3.0-1.177,,key,null,16.666,720,394.5,,,,,,,,
546.3,arrowleft,psychophysics,365,392732,0.0-3.0-0.178,,key,arrowleft,16.666,720,394.5,179,7,-1,30,15,25,35,TRUE
null,null,psychophysics,366,393735,0.0-3.0-1.178,,key,null,16.67079661,720,394.5,,,,,,,,
582.9,arrowright,psychophysics,367,394332,0.0-3.0-0.179,,key,arrowright,16.666,720,394.5,180,7,-1,20,15,25,35,FALSE
null,null,psychophysics,368,395335,0.0-3.0-1.179,,key,null,16.666,720,394.5,,,,,,,,
453.9,arrowleft,psychophysics,369,395794,0.0-3.0-0.180,,key,arrowleft,16.666,720,394.5,181,7,1,24,35,25,35,FALSE
null,null,psychophysics,370,396797,0.0-3.0-1.180,,key,null,16.666,720,394.5,,,,,,,,
575.3,arrowleft,psychophysics,371,397375,0.0-3.0-0.181,,key,arrowleft,16.666,720,394.5,182,7,-1,26,15,25,35,TRUE
null,null,psychophysics,372,398377,0.0-3.0-1.181,,key,null,16.666,720,394.5,,,,,,,,
597.4,arrowleft,psychophysics,373,398978,0.0-3.0-0.182,,key,arrowleft,16.666,720,394.5,183,7,-1,20,15,25,35,TRUE
null,null,psychophysics,374,399979,0.0-3.0-1.182,,key,null,16.666,720,394.5,,,,,,,,
515.9,arrowright,psychophysics,375,400509,0.0-3.0-0.183,,key,arrowright,16.666,720,394.5,184,7,1,27,35,25,35,TRUE
null,null,psychophysics,376,401512,0.0-3.0-1.183,,key,null,16.666,720,394.5,,,,,,,,
665.7,arrowleft,psychophysics,377,402181,0.0-3.0-0.184,,key,arrowleft,16.666,720,394.5,185,7,-1,20,15,25,35,TRUE
null,null,psychophysics,378,403185,0.0-3.0-1.184,,key,null,16.67059322,720,394.5,,,,,,,,
463,arrowleft,psychophysics,379,403653,0.0-3.0-0.185,,key,arrowleft,16.666,720,394.5,186,7,1,25,35,25,35,FALSE
null,null,psychophysics,380,404655,0.0-3.0-1.185,,key,null,16.666,720,394.5,,,,,,,,
498.5,arrowleft,psychophysics,381,405156,0.0-3.0-0.186,,key,arrowleft,16.666,720,394.5,187,7,-1,25,15,25,35,TRUE
null,null,psychophysics,382,406158,0.0-3.0-1.186,,key,null,16.666,720,394.5,,,,,,,,
576.1,arrowleft,psychophysics,383,406737,0.0-3.0-0.187,,key,arrowleft,16.666,720,394.5,188,7,-1,24,35,25,35,TRUE
null,null,psychophysics,384,407748,0.0-3.0-1.187,,key,null,16.666,720,394.5,,,,,,,,
422.2,arrowleft,psychophysics,385,408173,0.0-3.0-0.188,,key,arrowleft,16.666,720,394.5,189,7,1,26,35,25,35,FALSE
null,null,psychophysics,386,409176,0.0-3.0-1.188,,key,null,16.666,720,394.5,,,,,,,,
429.6,arrowleft,psychophysics,387,409608,0.0-3.0-0.189,,key,arrowleft,16.666,720,394.5,190,7,-1,30,35,25,35,TRUE
null,null,psychophysics,388,410609,0.0-3.0-1.189,,key,null,16.666,720,394.5,,,,,,,,
558.4,arrowleft,psychophysics,389,411169,0.0-3.0-0.190,,key,arrowleft,16.666,720,394.5,191,7,-1,27,15,25,35,TRUE
null,null,psychophysics,390,412171,0.0-3.0-1.190,,key,null,16.666,720,394.5,,,,,,,,
686.8,arrowleft,psychophysics,391,412860,0.0-3.0-0.191,,key,arrowleft,16.666,720,394.5,192,7,1,27,35,25,35,FALSE
null,null,psychophysics,392,413868,0.0-3.0-1.191,,key,null,16.67037288,720,394.5,,,,,,,,
556.9,arrowleft,psychophysics,393,414430,0.0-3.0-0.192,,key,arrowleft,16.666,720,394.5,193,7,1,20,15,25,35,FALSE
null,null,psychophysics,394,415432,0.0-3.0-1.192,,key,null,16.666,720,394.5,,,,,,,,
646.3,arrowright,psychophysics,395,416082,0.0-3.0-0.193,,key,arrowright,16.666,720,394.5,194,7,1,30,35,25,35,TRUE
null,null,psychophysics,396,417085,0.0-3.0-1.193,,key,null,16.666,720,394.5,,,,,,,,
461.5,arrowleft,psychophysics,397,417552,0.0-3.0-0.194,,key,arrowleft,16.666,720,394.5,195,7,1,20,35,25,35,FALSE
null,null,psychophysics,398,418554,0.0-3.0-1.194,,key,null,16.666,720,394.5,,,,,,,,
660.8,arrowright,psychophysics,399,419224,0.0-3.0-0.195,,key,arrowright,16.666,720,394.5,196,8,1,25,15,25,35,TRUE
null,null,psychophysics,400,420225,0.0-3.0-1.195,,key,null,16.666,720,394.5,,,,,,,,
1070.5,arrowright,html-keyboard-response,401,421297,0.0-3.0-2.195-0.195,"<div style=""color: white; text-align: center; vertical-align: top; display: inline-block; width: 800px; margin: auto""><p>You have completed 70% of the trials. You are on block 8 of 10. <br>Good job! Take a break if you need to.</p><p>Press any key to continue the experiment.</p></div>",,,,,,,,,,,,,
841.9,arrowleft,psychophysics,402,423148,0.0-3.0-0.196,,key,arrowleft,16.77618,720,394.5,197,8,1,27,35,25,35,FALSE
null,null,psychophysics,403,424150,0.0-3.0-1.196,,key,null,16.666,720,394.5,,,,,,,,
478.2,arrowleft,psychophysics,404,424631,0.0-3.0-0.197,,key,arrowleft,16.666,720,394.5,198,8,-1,24,15,25,35,TRUE
null,null,psychophysics,405,425640,0.0-3.0-1.197,,key,null,16.666,720,394.5,,,,,,,,
656.7,arrowleft,psychophysics,406,426303,0.0-3.0-0.198,,key,arrowleft,16.666,720,394.5,199,8,1,25,35,25,35,FALSE
null,null,psychophysics,407,427306,0.0-3.0-1.198,,key,null,16.666,720,394.5,,,,,,,,
1169.7,arrowleft,psychophysics,408,428480,0.0-3.0-0.199,,key,arrowleft,16.666,720,394.5,200,8,-1,24,35,25,35,TRUE
null,null,psychophysics,409,429482,0.0-3.0-1.199,,key,null,16.666,720,394.5,,,,,,,,
794.7,arrowleft,psychophysics,410,430279,0.0-3.0-0.200,,key,arrowleft,16.666,720,394.5,201,8,1,20,35,25,35,FALSE
null,null,psychophysics,411,431280,0.0-3.0-1.200,,key,null,16.666,720,394.5,,,,,,,,
671.5,arrowleft,psychophysics,412,431965,0.0-3.0-0.201,,key,arrowleft,16.666,720,394.5,202,8,-1,25,15,25,35,TRUE
null,null,psychophysics,413,432967,0.0-3.0-1.201,,key,null,16.6699322,720,394.5,,,,,,,,
602.2,arrowright,psychophysics,414,433572,0.0-3.0-0.202,,key,arrowright,16.666,720,394.5,203,8,1,30,35,25,35,TRUE
null,null,psychophysics,415,434574,0.0-3.0-1.202,,key,null,16.666,720,394.5,,,,,,,,
767.7,arrowright,psychophysics,416,435348,0.0-3.0-0.203,,key,arrowright,16.666,720,394.5,204,8,-1,20,35,25,35,FALSE
null,null,psychophysics,417,436349,0.0-3.0-1.203,,key,null,16.666,720,394.5,,,,,,,,
428.6,arrowleft,psychophysics,418,436780,0.0-3.0-0.204,,key,arrowleft,16.666,720,394.5,205,8,1,30,15,25,35,FALSE
null,null,psychophysics,419,437787,0.0-3.0-1.204,,key,null,16.666,720,394.5,,,,,,,,
529.5,arrowleft,psychophysics,420,438330,0.0-3.0-0.205,,key,arrowleft,16.666,720,394.5,206,8,-1,30,15,25,35,TRUE
null,null,psychophysics,421,439331,0.0-3.0-1.205,,key,null,16.666,720,394.5,,,,,,,,
611.6,arrowleft,psychophysics,422,439945,0.0-3.0-0.206,,key,arrowleft,16.666,720,394.5,207,8,1,27,35,25,35,FALSE
null,null,psychophysics,423,440946,0.0-3.0-1.206,,key,null,16.666,720,394.5,,,,,,,,
617.3,arrowright,psychophysics,424,441566,0.0-3.0-0.207,,key,arrowright,16.666,720,394.5,208,8,1,30,35,25,35,TRUE
null,null,psychophysics,425,442568,0.0-3.0-1.207,,key,null,16.666,720,394.5,,,,,,,,
636.5,arrowleft,psychophysics,426,443208,0.0-3.0-0.208,,key,arrowleft,16.67452632,720,394.5,209,8,-1,23,35,25,35,TRUE
null,null,psychophysics,427,444210,0.0-3.0-1.208,,key,null,16.666,720,394.5,,,,,,,,
424.6,arrowright,psychophysics,428,444645,0.0-3.0-0.209,,key,arrowright,16.666,720,394.5,210,8,-1,24,35,25,35,FALSE
null,null,psychophysics,429,445647,0.0-3.0-1.209,,key,null,16.666,720,394.5,,,,,,,,
372.4,arrowleft,psychophysics,430,446022,0.0-3.0-0.210,,key,arrowleft,16.666,720,394.5,211,8,1,24,15,25,35,FALSE
null,null,psychophysics,431,447023,0.0-3.0-1.210,,key,null,16.666,720,394.5,,,,,,,,
419.8,arrowright,psychophysics,432,447448,0.0-3.0-0.211,,key,arrowright,16.666,720,394.5,212,8,-1,23,15,25,35,FALSE
null,null,psychophysics,433,448449,0.0-3.0-1.211,,key,null,16.666,720,394.5,,,,,,,,
395.3,arrowleft,psychophysics,434,448847,0.0-3.0-0.212,,key,arrowleft,16.666,720,394.5,213,8,-1,23,15,25,35,TRUE
null,null,psychophysics,435,449849,0.0-3.0-1.212,,key,null,16.666,720,394.5,,,,,,,,
456.8,arrowleft,psychophysics,436,450319,0.0-3.0-0.213,,key,arrowleft,16.666,720,394.5,214,8,-1,30,15,25,35,TRUE
null,null,psychophysics,437,451322,0.0-3.0-1.213,,key,null,16.666,720,394.5,,,,,,,,
437.6,arrowleft,psychophysics,438,451765,0.0-3.0-0.214,,key,arrowleft,16.666,720,394.5,215,8,1,26,15,25,35,FALSE
null,null,psychophysics,439,452766,0.0-3.0-1.214,,key,null,16.666,720,394.5,,,,,,,,
410.7,arrowleft,psychophysics,440,453180,0.0-3.0-0.215,,key,arrowleft,16.6765,720,394.5,216,8,-1,25,35,25,35,TRUE
null,null,psychophysics,441,454181,0.0-3.0-1.215,,key,null,16.666,720,394.5,,,,,,,,
686.7,arrowright,psychophysics,442,454873,0.0-3.0-0.216,,key,arrowright,16.666,720,394.5,217,8,1,25,15,25,35,TRUE
null,null,psychophysics,443,455874,0.0-3.0-1.216,,key,null,16.666,720,394.5,,,,,,,,
529.2,arrowleft,psychophysics,444,456413,0.0-3.0-0.217,,key,arrowleft,16.666,720,394.5,218,8,1,24,35,25,35,FALSE
null,null,psychophysics,445,457415,0.0-3.0-1.217,,key,null,16.666,720,394.5,,,,,,,,
723.4,arrowleft,psychophysics,446,458141,0.0-3.0-0.218,,key,arrowleft,16.666,720,394.5,219,8,1,25,15,25,35,FALSE
null,null,psychophysics,447,459144,0.0-3.0-1.218,,key,null,16.666,720,394.5,,,,,,,,
632.7,arrowleft,psychophysics,448,459780,0.0-3.0-0.219,,key,arrowleft,16.666,720,394.5,220,8,-1,27,15,25,35,TRUE
null,null,psychophysics,449,460781,0.0-3.0-1.219,,key,null,16.666,720,394.5,,,,,,,,
542.9,arrowleft,psychophysics,450,461328,0.0-3.0-0.220,,key,arrowleft,16.666,720,394.5,221,8,1,24,15,25,35,FALSE
null,null,psychophysics,451,462329,0.0-3.0-1.220,,key,null,16.666,720,394.5,,,,,,,,
614.9,arrowright,psychophysics,452,462953,0.0-3.0-0.221,,key,arrowright,16.666,720,394.5,222,8,-1,26,35,25,35,FALSE
null,null,psychophysics,453,463956,0.0-3.0-1.221,,key,null,16.67072881,720,394.5,,,,,,,,
518.2,arrowleft,psychophysics,454,464479,0.0-3.0-0.222,,key,arrowleft,16.666,720,394.5,223,8,1,24,35,25,35,FALSE
null,null,psychophysics,455,465481,0.0-3.0-1.222,,key,null,16.666,720,394.5,,,,,,,,
528.6,arrowright,psychophysics,456,466013,0.0-3.0-0.223,,key,arrowright,16.666,720,394.5,224,9,1,30,15,25,35,TRUE
null,null,psychophysics,457,467014,0.0-3.0-1.223,,key,null,16.666,720,394.5,,,,,,,,
3567.9,arrowleft,html-keyboard-response,458,470583,0.0-3.0-2.223-0.223,"<div style=""color: white; text-align: center; vertical-align: top; display: inline-block; width: 800px; margin: auto""><p>You have completed 80% of the trials. You are on block 9 of 10. <br>Good job! Take a break if you need to.</p><p>Press any key to continue the experiment.</p></div>",,,,,,,,,,,,,
1440.7,arrowleft,psychophysics,459,473038,0.0-3.0-0.224,,key,arrowleft,16.666,720,394.5,225,9,1,25,35,25,35,FALSE
null,null,psychophysics,460,474040,0.0-3.0-1.224,,key,null,16.776,720,394.5,,,,,,,,
658.8,arrowright,psychophysics,461,474702,0.0-3.0-0.225,,key,arrowright,16.666,720,394.5,226,9,1,25,35,25,35,TRUE
null,null,psychophysics,462,475704,0.0-3.0-1.225,,key,null,16.666,720,394.5,,,,,,,,
930.6,arrowleft,psychophysics,463,476638,0.0-3.0-0.226,,key,arrowleft,16.666,720,394.5,227,9,1,23,35,25,35,FALSE
null,null,psychophysics,464,477646,0.0-3.0-1.226,,key,null,16.666,720,394.5,,,,,,,,
801.8,arrowright,psychophysics,465,478452,0.0-3.0-0.227,,key,arrowright,16.666,720,394.5,228,9,-1,20,15,25,35,FALSE
null,null,psychophysics,466,479454,0.0-3.0-1.227,,key,null,16.666,720,394.5,,,,,,,,
647,arrowleft,psychophysics,467,480103,0.0-3.0-0.228,,key,arrowleft,16.666,720,394.5,229,9,1,23,35,25,35,FALSE
null,null,psychophysics,468,481105,0.0-3.0-1.228,,key,null,16.666,720,394.5,,,,,,,,
763.9,arrowleft,psychophysics,469,481872,0.0-3.0-0.229,,key,arrowleft,16.666,720,394.5,230,9,-1,20,15,25,35,TRUE
null,null,psychophysics,470,482875,0.0-3.0-1.229,,key,null,16.666,720,394.5,,,,,,,,
585.9,arrowright,psychophysics,471,483473,0.0-3.0-0.230,,key,arrowright,16.67228571,720,394.5,231,9,1,26,35,25,35,TRUE
null,null,psychophysics,472,484475,0.0-3.0-1.230,,key,null,16.666,720,394.5,,,,,,,,
532.6,arrowright,psychophysics,473,485010,0.0-3.0-0.231,,key,arrowright,16.666,720,394.5,232,9,-1,20,35,25,35,FALSE
null,null,psychophysics,474,486013,0.0-3.0-1.231,,key,null,16.666,720,394.5,,,,,,,,
530.1,arrowleft,psychophysics,475,486554,0.0-3.0-0.232,,key,arrowleft,16.666,720,394.5,233,9,1,20,15,25,35,FALSE
null,null,psychophysics,476,487556,0.0-3.0-1.232,,key,null,16.666,720,394.5,,,,,,,,
544,arrowleft,psychophysics,477,488102,0.0-3.0-0.233,,key,arrowleft,16.666,720,394.5,234,9,-1,27,15,25,35,TRUE
null,null,psychophysics,478,489104,0.0-3.0-1.233,,key,null,16.666,720,394.5,,,,,,,,
572,arrowleft,psychophysics,479,489691,0.0-3.0-0.234,,key,arrowleft,16.666,720,394.5,235,9,-1,25,15,25,35,TRUE
null,null,psychophysics,480,490694,0.0-3.0-1.234,,key,null,16.666,720,394.5,,,,,,,,
493,arrowleft,psychophysics,481,491193,0.0-3.0-0.235,,key,arrowleft,16.666,720,394.5,236,9,-1,30,35,25,35,TRUE
null,null,psychophysics,482,492195,0.0-3.0-1.235,,key,null,16.666,720,394.5,,,,,,,,
676.3,arrowleft,psychophysics,483,492876,0.0-3.0-0.236,,key,arrowleft,16.666,720,394.5,237,9,-1,27,35,25,35,TRUE
null,null,psychophysics,484,493878,0.0-3.0-1.236,,key,null,16.67150847,720,394.5,,,,,,,,
518.8,arrowleft,psychophysics,485,494403,0.0-3.0-0.237,,key,arrowleft,16.666,720,394.5,238,9,-1,26,15,25,35,TRUE
null,null,psychophysics,486,495404,0.0-3.0-1.237,,key,null,16.666,720,394.5,,,,,,,,
561.2,arrowright,psychophysics,487,495978,0.0-3.0-0.238,,key,arrowright,16.666,720,394.5,239,9,1,30,15,25,35,TRUE
null,null,psychophysics,488,496979,0.0-3.0-1.238,,key,null,16.666,720,394.5,,,,,,,,
570.2,arrowright,psychophysics,489,497553,0.0-3.0-0.239,,key,arrowright,16.666,720,394.5,240,9,1,27,35,25,35,TRUE
null,null,psychophysics,490,498556,0.0-3.0-1.239,,key,null,16.666,720,394.5,,,,,,,,
415.4,arrowleft,psychophysics,491,498975,0.0-3.0-0.240,,key,arrowleft,16.666,720,394.5,241,9,-1,30,35,25,35,TRUE
null,null,psychophysics,492,499978,0.0-3.0-1.240,,key,null,16.666,720,394.5,,,,,,,,
555.9,arrowright,psychophysics,493,500538,0.0-3.0-0.241,,key,arrowright,16.666,720,394.5,242,9,1,27,15,25,35,TRUE
null,null,psychophysics,494,501545,0.0-3.0-1.241,,key,null,16.666,720,394.5,,,,,,,,
419.3,arrowright,psychophysics,495,501978,0.0-3.0-0.242,,key,arrowright,16.666,720,394.5,243,9,1,20,15,25,35,TRUE
null,null,psychophysics,496,502979,0.0-3.0-1.242,,key,null,16.666,720,394.5,,,,,,,,
528.3,arrowright,psychophysics,497,503511,0.0-3.0-0.243,,key,arrowright,16.6729,720,394.5,244,9,1,24,15,25,35,TRUE
null,null,psychophysics,498,504513,0.0-3.0-1.243,,key,null,16.666,720,394.5,,,,,,,,
573.8,arrowright,psychophysics,499,505091,0.0-3.0-0.244,,key,arrowright,16.666,720,394.5,245,9,-1,24,35,25,35,FALSE
null,null,psychophysics,500,506094,0.0-3.0-1.244,,key,null,16.666,720,394.5,,,,,,,,
599.7,arrowleft,psychophysics,501,506700,0.0-3.0-0.245,,key,arrowleft,16.666,720,394.5,246,9,1,20,15,25,35,FALSE
null,null,psychophysics,502,507702,0.0-3.0-1.245,,key,null,16.666,720,394.5,,,,,,,,
526.1,arrowright,psychophysics,503,508236,0.0-3.0-0.246,,key,arrowright,16.666,720,394.5,247,9,-1,24,35,25,35,FALSE
null,null,psychophysics,504,509239,0.0-3.0-1.246,,key,null,16.666,720,394.5,,,,,,,,
444.5,arrowleft,psychophysics,505,509687,0.0-3.0-0.247,,key,arrowleft,16.666,720,394.5,248,9,1,20,35,25,35,FALSE
null,null,psychophysics,506,510690,0.0-3.0-1.247,,key,null,16.666,720,394.5,,,,,,,,
692.8,arrowleft,psychophysics,507,511386,0.0-3.0-0.248,,key,arrowleft,16.666,720,394.5,249,9,1,25,35,25,35,FALSE
null,null,psychophysics,508,512387,0.0-3.0-1.248,,key,null,16.666,720,394.5,,,,,,,,
412.3,arrowright,psychophysics,509,512802,0.0-3.0-0.249,,key,arrowright,16.666,720,394.5,250,9,-1,20,35,25,35,FALSE
null,null,psychophysics,510,513805,0.0-3.0-1.249,,key,null,16.67159322,720,394.5,,,,,,,,
669.2,arrowleft,psychophysics,511,514488,0.0-3.0-0.250,,key,arrowleft,16.666,720,394.5,251,9,-1,24,15,25,35,TRUE
null,null,psychophysics,512,515490,0.0-3.0-1.250,,key,null,16.666,720,394.5,,,,,,,,
485.9,arrowright,psychophysics,513,515979,0.0-3.0-0.251,,key,arrowright,16.666,720,394.5,252,10,1,27,15,25,35,TRUE
null,null,psychophysics,514,516981,0.0-3.0-1.251,,key,null,16.666,720,394.5,,,,,,,,
9040.4,arrowright,html-keyboard-response,515,526022,0.0-3.0-2.251-0.251,"<div style=""color: white; text-align: center; vertical-align: top; display: inline-block; width: 800px; margin: auto""><p>You have completed 90% of the trials. You are on block 10 of 10. <br>Good job! Take a break if you need to.</p><p>Press any key to continue the experiment.</p></div>",,,,,,,,,,,,,
661.9,arrowleft,psychophysics,516,527702,0.0-3.0-0.252,,key,arrowleft,16.7685,720,394.5,253,10,-1,25,15,25,35,TRUE
null,null,psychophysics,517,528704,0.0-3.0-1.252,,key,null,16.666,720,394.5,,,,,,,,
528.3,arrowright,psychophysics,518,529235,0.0-3.0-0.253,,key,arrowright,16.666,720,394.5,254,10,1,26,15,25,35,TRUE
null,null,psychophysics,519,530237,0.0-3.0-1.253,,key,null,16.666,720,394.5,,,,,,,,
546.4,arrowright,psychophysics,520,530786,0.0-3.0-0.254,,key,arrowright,16.666,720,394.5,255,10,1,26,15,25,35,TRUE
null,null,psychophysics,521,531788,0.0-3.0-1.254,,key,null,16.666,720,394.5,,,,,,,,
440.6,arrowleft,psychophysics,522,532231,0.0-3.0-0.255,,key,arrowleft,16.666,720,394.5,256,10,1,23,15,25,35,FALSE
null,null,psychophysics,523,533240,0.0-3.0-1.255,,key,null,16.666,720,394.5,,,,,,,,
550.7,arrowleft,psychophysics,524,533794,0.0-3.0-0.256,,key,arrowleft,16.666,720,394.5,257,10,-1,24,15,25,35,TRUE
null,null,psychophysics,525,534795,0.0-3.0-1.256,,key,null,16.666,720,394.5,,,,,,,,
480.3,arrowright,psychophysics,526,535280,0.0-3.0-0.257,,key,arrowright,16.666,720,394.5,258,10,1,24,15,25,35,TRUE
null,null,psychophysics,527,536281,0.0-3.0-1.257,,key,null,16.79108475,720,394.5,,,,,,,,
633.8,arrowleft,psychophysics,528,536918,0.0-3.0-0.258,,key,arrowleft,16.666,720,394.5,259,10,-1,30,35,25,35,TRUE
null,null,psychophysics,529,537920,0.0-3.0-1.258,,key,null,16.666,720,394.5,,,,,,,,
871.5,arrowleft,psychophysics,530,538801,0.0-3.0-0.259,,key,arrowleft,16.666,720,394.5,260,10,1,23,15,25,35,FALSE
null,null,psychophysics,531,539811,0.0-3.0-1.259,,key,null,16.666,720,394.5,,,,,,,,
566.9,arrowright,psychophysics,532,540380,0.0-3.0-0.260,,key,arrowright,16.666,720,394.5,261,10,-1,20,35,25,35,FALSE
null,null,psychophysics,533,541382,0.0-3.0-1.260,,key,null,16.666,720,394.5,,,,,,,,
508.8,arrowright,psychophysics,534,541894,0.0-3.0-0.261,,key,arrowright,16.666,720,394.5,262,10,1,30,15,25,35,TRUE
null,null,psychophysics,535,542895,0.0-3.0-1.261,,key,null,16.666,720,394.5,,,,,,,,
638.1,arrowleft,psychophysics,536,543536,0.0-3.0-0.262,,key,arrowleft,16.666,720,394.5,263,10,-1,27,15,25,35,TRUE
null,null,psychophysics,537,544538,0.0-3.0-1.262,,key,null,16.666,720,394.5,,,,,,,,
652.7,arrowleft,psychophysics,538,545194,0.0-3.0-0.263,,key,arrowleft,16.666,720,394.5,264,10,1,25,35,25,35,FALSE
null,null,psychophysics,539,546204,0.0-3.0-1.263,,key,null,16.67181356,720,394.5,,,,,,,,
469,arrowright,psychophysics,540,546679,0.0-3.0-0.264,,key,arrowright,16.666,720,394.5,265,10,1,27,15,25,35,TRUE
null,null,psychophysics,541,547681,0.0-3.0-1.264,,key,null,16.666,720,394.5,,,,,,,,
447.5,arrowleft,psychophysics,542,548131,0.0-3.0-0.265,,key,arrowleft,16.666,720,394.5,266,10,1,20,35,25,35,FALSE
null,null,psychophysics,543,549133,0.0-3.0-1.265,,key,null,16.666,720,394.5,,,,,,,,
578,arrowleft,psychophysics,544,549714,0.0-3.0-0.266,,key,arrowleft,16.666,720,394.5,267,10,1,23,15,25,35,FALSE
null,null,psychophysics,545,550716,0.0-3.0-1.266,,key,null,16.666,720,394.5,,,,,,,,
575.4,arrowright,psychophysics,546,551294,0.0-3.0-0.267,,key,arrowright,16.666,720,394.5,268,10,1,26,35,25,35,TRUE
null,null,psychophysics,547,552304,0.0-3.0-1.267,,key,null,16.666,720,394.5,,,,,,,,
530.5,arrowleft,psychophysics,548,552838,0.0-3.0-0.268,,key,arrowleft,16.666,720,394.5,269,10,-1,30,15,25,35,TRUE
null,null,psychophysics,549,553840,0.0-3.0-1.268,,key,null,16.666,720,394.5,,,,,,,,
608.6,arrowleft,psychophysics,550,554452,0.0-3.0-0.269,,key,arrowleft,16.666,720,394.5,270,10,1,23,35,25,35,FALSE
null,null,psychophysics,551,555454,0.0-3.0-1.269,,key,null,16.666,720,394.5,,,,,,,,
650.7,arrowleft,psychophysics,552,556111,0.0-3.0-0.270,,key,arrowleft,16.666,720,394.5,271,10,-1,23,15,25,35,TRUE
null,null,psychophysics,553,557113,0.0-3.0-1.270,,key,null,16.66967797,720,394.5,,,,,,,,
393.9,arrowright,psychophysics,554,557509,0.0-3.0-0.271,,key,arrowright,16.666,720,394.5,272,10,-1,26,15,25,35,FALSE
null,null,psychophysics,555,558521,0.0-3.0-1.271,,key,null,16.666,720,394.5,,,,,,,,
510.9,arrowleft,psychophysics,556,559038,0.0-3.0-0.272,,key,arrowleft,16.666,720,394.5,273,10,-1,25,35,25,35,TRUE
null,null,psychophysics,557,560040,0.0-3.0-1.272,,key,null,16.666,720,394.5,,,,,,,,
585.5,arrowright,psychophysics,558,560629,0.0-3.0-0.273,,key,arrowright,16.666,720,394.5,274,10,-1,20,35,25,35,FALSE
null,null,psychophysics,559,561630,0.0-3.0-1.273,,key,null,16.666,720,394.5,,,,,,,,
664.6,arrowleft,psychophysics,560,562297,0.0-3.0-0.274,,key,arrowleft,16.666,720,394.5,275,10,-1,23,15,25,35,TRUE
null,null,psychophysics,561,563298,0.0-3.0-1.274,,key,null,16.666,720,394.5,,,,,,,,
559.4,arrowleft,psychophysics,562,563859,0.0-3.0-0.275,,key,arrowleft,16.666,720,394.5,276,10,-1,25,35,25,35,TRUE
null,null,psychophysics,563,564865,0.0-3.0-1.275,,key,null,16.666,720,394.5,,,,,,,,
599.8,arrowright,psychophysics,564,565468,0.0-3.0-0.276,,key,arrowright,16.666,720,394.5,277,10,1,30,35,25,35,TRUE
null,null,psychophysics,565,566471,0.0-3.0-1.276,,key,null,16.66983051,720,394.5,,,,,,,,
536.7,arrowleft,psychophysics,566,567012,0.0-3.0-0.277,,key,arrowleft,16.666,720,394.5,278,10,-1,26,35,25,35,TRUE
null,null,psychophysics,567,568014,0.0-3.0-1.277,,key,null,16.666,720,394.5,,,,,,,,
696.2,arrowleft,psychophysics,568,568712,0.0-3.0-0.278,,key,arrowleft,16.666,720,394.5,279,10,-1,30,15,25,35,TRUE
null,null,psychophysics,569,569714,0.0-3.0-1.278,,key,null,16.666,720,394.5,,,,,,,,
1377.7,arrowright,psychophysics,570,571094,0.0-3.0-0.279,,key,arrowright,16.666,720,394.5,280,11,-1,23,15,25,35,FALSE
null,null,psychophysics,571,572104,0.0-3.0-1.279,,key,null,16.666,720,394.5,,,,,,,,