"rt","response","trial_type","trial_index","time_elapsed","internal_node_id","stimulus","response_type","key_press","avg_frame_time","center_x","center_y","trial","block","test_pos","test_inner_radius","test_outer_radius","ref_inner_radius","ref_outer_radius","test_bigger"
"8772.100000023842","{""p_id"":""1921"",""age"":""19"",""handedness"":""right"",""sex"":""female"",""other_sex"":""""}","survey-html-form","0","8775","0.0-0.0","","","","","","","","","","","","","",""
"2157.600000023842","arrowright","html-keyboard-response","1","10938","0.0-1.0","<p style=""color: white"">Welcome to the Size Judgment Experiment. <br>There will be 10 blocks in this experiment. <br>There will be 28 trials in each block. <br>You will be given a chance to take a break between blocks. <br>Press any key to start the experiment.</p>","","","","","","","","","","","","",""
"4572.200000047684","arrowright","psychophysics","2","15532","0.0-2.0","","key","arrowright","16.668520000000004","720","394.5","","","","","","","",""
"2095.899999976158","arrowleft","psychophysics","3","17638","0.0-3.0-0.0","","key","arrowleft","16.66599999999998","720","394.5","1","1","1","25","35","25","35","false"
"null","null","psychophysics","4","18642","0.0-3.0-1.0","","key","null","16.66600000000003","720","394.5","","","","","","","",""
"676.6000000238419","arrowleft","psychophysics","5","19324","0.0-3.0-0.1","","key","arrowleft","16.665999999999986","720","394.5","2","1","-1","30","15","25","35","true"
"null","null","psychophysics","6","20329","0.0-3.0-1.1","","key","null","16.66600000000003","720","394.5","","","","","","","",""
"614.0999999046326","arrowleft","psychophysics","7","20951","0.0-3.0-0.2","","key","arrowleft","16.665999999999997","720","394.5","3","1","1","20","35","25","35","false"
"null","null","psychophysics","8","21955","0.0-3.0-1.2","","key","null","16.66600000000003","720","394.5","","","","","","","",""
"813.3999999761581","arrowright","psychophysics","9","22774","0.0-3.0-0.3","","key","arrowright","16.666000000000015","720","394.5","4","1","-1","24","35","25","35","false"
"null","null","psychophysics","10","23778","0.0-3.0-1.3","","key","null","16.66599999999997","720","394.5","","","","","","","",""
"821.3000000715256","arrowleft","psychophysics","11","24604","0.0-3.0-0.4","","key","arrowleft","16.677591836734717","720","394.5","5","1","-1","30","35","25","35","true"
"null","null","psychophysics","12","25606","0.0-3.0-1.4","","key","null","16.66600000000003","720","394.5","","","","","","","",""
"715.1000000238419","arrowleft","psychophysics","13","26326","0.0-3.0-0.5","","key","arrowleft","16.66599999999995","720","394.5","6","1","-1","27","15","25","35","true"
"null","null","psychophysics","14","27332","0.0-3.0-1.5","","key","null","16.66600000000003","720","394.5","","","","","","","",""
"849.2000000476837","arrowright","psychophysics","15","28188","0.0-3.0-0.6","","key","arrowright","16.666000000000007","720","394.5","7","1","1","26","15","25","35","true"
"null","null","psychophysics","16","29191","0.0-3.0-1.6","","key","null","16.66599999999997","720","394.5","","","","","","","",""
"617.7999999523163","arrowleft","psychophysics","17","29814","0.0-3.0-0.7","","key","arrowleft","16.665999999999965","720","394.5","8","1","1","25","15","25","35","false"
"null","null","psychophysics","18","30818","0.0-3.0-1.7","","key","null","16.665999999999986","720","394.5","","","","","","","",""
"708.2000000476837","arrowleft","psychophysics","19","31530","0.0-3.0-0.8","","key","arrowleft","16.66600000000001","720","394.5","9","1","-1","24","15","25","35","true"
"null","null","psychophysics","20","32534","0.0-3.0-1.8","","key","null","16.665999999999986","720","394.5","","","","","","","",""
"616.4000000953674","arrowright","psychophysics","21","33157","0.0-3.0-0.9","","key","arrowright","16.665999999999865","720","394.5","10","1","-1","24","35","25","35","false"
"null","null","psychophysics","22","34161","0.0-3.0-1.9","","key","null","16.675627118644083","720","394.5","","","","","","","",""
"632.2000000476837","arrowleft","psychophysics","23","34801","0.0-3.0-0.10","","key","arrowleft","16.66599999999993","720","394.5","11","1","-1","24","35","25","35","true"
"null","null","psychophysics","24","35803","0.0-3.0-1.10","","key","null","16.66600000000003","720","394.5","","","","","","","",""
"780.5","arrowleft","psychophysics","25","36588","0.0-3.0-0.11","","key","arrowleft","16.66599999999997","720","394.5","12","1","-1","23","15","25","35","true"
"null","null","psychophysics","26","37590","0.0-3.0-1.11","","key","null","16.66600000000003","720","394.5","","","","","","","",""
"678.5","arrowleft","psychophysics","27","38273","0.0-3.0-0.12","","key","arrowleft","16.665999999999986","720","394.5","13","1","-1","25","15","25","35","true"
"null","null","psychophysics","28","39278","0.0-3.0-1.12","","key","null","16.66600000000003","720","394.5","","","","","","","",""
"971.3999999761581","arrowright","psychophysics","29","40258","0.0-3.0-0.13","","key","arrowright","16.666000000000075","720","394.5","14","1","-1","30","35","25","35","false"
"null","null","psychophysics","30","41261","0.0-3.0-1.13","","key","null","16.66600000000003","720","394.5","","","","","","","",""
"950.7000000476837","arrowright","psychophysics","31","42217","0.0-3.0-0.14","","key","arrowright","16.665999999999993","720","394.5","15","1","-1","20","15","25","35","false"
"null","null","psychophysics","32","43219","0.0-3.0-1.14","","key","null","16.66600000000003","720","394.5","","","","","","","",""
"1112.3000000715256","arrowright","psychophysics","33","44334","0.0-3.0-0.15","","key","arrowright","16.676499999999965","720","394.5","16","1","-1","23","15","25","35","false"
"null","null","psychophysics","34","45339","0.0-3.0-1.15","","key","null","16.66600000000003","720","394.5","","","","","","","",""
"1037.4000000953674","arrowright","psychophysics","35","46380","0.0-3.0-0.16","","key","arrowright","16.666000000000064","720","394.5","17","1","1","23","15","25","35","true"
"null","null","psychophysics","36","47383","0.0-3.0-1.16","","key","null","16.66600000000003","720","394.5","","","","","","","",""
"834","arrowleft","psychophysics","37","48223","0.0-3.0-0.17","","key","arrowleft","16.666000000000057","720","394.5","18","1","-1","30","35","25","35","true"
"null","null","psychophysics","38","49227","0.0-3.0-1.17","","key","null","16.66600000000003","720","394.5","","","","","","","",""
"778.7999999523163","arrowright","psychophysics","39","50016","0.0-3.0-0.18","","key","arrowright","16.66600000000013","720","394.5","19","1","-1","24","15","25","35","false"
"null","null","psychophysics","40","51020","0.0-3.0-1.18","","key","null","16.665999999999986","720","394.5","","","","","","","",""
"707.3000000715256","arrowright","psychophysics","41","51733","0.0-3.0-0.19","","key","arrowright","16.6660000000001","720","394.5","20","1","1","27","35","25","35","true"
"null","null","psychophysics","42","52735","0.0-3.0-1.19","","key","null","16.665999999999986","720","394.5","","","","","","","",""
"718.3999999761581","arrowright","psychophysics","43","53457","0.0-3.0-0.20","","key","arrowright","16.665999999999865","720","394.5","21","1","-1","20","35","25","35","false"
"null","null","psychophysics","44","54461","0.0-3.0-1.20","","key","null","16.673508474576288","720","394.5","","","","","","","",""
"671.3000000715256","arrowleft","psychophysics","45","55138","0.0-3.0-0.21","","key","arrowleft","16.665999999999986","720","394.5","22","1","-1","25","15","25","35","true"
"null","null","psychophysics","46","56141","0.0-3.0-1.21","","key","null","16.66600000000003","720","394.5","","","","","","","",""
"691.5","arrowright","psychophysics","47","56840","0.0-3.0-0.22","","key","arrowright","16.665999999999922","720","394.5","23","1","1","25","15","25","35","true"
"null","null","psychophysics","48","57844","0.0-3.0-1.22","","key","null","16.66600000000003","720","394.5","","","","","","","",""
"1087.2999999523163","arrowleft","psychophysics","49","58936","0.0-3.0-0.23","","key","arrowleft","16.666000000000015","720","394.5","24","1","-1","27","15","25","35","true"
"null","null","psychophysics","50","59938","0.0-3.0-1.23","","key","null","16.665999999999904","720","394.5","","","","","","","",""
"662.3999999761581","arrowright","psychophysics","51","60604","0.0-3.0-0.24","","key","arrowright","16.66600000000005","720","394.5","25","1","-1","24","35","25","35","false"
"null","null","psychophysics","52","61606","0.0-3.0-1.24","","key","null","16.66600000000003","720","394.5","","","","","","","",""
"851.8000000715256","arrowright","psychophysics","53","62465","0.0-3.0-0.25","","key","arrowright","16.666000000000057","720","394.5","26","1","1","26","35","25","35","true"
"null","null","psychophysics","54","63467","0.0-3.0-1.25","","key","null","16.665999999999986","720","394.5","","","","","","","",""
"679.8999999761581","arrowleft","psychophysics","55","64151","0.0-3.0-0.26","","key","arrowleft","16.680199999999967","720","394.5","27","1","-1","25","35","25","35","true"
"null","null","psychophysics","56","65152","0.0-3.0-1.26","","key","null","16.666000000000153","720","394.5","","","","","","","",""
"687.5","arrowleft","psychophysics","57","65845","0.0-3.0-0.27","","key","arrowleft","16.665999999999986","720","394.5","28","2","1","24","35","25","35","false"
"null","null","psychophysics","58","66848","0.0-3.0-1.27","","key","null","16.666000000000153","720","394.5","","","","","","","",""
"838.2000000476837","arrowright","html-keyboard-response","59","67689","0.0-3.0-2.27-0.27","<div style=""color: white; text-align: center; vertical-align: top; display: inline-block; width: 800px; margin: auto""><p>You have completed 10% of the trials. You are on block 2 of 10. <br>Good job! Take a break if you need to.</p><p>Press any key to continue the experiment.</p></div>","","","","","","","","","","","","",""
"739.1999999284744","arrowleft","psychophysics","60","69445","0.0-3.0-0.28","","key","arrowleft","16.666000000000086","720","394.5","29","2","1","20","15","25","35","false"
"null","null","psychophysics","61","70448","0.0-3.0-1.28","","key","null","16.666000000000153","720","394.5","","","","","","","",""
"654","arrowleft","psychophysics","62","71109","0.0-3.0-0.29","","key","arrowleft","16.66600000000005","720","394.5","30","2","1","20","15","25","35","false"
"null","null","psychophysics","63","72114","0.0-3.0-1.29","","key","null","16.665999999999904","720","394.5","","","","","","","",""
"679.5999999046326","arrowright","psychophysics","64","72805","0.0-3.0-0.30","","key","arrowright","16.666000000000277","720","394.5","31","2","1","27","15","25","35","true"
"null","null","psychophysics","65","73807","0.0-3.0-1.30","","key","null","16.665999999999904","720","394.5","","","","","","","",""
"701","arrowright","psychophysics","66","74515","0.0-3.0-0.31","","key","arrowright","16.679853658536846","720","394.5","32","2","1","26","35","25","35","true"
"null","null","psychophysics","67","75518","0.0-3.0-1.31","","key","null","16.665999999999865","720","394.5","","","","","","","",""
"636.2000000476837","arrowleft","psychophysics","68","76158","0.0-3.0-0.32","","key","arrowleft","16.665999999999798","720","394.5","33","2","1","23","35","25","35","false"
"null","null","psychophysics","69","77162","0.0-3.0-1.32","","key","null","16.666000000000153","720","394.5","","","","","","","",""
"679.5","arrowleft","psychophysics","70","77846","0.0-3.0-0.33","","key","arrowleft","16.665999999999986","720","394.5","34","2","-1","30","35","25","35","true"
"null","null","psychophysics","71","78848","0.0-3.0-1.33","","key","null","16.665999999999904","720","394.5","","","","","","","",""
"506","arrowleft","psychophysics","72","79361","0.0-3.0-0.34","","key","arrowleft","16.665999999999865","720","394.5","35","2","1","20","15","25","35","false"
"null","null","psychophysics","73","80367","0.0-3.0-1.34","","key","null","16.666000000000107","720","394.5","","","","","","","",""
"583.3000000715256","arrowleft","psychophysics","74","80954","0.0-3.0-0.35","","key","arrowleft","16.666000000000007","720","394.5","36","2","-1","27","15","25","35","true"
"null","null","psychophysics","75","81957","0.0-3.0-1.35","","key","null","16.665999999999904","720","394.5","","","","","","","",""
"693.5","arrowleft","psychophysics","76","82655","0.0-3.0-0.36","","key","arrowleft","16.666000000000277","720","394.5","37","2","1","23","35","25","35","false"
"null","null","psychophysics","77","83657","0.0-3.0-1.36","","key","null","16.665999999999904","720","394.5","","","","","","","",""
"677.6000000238419","arrowleft","psychophysics","78","84339","0.0-3.0-0.37","","key","arrowleft","16.680200000000333","720","394.5","38","2","1","20","35","25","35","false"
"null","null","psychophysics","79","85342","0.0-3.0-1.37","","key","null","16.665999999999904","720","394.5","","","","","","","",""
"691.5","arrowright","psychophysics","80","86041","0.0-3.0-0.38","","key","arrowright","16.665999999999922","720","394.5","39","2","-1","24","15","25","35","false"
"null","null","psychophysics","81","87044","0.0-3.0-1.38","","key","null","16.665999999999904","720","394.5","","","","","","","",""
"723.5","arrowright","psychophysics","82","87772","0.0-3.0-0.39","","key","arrowright","16.666000000000146","720","394.5","40","2","-1","24","35","25","35","false"
"null","null","psychophysics","83","88775","0.0-3.0-1.39","","key","null","16.665999999999904","720","394.5","","","","","","","",""
"896.3000000715256","arrowleft","psychophysics","84","89676","0.0-3.0-0.40","","key","arrowleft","16.66599999999991","720","394.5","41","2","-1","25","15","25","35","true"
"null","null","psychophysics","85","90680","0.0-3.0-1.40","","key","null","16.665999999999904","720","394.5","","","","","","","",""
"738.1000000238419","arrowright","psychophysics","86","91426","0.0-3.0-0.41","","key","arrowright","16.665999999999755","720","394.5","42","2","1","27","15","25","35","true"
"null","null","psychophysics","87","92428","0.0-3.0-1.41","","key","null","16.666000000000153","720","394.5","","","","","","","",""
"717.3999999761581","arrowright","psychophysics","88","93158","0.0-3.0-0.42","","key","arrowright","16.666000000000146","720","394.5","43","2","-1","20","35","25","35","false"
"null","null","psychophysics","89","94162","0.0-3.0-1.42","","key","null","16.67774576271176","720","394.5","","","","","","","",""
"630.5","arrowright","psychophysics","90","94797","0.0-3.0-0.43","","key","arrowright","16.666000000000192","720","394.5","44","2","1","30","35","25","35","true"
"null","null","psychophysics","91","95800","0.0-3.0-1.43","","key","null","16.665999999999904","720","394.5","","","","","","","",""
"574.2999999523163","arrowleft","psychophysics","92","96380","0.0-3.0-0.44","","key","arrowleft","16.666000000000007","720","394.5","45","2","-1","30","15","25","35","true"
"null","null","psychophysics","93","97383","0.0-3.0-1.44","","key","null","16.665999999999904","720","394.5","","","","","","","",""
"559.4000000953674","arrowleft","psychophysics","94","97949","0.0-3.0-0.45","","key","arrowleft","16.666000000000086","720","394.5","46","2","-1","30","15","25","35","true"
"null","null","psychophysics","95","98951","0.0-3.0-1.45","","key","null","16.666000000000107","720","394.5","","","","","","","",""
"656.5","arrowleft","psychophysics","96","99611","0.0-3.0-0.46","","key","arrowleft","16.66600000000012","720","394.5","47","2","-1","24","15","25","35","true"
"null","null","psychophysics","97","100615","0.0-3.0-1.46","","key","null","16.665999999999904","720","394.5","","","","","","","",""
"611.8999999761581","arrowright","psychophysics","98","101239","0.0-3.0-0.47","","key","arrowright","16.665999999999798","720","394.5","48","2","1","30","15","25","35","true"
"null","null","psychophysics","99","102242","0.0-3.0-1.47","","key","null","16.666000000000153","720","394.5","","","","","","","",""
"640.7000000476837","arrowleft","psychophysics","100","102887","0.0-3.0-0.48","","key","arrowleft","16.665999999999737","720","394.5","49","2","-1","24","15","25","35","true"
"null","null","psychophysics","101","103889","0.0-3.0-1.48","","key","null","16.665999999999904","720","394.5","","","","","","","",""
"823","arrowright","psychophysics","102","104716","0.0-3.0-0.49","","key","arrowright","16.680437500000153","720","394.5","50","2","-1","26","35","25","35","false"
"null","null","psychophysics","103","105719","0.0-3.0-1.49","","key","null","16.665999999999865","720","394.5","","","","","","","",""
"699.8999999761581","arrowright","psychophysics","104","106422","0.0-3.0-0.50","","key","arrowright","16.665999999999922","720","394.5","51","2","1","25","15","25","35","true"
"null","null","psychophysics","105","107428","0.0-3.0-1.50","","key","null","16.665999999999904","720","394.5","","","","","","","",""
"626.5","arrowleft","psychophysics","106","108059","0.0-3.0-0.51","","key","arrowleft","16.665999999999798","720","394.5","52","2","-1","26","15","25","35","true"
"null","null","psychophysics","107","109064","0.0-3.0-1.51","","key","null","16.666000000000153","720","394.5","","","","","","","",""
"732.2000000476837","arrowright","psychophysics","108","109802","0.0-3.0-0.52","","key","arrowright","16.666000000000086","720","394.5","53","2","-1","24","35","25","35","false"
"null","null","psychophysics","109","110804","0.0-3.0-1.52","","key","null","16.665999999999904","720","394.5","","","","","","","",""
"876.5","arrowright","psychophysics","110","111684","0.0-3.0-0.53","","key","arrowright","16.665999999999958","720","394.5","54","2","1","27","15","25","35","true"
"null","null","psychophysics","111","112687","0.0-3.0-1.53","","key","null","16.665999999999904","720","394.5","","","","","","","",""
"895","arrowleft","psychophysics","112","113588","0.0-3.0-0.54","","key","arrowleft","16.66599999999991","720","394.5","55","2","1","23","35","25","35","false"
"null","null","psychophysics","113","114590","0.0-3.0-1.54","","key","null","16.675627118643963","720","394.5","","","","","","","",""
"681.2999999523163","arrowleft","psychophysics","114","115275","0.0-3.0-0.55","","key","arrowleft","16.665999999999986","720","394.5","56","3","-1","26","15","25","35","true"
"null","null","psychophysics","115","116278","0.0-3.0-1.55","","key","null","16.666000000000153","720","394.5","","","","","","","",""
"63410.200000047684","arrowright","html-keyboard-response","116","179689","0.0-3.0-2.55-0.55","<div style=""color: white; text-align: center; vertical-align: top; display: inline-block; width: 800px; margin: auto""><p>You have completed 20% of the trials. You are on block 3 of 10. <br>Good job! Take a break if you need to.</p><p>Press any key to continue the experiment.</p></div>","","","","","","","","","","","","",""
"2086","arrowright","psychophysics","117","182788","0.0-3.0-0.56","","key","arrowright","16.666","720","394.5","57","3","1","24","15","25","35","true"
"null","null","psychophysics","118","183791","0.0-3.0-1.56","","key","null","16.665999999999904","720","394.5","","","","","","","",""
"676.8999999761581","arrowleft","psychophysics","119","184471","0.0-3.0-0.57","","key","arrowleft","16.680200000000333","720","394.5","58","3","-1","30","35","25","35","true"
"null","null","psychophysics","120","185472","0.0-3.0-1.57","","key","null","16.665999999999904","720","394.5","","","","","","","",""
"634.8999999761581","arrowleft","psychophysics","121","186111","0.0-3.0-0.58","","key","arrowleft","16.665999999999798","720","394.5","59","3","-1","26","15","25","35","true"
"null","null","psychophysics","122","187117","0.0-3.0-1.58","","key","null","16.66600000000035","720","394.5","","","","","","","",""
"618.5","arrowright","psychophysics","123","187739","0.0-3.0-0.59","","key","arrowright","16.665999999999865","720","394.5","60","3","1","30","15","25","35","true"
"null","null","psychophysics","124","188743","0.0-3.0-1.59","","key","null","16.665999999999904","720","394.5","","","","","","","",""
"676.1000000238419","arrowright","psychophysics","125","189422","0.0-3.0-0.60","","key","arrowright","16.66600000000035","720","394.5","61","3","-1","20","35","25","35","false"
"null","null","psychophysics","126","190426","0.0-3.0-1.60","","key","null","16.665999999999904","720","394.5","","","","","","","",""
"648.1999999284744","arrowleft","psychophysics","127","191078","0.0-3.0-0.61","","key","arrowleft","16.665999999999737","720","394.5","62","3","-1","25","35","25","35","true"
"null","null","psychophysics","128","192081","0.0-3.0-1.61","","key","null","16.6660000000004","720","394.5","","","","","","","",""
"669","arrowleft","psychophysics","129","192755","0.0-3.0-0.62","","key","arrowleft","16.66599999999962","720","394.5","63","3","-1","27","15","25","35","true"
"null","null","psychophysics","130","193758","0.0-3.0-1.62","","key","null","16.6660000000004","720","394.5","","","","","","","",""
"642.8000000715256","arrowright","psychophysics","131","194405","0.0-3.0-0.63","","key","arrowright","16.665999999999737","720","394.5","64","3","1","26","15","25","35","true"
"null","null","psychophysics","132","195409","0.0-3.0-1.63","","key","null","16.665999999999904","720","394.5","","","","","","","",""
"621.1000000238419","arrowleft","psychophysics","133","196032","0.0-3.0-0.64","","key","arrowleft","16.666000000000672","720","394.5","65","3","1","27","35","25","35","false"
"null","null","psychophysics","134","197034","0.0-3.0-1.64","","key","null","16.665999999999904","720","394.5","","","","","","","",""
"1600.2000000476837","arrowright","psychophysics","135","198639","0.0-3.0-0.65","","key","arrowright","16.665999999999865","720","394.5","66","3","1","27","35","25","35","true"
"null","null","psychophysics","136","199646","0.0-3.0-1.65","","key","null","16.6660000000004","720","394.5","","","","","","","",""
"602.8999999761581","arrowleft","psychophysics","137","200255","0.0-3.0-0.66","","key","arrowleft","16.665999999999865","720","394.5","67","3","-1","25","15","25","35","true"
"null","null","psychophysics","138","201258","0.0-3.0-1.66","","key","null","16.665999999999904","720","394.5","","","","","","","",""
"663.8999999761581","arrowleft","psychophysics","139","201926","0.0-3.0-0.67","","key","arrowleft","16.666000000000423","720","394.5","68","3","-1","27","15","25","35","true"
"null","null","psychophysics","140","202931","0.0-3.0-1.67","","key","null","16.665999999999904","720","394.5","","","","","","","",""
"799.4000000953674","arrowleft","psychophysics","141","203737","0.0-3.0-0.68","","key","arrowleft","16.665999999999865","720","394.5","69","3","1","20","35","25","35","false"
"null","null","psychophysics","142","204741","0.0-3.0-1.68","","key","null","16.675627118644453","720","394.5","","","","","","","",""
"870.5999999046326","arrowright","psychophysics","143","205622","0.0-3.0-0.69","","key","arrowright","16.665999999999677","720","394.5","70","3","-1","23","35","25","35","false"
"null","null","psychophysics","144","206626","0.0-3.0-1.69","","key","null","16.6660000000004","720","394.5","","","","","","","",""
"741.5","arrowright","psychophysics","145","207372","0.0-3.0-0.70","","key","arrowright","16.665999999999425","720","394.5","71","3","-1","20","35","25","35","false"
"null","null","psychophysics","146","208376","0.0-3.0-1.70","","key","null","16.665999999999904","720","394.5","","","","","","","",""
"719.1000000238419","arrowright","psychophysics","147","209099","0.0-3.0-0.71","","key","arrowright","16.66600000000021","720","394.5","72","3","1","30","35","25","35","true"
"null","null","psychophysics","148","210101","0.0-3.0-1.71","","key","null","16.665999999999865","720","394.5","","","","","","","",""
"706","arrowright","psychophysics","149","210814","0.0-3.0-0.72","","key","arrowright","16.666000000000277","720","394.5","73","3","-1","24","15","25","35","false"
"null","null","psychophysics","150","211817","0.0-3.0-1.72","","key","null","16.665999999999865","720","394.5","","","","","","","",""
"609.1000000238419","arrowright","psychophysics","151","212429","0.0-3.0-0.73","","key","arrowright","16.665999999999933","720","394.5","74","3","1","30","15","25","35","true"
"null","null","psychophysics","152","213432","0.0-3.0-1.73","","key","null","16.66600000000035","720","394.5","","","","","","","",""
"781.1000000238419","arrowright","psychophysics","153","214217","0.0-3.0-0.74","","key","arrowright","16.66599999999997","720","394.5","75","3","-1","20","35","25","35","false"
"null","null","psychophysics","154","215219","0.0-3.0-1.74","","key","null","16.675627118643963","720","394.5","","","","","","","",""
"638","arrowleft","psychophysics","155","215861","0.0-3.0-0.75","","key","arrowleft","16.665999999999798","720","394.5","76","3","-1","30","15","25","35","true"
"null","null","psychophysics","156","216864","0.0-3.0-1.75","","key","null","16.6660000000004","720","394.5","","","","","","","",""
"777.6999999284744","arrowright","psychophysics","157","217651","0.0-3.0-0.76","","key","arrowright","16.665999999999915","720","394.5","77","3","-1","20","15","25","35","false"
"null","null","psychophysics","158","218653","0.0-3.0-1.76","","key","null","16.665999999999904","720","394.5","","","","","","","",""
"719.1000000238419","arrowleft","psychophysics","159","219377","0.0-3.0-0.77","","key","arrowleft","16.66600000000021","720","394.5","78","3","-1","30","35","25","35","true"
"null","null","psychophysics","160","220381","0.0-3.0-1.77","","key","null","16.665999999999904","720","394.5","","","","","","","",""
"1001.3999999761581","arrowright","psychophysics","161","221389","0.0-3.0-0.78","","key","arrowright","16.66600000000035","720","394.5","79","3","-1","24","35","25","35","false"
"null","null","psychophysics","162","222393","0.0-3.0-1.78","","key","null","16.665999999999904","720","394.5","","","","","","","",""
"875","arrowleft","psychophysics","163","223279","0.0-3.0-0.79","","key","arrowleft","16.665999999999677","720","394.5","80","3","1","23","15","25","35","false"
"null","null","psychophysics","164","224283","0.0-3.0-1.79","","key","null","16.665999999999865","720","394.5","","","","","","","",""
"769.3999999761581","arrowleft","psychophysics","165","225056","0.0-3.0-0.80","","key","arrowleft","16.68140000000001","720","394.5","81","3","-1","24","15","25","35","true"
"null","null","psychophysics","166","226060","0.0-3.0-1.80","","key","null","16.665999999999904","720","394.5","","","","","","","",""
"625.8000000715256","arrowleft","psychophysics","167","226689","0.0-3.0-0.81","","key","arrowleft","16.666000000000587","720","394.5","82","3","-1","25","15","25","35","true"
"null","null","psychophysics","168","227694","0.0-3.0-1.81","","key","null","16.665999999999904","720","394.5","","","","","","","",""
"612.0999999046326","arrowright","psychophysics","169","228311","0.0-3.0-0.82","","key","arrowright","16.665999999999865","720","394.5","83","3","1","30","15","25","35","true"
"null","null","psychophysics","170","229316","0.0-3.0-1.82","","key","null","16.665999999999865","720","394.5","","","","","","","",""
"737.3000000715256","arrowleft","psychophysics","171","230057","0.0-3.0-0.83","","key","arrowleft","16.66599999999947","720","394.5","84","4","-1","27","15","25","35","true"
"null","null","psychophysics","172","231062","0.0-3.0-1.83","","key","null","16.6660000000004","720","394.5","","","","","","","",""
"718.1999999284744","arrowright","html-keyboard-response","173","231783","0.0-3.0-2.83-0.83","<div style=""color: white; text-align: center; vertical-align: top; display: inline-block; width: 800px; margin: auto""><p>You have completed 30% of the trials. You are on block 4 of 10. <br>Good job! Take a break if you need to.</p><p>Press any key to continue the experiment.</p></div>","","","","","","","","","","","","",""
"3454.5","arrowright","psychophysics","174","236250","0.0-3.0-0.84","","key","arrowright","16.668730769230724","720","394.5","85","4","1","25","15","25","35","true"
"null","null","psychophysics","175","237255","0.0-3.0-1.84","","key","null","16.665999999999904","720","394.5","","","","","","","",""
"862","arrowleft","psychophysics","176","238120","0.0-3.0-0.85","","key","arrowleft","16.66600000000029","720","394.5","86","4","-1","26","35","25","35","true"
"null","null","psychophysics","177","239122","0.0-3.0-1.85","","key","null","16.665999999999904","720","394.5","","","","","","","",""
"680.8000000715256","arrowright","psychophysics","178","239806","0.0-3.0-0.86","","key","arrowright","16.66600000000035","720","394.5","87","4","1","27","35","25","35","true"
"null","null","psychophysics","179","240809","0.0-3.0-1.86","","key","null","16.665999999999904","720","394.5","","","","","","","",""
"726.1000000238419","arrowright","psychophysics","180","241538","0.0-3.0-0.87","","key","arrowright","16.666000000000146","720","394.5","88","4","1","26","15","25","35","true"
"null","null","psychophysics","181","242540","0.0-3.0-1.87","","key","null","16.665999999999904","720","394.5","","","","","","","",""
"730.8999999761581","arrowright","psychophysics","182","243278","0.0-3.0-0.88","","key","arrowright","16.666000000000146","720","394.5","89","4","1","30","35","25","35","true"
"null","null","psychophysics","183","244281","0.0-3.0-1.88","","key","null","16.665999999999904","720","394.5","","","","","","","",""
"676.8999999761581","arrowleft","psychophysics","184","244965","0.0-3.0-0.89","","key","arrowleft","16.680200000000333","720","394.5","90","4","1","20","15","25","35","false"
"null","null","psychophysics","185","245967","0.0-3.0-1.89","","key","null","16.665999999999865","720","394.5","","","","","","","",""
"749.5999999046326","arrowright","psychophysics","186","246719","0.0-3.0-0.90","","key","arrowright","16.666000000000086","720","394.5","91","4","-1","23","15","25","35","false"
"null","null","psychophysics","187","247721","0.0-3.0-1.90","","key","null","16.6660000000004","720","394.5","","","","","","","",""
"2187.9000000953674","arrowleft","psychophysics","188","249912","0.0-3.0-0.91","","key","arrowleft","16.6659999999999","720","394.5","92","4","1","25","35","25","35","false"
"null","null","psychophysics","189","250919","0.0-3.0-1.91","","key","null","16.66600000000035","720","394.5","","","","","","","",""
"697.5","arrowright","psychophysics","190","251619","0.0-3.0-0.92","","key","arrowright","16.665999999999567","720","394.5","93","4","1","30","35","25","35","true"
"null","null","psychophysics","191","252620","0.0-3.0-1.92","","key","null","16.6660000000004","720","394.5","","","","","","","",""
"767.1999999284744","arrowright","psychophysics","192","253390","0.0-3.0-0.93","","key","arrowright","16.666000000000025","720","394.5","94","4","1","26","35","25","35","true"
"null","null","psychophysics","193","254394","0.0-3.0-1.93","","key","null","16.665999999999904","720","394.5","","","","","","","",""
"1730.0999999046326","arrowright","psychophysics","194","256131","0.0-3.0-0.94","","key","arrowright","16.671514563106772","720","394.5","95","4","-1","20","15","25","35","false"
"null","null","psychophysics","195","257138","0.0-3.0-1.94","","key","null","16.665999999999865","720","394.5","","","","","","","",""
"841.1000000238419","arrowleft","psychophysics","196","257983","0.0-3.0-0.95","","key","arrowleft","16.66600000000035","720","394.5","96","4","1","20","15","25","35","false"
"null","null","psychophysics","197","258985","0.0-3.0-1.95","","key","null","16.665999999999904","720","394.5","","","","","","","",""
"759.5","arrowright","psychophysics","198","259747","0.0-3.0-0.96","","key","arrowright","16.666000000000086","720","394.5","97","4","-1","23","35","25","35","false"
"null","null","psychophysics","199","260749","0.0-3.0-1.96","","key","null","16.66600000000035","720","394.5","","","","","","","",""
"702.3000000715256","arrowleft","psychophysics","200","261455","0.0-3.0-0.97","","key","arrowleft","16.666000000000988","720","394.5","98","4","-1","23","15","25","35","true"
"null","null","psychophysics","201","262458","0.0-3.0-1.97","","key","null","16.665999999999904","720","394.5","","","","","","","",""
"743.6000000238419","arrowleft","psychophysics","202","263210","0.0-3.0-0.98","","key","arrowleft","16.666000000000086","720","394.5","99","4","1","23","15","25","35","false"
"null","null","psychophysics","203","264214","0.0-3.0-1.98","","key","null","16.665999999999904","720","394.5","","","","","","","",""
"634.8999999761581","arrowright","psychophysics","204","264856","0.0-3.0-0.99","","key","arrowright","16.68423684210498","720","394.5","100","4","1","26","35","25","35","true"
"null","null","psychophysics","205","265860","0.0-3.0-1.99","","key","null","16.665999999999904","720","394.5","","","","","","","",""
"681.5","arrowright","psychophysics","206","266546","0.0-3.0-0.100","","key","arrowright","16.66600000000035","720","394.5","101","4","-1","20","35","25","35","false"
"null","null","psychophysics","207","267548","0.0-3.0-1.100","","key","null","16.665999999999904","720","394.5","","","","","","","",""
"496.5","arrowleft","psychophysics","208","268055","0.0-3.0-0.101","","key","arrowleft","16.66600000000132","720","394.5","102","4","1","20","15","25","35","false"
"null","null","psychophysics","209","269063","0.0-3.0-1.101","","key","null","16.665999999999904","720","394.5","","","","","","","",""
"833.3999999761581","arrowright","psychophysics","210","269903","0.0-3.0-0.102","","key","arrowright","16.665999999999766","720","394.5","103","4","-1","25","35","25","35","false"
"null","null","psychophysics","211","270905","0.0-3.0-1.102","","key","null","16.666000000000892","720","394.5","","","","","","","",""
"780.8000000715256","arrowright","psychophysics","212","271689","0.0-3.0-0.103","","key","arrowright","16.66599999999997","720","394.5","104","4","1","23","15","25","35","true"
"null","null","psychophysics","213","272693","0.0-3.0-1.103","","key","null","16.665999999999904","720","394.5","","","","","","","",""
"505.5","arrowleft","psychophysics","214","273203","0.0-3.0-0.104","","key","arrowleft","16.66600000000132","720","394.5","105","4","1","20","35","25","35","false"
"null","null","psychophysics","215","274205","0.0-3.0-1.104","","key","null","16.665999999999904","720","394.5","","","","","","","",""
"593","arrowleft","psychophysics","216","274806","0.0-3.0-0.105","","key","arrowleft","16.678657142856224","720","394.5","106","4","-1","30","15","25","35","true"
"null","null","psychophysics","217","275809","0.0-3.0-1.105","","key","null","16.665999999999904","720","394.5","","","","","","","",""
"601.1000000238419","arrowright","psychophysics","218","276414","0.0-3.0-0.106","","key","arrowright","16.665999999999933","720","394.5","107","4","1","27","15","25","35","true"
"null","null","psychophysics","219","277417","0.0-3.0-1.106","","key","null","16.66600000000035","720","394.5","","","","","","","",""
"787.2999999523163","arrowright","psychophysics","220","278208","0.0-3.0-0.107","","key","arrowright","16.66599999999997","720","394.5","108","4","1","25","15","25","35","true"
"null","null","psychophysics","221","279210","0.0-3.0-1.107","","key","null","16.665999999999904","720","394.5","","","","","","","",""
"557.3000000715256","arrowleft","psychophysics","222","279771","0.0-3.0-0.108","","key","arrowleft","16.66599999999832","720","394.5","109","4","1","20","35","25","35","false"
"null","null","psychophysics","223","280774","0.0-3.0-1.108","","key","null","16.665999999999904","720","394.5","","","","","","","",""
"687.6000000238419","arrowleft","psychophysics","224","281472","0.0-3.0-0.109","","key","arrowleft","16.665999999999567","720","394.5","110","4","-1","25","35","25","35","true"
"null","null","psychophysics","225","282474","0.0-3.0-1.109","","key","null","16.666000000000892","720","394.5","","","","","","","",""
"636.5","arrowright","psychophysics","226","283114","0.0-3.0-0.110","","key","arrowright","16.665999999999798","720","394.5","111","4","1","23","35","25","35","true"
"null","null","psychophysics","227","284116","0.0-3.0-1.110","","key","null","16.66599999999938","720","394.5","","","","","","","",""
"603.2000000476837","arrowleft","psychophysics","228","284723","0.0-3.0-0.111","","key","arrowleft","16.682228571429317","720","394.5","112","5","1","24","35","25","35","false"
"null","null","psychophysics","229","285727","0.0-3.0-1.111","","key","null","16.665999999999904","720","394.5","","","","","","","",""
"2734.8000000715256","arrowright","html-keyboard-response","230","288464","0.0-3.0-2.111-0.111","<div style=""color: white; text-align: center; vertical-align: top; display: inline-block; width: 800px; margin: auto""><p>You have completed 40% of the trials. You are on block 5 of 10. <br>Good job! Take a break if you need to.</p><p>Press any key to continue the experiment.</p></div>","","","","","","","","","","","","",""
"1526.7999999523163","arrowleft","psychophysics","231","291005","0.0-3.0-0.112","","key","arrowleft","16.66599999999997","720","394.5","113","5","1","20","35","25","35","false"
"null","null","psychophysics","232","292008","0.0-3.0-1.112","","key","null","16.665999999999904","720","394.5","","","","","","","",""
"1143","arrowright","psychophysics","233","293155","0.0-3.0-0.113","","key","arrowright","16.666000000000007","720","394.5","114","5","1","26","15","25","35","true"
"null","null","psychophysics","234","294158","0.0-3.0-1.113","","key","null","16.665999999999904","720","394.5","","","","","","","",""
"1162.8999999761581","arrowright","psychophysics","235","295328","0.0-3.0-0.114","","key","arrowright","16.67423188405793","720","394.5","115","5","1","27","35","25","35","true"
"null","null","psychophysics","236","296335","0.0-3.0-1.114","","key","null","16.66599999999938","720","394.5","","","","","","","",""
"749.7999999523163","arrowright","psychophysics","237","297087","0.0-3.0-0.115","","key","arrowright","16.666000000000086","720","394.5","116","5","1","26","15","25","35","true"
"null","null","psychophysics","238","298090","0.0-3.0-1.115","","key","null","16.665999999999904","720","394.5","","","","","","","",""
"662.1000000238419","arrowleft","psychophysics","239","298754","0.0-3.0-0.116","","key","arrowleft","16.665999999999677","720","394.5","117","5","1","20","15","25","35","false"
"null","null","psychophysics","240","299758","0.0-3.0-1.116","","key","null","16.665999999999904","720","394.5","","","","","","","",""
"4341.900000095367","arrowright","psychophysics","241","304111","0.0-3.0-0.117","","key","arrowright","16.666000000000125","720","394.5","118","5","1","27","15","25","35","true"
"null","null","psychophysics","242","305114","0.0-3.0-1.117","","key","null","16.675627118644453","720","394.5","","","","","","","",""
"2716.7999999523163","arrowleft","psychophysics","243","307837","0.0-3.0-0.118","","key","arrowleft","16.666000000000118","720","394.5","119","5","1","24","15","25","35","false"
"null","null","psychophysics","244","308845","0.0-3.0-1.118","","key","null","16.665999999999904","720","394.5","","","","","","","",""
"700.7999999523163","arrowright","psychophysics","245","309552","0.0-3.0-0.119","","key","arrowright","16.66600000000021","720","394.5","120","5","1","30","35","25","35","true"
"null","null","psychophysics","246","310554","0.0-3.0-1.119","","key","null","16.665999999999904","720","394.5","","","","","","","",""
"980.3999999761581","arrowleft","psychophysics","247","311538","0.0-3.0-0.120","","key","arrowleft","16.666000000000448","720","394.5","121","5","-1","26","35","25","35","true"
"null","null","psychophysics","248","312540","0.0-3.0-1.120","","key","null","16.666000000000892","720","394.5","","","","","","","",""
"910.2999999523163","arrowleft","psychophysics","249","313455","0.0-3.0-0.121","","key","arrowleft","16.665999999999595","720","394.5","122","5","1","24","35","25","35","false"
"null","null","psychophysics","250","314457","0.0-3.0-1.121","","key","null","16.665999999999904","720","394.5","","","","","","","",""
"688.6000000238419","arrowleft","psychophysics","251","315156","0.0-3.0-0.122","","key","arrowleft","16.68290243902323","720","394.5","123","5","-1","26","35","25","35","true"
"null","null","psychophysics","252","316160","0.0-3.0-1.122","","key","null","16.665999999999904","720","394.5","","","","","","","",""
"643.3999999761581","arrowleft","psychophysics","253","316808","0.0-3.0-0.123","","key","arrowleft","16.66599999999897","720","394.5","124","5","1","25","35","25","35","false"
"null","null","psychophysics","254","317812","0.0-3.0-1.123","","key","null","16.665999999999904","720","394.5","","","","","","","",""
"817.2999999523163","arrowleft","psychophysics","255","318636","0.0-3.0-0.124","","key","arrowleft","16.66600000000041","720","394.5","125","5","1","25","35","25","35","false"
"null","null","psychophysics","256","319638","0.0-3.0-1.124","","key","null","16.665999999999904","720","394.5","","","","","","","",""
"701.1000000238419","arrowright","psychophysics","257","320342","0.0-3.0-0.125","","key","arrowright","16.666000000000988","720","394.5","126","5","1","27","35","25","35","true"
"null","null","psychophysics","258","321350","0.0-3.0-1.125","","key","null","16.66600000000035","720","394.5","","","","","","","",""
"916.6000000238419","arrowleft","psychophysics","259","322270","0.0-3.0-0.126","","key","arrowleft","16.666000000000672","720","394.5","127","5","1","25","15","25","35","false"
"null","null","psychophysics","260","323272","0.0-3.0-1.126","","key","null","16.665999999999904","720","394.5","","","","","","","",""
"630","arrowright","psychophysics","261","323905","0.0-3.0-0.127","","key","arrowright","16.665999999999798","720","394.5","128","5","-1","26","35","25","35","false"
"null","null","psychophysics","262","324908","0.0-3.0-1.127","","key","null","16.67562711864347","720","394.5","","","","","","","",""
"684.2999999523163","arrowleft","psychophysics","263","325596","0.0-3.0-0.128","","key","arrowleft","16.665999999998895","720","394.5","129","5","-1","27","35","25","35","true"
"null","null","psychophysics","264","326598","0.0-3.0-1.128","","key","null","16.665999999999904","720","394.5","","","","","","","",""
"652.9000000953674","arrowright","psychophysics","265","327262","0.0-3.0-0.129","","key","arrowright","16.665999999999677","720","394.5","130","5","1","25","35","25","35","true"
"null","null","psychophysics","266","328265","0.0-3.0-1.129","","key","null","16.666000000000892","720","394.5","","","","","","","",""
"536.3999999761581","arrowleft","psychophysics","267","328808","0.0-3.0-0.130","","key","arrowleft","16.665999999999258","720","394.5","131","5","-1","27","35","25","35","true"
"null","null","psychophysics","268","329812","0.0-3.0-1.130","","key","null","16.665999999999904","720","394.5","","","","","","","",""
"614.3000000715256","arrowright","psychophysics","269","330433","0.0-3.0-0.131","","key","arrowright","16.665999999999798","720","394.5","132","5","-1","23","35","25","35","false"
"null","null","psychophysics","270","331435","0.0-3.0-1.131","","key","null","16.665999999999904","720","394.5","","","","","","","",""
"814","arrowleft","psychophysics","271","332251","0.0-3.0-0.132","","key","arrowleft","16.665999999999865","720","394.5","133","5","-1","25","35","25","35","true"
"null","null","psychophysics","272","333259","0.0-3.0-1.132","","key","null","16.665999999999904","720","394.5","","","","","","","",""
"725.2000000476837","arrowright","psychophysics","273","333989","0.0-3.0-0.133","","key","arrowright","16.666000000000825","720","394.5","134","5","-1","24","35","25","35","false"
"null","null","psychophysics","274","334992","0.0-3.0-1.133","","key","null","16.677745762712252","720","394.5","","","","","","","",""
"643.9000000953674","arrowleft","psychophysics","275","335640","0.0-3.0-0.134","","key","arrowleft","16.6660000000005","720","394.5","135","5","-1","27","15","25","35","true"
"null","null","psychophysics","276","336643","0.0-3.0-1.134","","key","null","16.665999999999904","720","394.5","","","","","","","",""
"607.7000000476837","arrowright","psychophysics","277","337255","0.0-3.0-0.135","","key","arrowright","16.666000000000672","720","394.5","136","5","1","27","35","25","35","true"
"null","null","psychophysics","278","338257","0.0-3.0-1.135","","key","null","16.665999999999904","720","394.5","","","","","","","",""
"569.3999999761581","arrowleft","psychophysics","279","338834","0.0-3.0-0.136","","key","arrowleft","16.66599999999915","720","394.5","137","5","-1","23","35","25","35","true"
"null","null","psychophysics","280","339836","0.0-3.0-1.136","","key","null","16.665999999999904","720","394.5","","","","","","","",""
"818.1000000238419","arrowright","psychophysics","281","340657","0.0-3.0-0.137","","key","arrowright","16.665999999999865","720","394.5","138","5","1","27","35","25","35","true"
"null","null","psychophysics","282","341661","0.0-3.0-1.137","","key","null","16.665999999999904","720","394.5","","","","","","","",""
"609.2000000476837","arrowleft","psychophysics","283","342278","0.0-3.0-0.138","","key","arrowleft","16.666000000000672","720","394.5","139","5","-1","26","35","25","35","true"
"null","null","psychophysics","284","343281","0.0-3.0-1.138","","key","null","16.665999999999904","720","394.5","","","","","","","",""
"557.8999999761581","arrowright","psychophysics","285","343845","0.0-3.0-0.139","","key","arrowright","16.666000000000086","720","394.5","140","6","1","30","35","25","35","true"
"null","null","psychophysics","286","344852","0.0-3.0-1.139","","key","null","16.66600000000035","720","394.5","","","","","","","",""
"672.1999999284744","arrowright","html-keyboard-response","287","345526","0.0-3.0-2.139-0.139","<div style=""color: white; text-align: center; vertical-align: top; display: inline-block; width: 800px; margin: auto""><p>You have completed 50% of the trials. You are on block 6 of 10. <br>Good job! Take a break if you need to.</p><p>Press any key to continue the experiment.</p></div>","","","","","","","","","","","","",""
"1269.5","arrowleft","psychophysics","288","347805","0.0-3.0-0.140","","key","arrowleft","16.6660000000005","720","394.5","141","6","1","20","15","25","35","false"
"null","null","psychophysics","289","348808","0.0-3.0-1.140","","key","null","16.665999999999904","720","394.5","","","","","","","",""
"575.3999999761581","arrowright","psychophysics","290","349387","0.0-3.0-0.141","","key","arrowright","16.66599999999915","720","394.5","142","6","1","30","15","25","35","true"
"null","null","psychophysics","291","350397","0.0-3.0-1.141","","key","null","16.665999999999904","720","394.5","","","","","","","",""
"666.3999999761581","arrowright","psychophysics","292","351070","0.0-3.0-0.142","","key","arrowright","16.665999999998895","720","394.5","143","6","1","27","15","25","35","true"
"null","null","psychophysics","293","352073","0.0-3.0-1.142","","key","null","16.665999999999904","720","394.5","","","","","","","",""
"640.3999999761581","arrowright","psychophysics","294","352716","0.0-3.0-0.143","","key","arrowright","16.6660000000005","720","394.5","144","6","-1","20","35","25","35","false"
"null","null","psychophysics","295","353719","0.0-3.0-1.143","","key","null","16.665999999999904","720","394.5","","","","","","","",""
"599.7000000476837","arrowright","psychophysics","296","354321","0.0-3.0-0.144","","key","arrowright","16.665999999999933","720","394.5","145","6","1","26","35","25","35","true"
"null","null","psychophysics","297","355324","0.0-3.0-1.144","","key","null","16.675627118644453","720","394.5","","","","","","","",""
"439.7000000476837","arrowleft","psychophysics","298","355774","0.0-3.0-0.145","","key","arrowleft","16.665999999999677","720","394.5","146","6","1","24","35","25","35","false"
"null","null","psychophysics","299","356777","0.0-3.0-1.145","","key","null","16.665999999999904","720","394.5","","","","","","","",""
"673.3999999761581","arrowleft","psychophysics","300","357454","0.0-3.0-0.146","","key","arrowleft","16.66600000000035","720","394.5","147","6","1","24","15","25","35","false"
"null","null","psychophysics","301","358456","0.0-3.0-1.146","","key","null","16.665999999999904","720","394.5","","","","","","","",""
"1373.7000000476837","arrowleft","psychophysics","302","359833","0.0-3.0-0.147","","key","arrowleft","16.666000000000277","720","394.5","148","6","1","25","35","25","35","false"
"null","null","psychophysics","303","360835","0.0-3.0-1.147","","key","null","16.666000000000892","720","394.5","","","","","","","",""
"1217.5","arrowleft","psychophysics","304","362055","0.0-3.0-0.148","","key","arrowleft","16.665999999999865","720","394.5","149","6","-1","24","15","25","35","true"
"null","null","psychophysics","305","363064","0.0-3.0-1.148","","key","null","16.665999999999904","720","394.5","","","","","","","",""
"1173.5","arrowright","psychophysics","306","364243","0.0-3.0-0.149","","key","arrowright","16.666000000000764","720","394.5","150","6","-1","23","15","25","35","false"
"null","null","psychophysics","307","365247","0.0-3.0-1.149","","key","null","16.677745762712252","720","394.5","","","","","","","",""
"601.2000000476837","arrowleft","psychophysics","308","365855","0.0-3.0-0.150","","key","arrowleft","16.666000000000672","720","394.5","151","6","-1","27","15","25","35","true"
"null","null","psychophysics","309","366857","0.0-3.0-1.150","","key","null","16.665999999999904","720","394.5","","","","","","","",""
"1044.5","arrowleft","psychophysics","310","367905","0.0-3.0-0.151","","key","arrowleft","16.666000000000256","720","394.5","152","6","1","20","15","25","35","false"
"null","null","psychophysics","311","368908","0.0-3.0-1.151","","key","null","16.665999999999904","720","394.5","","","","","","","",""
"751","arrowright","psychophysics","312","369670","0.0-3.0-0.152","","key","arrowright","16.66599999999938","720","394.5","153","6","-1","23","35","25","35","false"
"null","null","psychophysics","313","370672","0.0-3.0-1.152","","key","null","16.665999999999904","720","394.5","","","","","","","",""
"762.5999999046326","arrowleft","psychophysics","314","371437","0.0-3.0-0.153","","key","arrowleft","16.66599999999938","720","394.5","154","6","-1","26","15","25","35","true"
"null","null","psychophysics","315","372440","0.0-3.0-1.153","","key","null","16.665999999999904","720","394.5","","","","","","","",""
"744.3000000715256","arrowleft","psychophysics","316","373188","0.0-3.0-0.154","","key","arrowleft","16.666000000000086","720","394.5","155","6","-1","27","15","25","35","true"
"null","null","psychophysics","317","374191","0.0-3.0-1.154","","key","null","16.665999999999904","720","394.5","","","","","","","",""
"992.8999999761581","arrowleft","psychophysics","318","375187","0.0-3.0-0.155","","key","arrowleft","16.675627118644453","720","394.5","156","6","-1","30","35","25","35","true"
"null","null","psychophysics","319","376197","0.0-3.0-1.155","","key","null","16.665999999999904","720","394.5","","","","","","","",""
"682.5","arrowleft","psychophysics","320","376886","0.0-3.0-0.156","","key","arrowleft","16.665999999999567","720","394.5","157","6","1","20","35","25","35","false"
"null","null","psychophysics","321","377888","0.0-3.0-1.156","","key","null","16.665999999999904","720","394.5","","","","","","","",""
"900.1000000238419","arrowright","psychophysics","322","378791","0.0-3.0-0.157","","key","arrowright","16.665999999999087","720","394.5","158","6","-1","25","35","25","35","false"
"null","null","psychophysics","323","379795","0.0-3.0-1.157","","key","null","16.665999999999904","720","394.5","","","","","","","",""
"702.3999999761581","arrowright","psychophysics","324","380505","0.0-3.0-0.158","","key","arrowright","16.66600000000021","720","394.5","159","6","1","27","15","25","35","true"
"null","null","psychophysics","325","381508","0.0-3.0-1.158","","key","null","16.665999999999904","720","394.5","","","","","","","",""
"1437.2000000476837","arrowleft","psychophysics","326","382956","0.0-3.0-0.159","","key","arrowleft","16.66599999999947","720","394.5","160","6","-1","20","15","25","35","true"
"null","null","psychophysics","327","383960","0.0-3.0-1.159","","key","null","16.665999999999904","720","394.5","","","","","","","",""
"838.8999999761581","arrowleft","psychophysics","328","384803","0.0-3.0-0.160","","key","arrowleft","16.665999999999766","720","394.5","161","6","1","20","35","25","35","false"
"null","null","psychophysics","329","385805","0.0-3.0-1.160","","key","null","16.675627118644453","720","394.5","","","","","","","",""
"2946.899999976158","arrowleft","psychophysics","330","388755","0.0-3.0-0.161","","key","arrowleft","16.665999999999755","720","394.5","162","6","1","26","15","25","35","false"
"null","null","psychophysics","331","389763","0.0-3.0-1.161","","key","null","16.665999999999904","720","394.5","","","","","","","",""
"952.2000000476837","arrowleft","psychophysics","332","390723","0.0-3.0-0.162","","key","arrowleft","16.666000000001013","720","394.5","163","6","-1","30","15","25","35","true"
"null","null","psychophysics","333","391727","0.0-3.0-1.162","","key","null","16.665999999999904","720","394.5","","","","","","","",""
"813.1999999284744","arrowleft","psychophysics","334","392544","0.0-3.0-0.163","","key","arrowleft","16.665999999999865","720","394.5","164","6","-1","26","35","25","35","true"
"null","null","psychophysics","335","393547","0.0-3.0-1.163","","key","null","16.665999999999904","720","394.5","","","","","","","",""
"830.2000000476837","arrowleft","psychophysics","336","394383","0.0-3.0-0.164","","key","arrowleft","16.665999999999766","720","394.5","165","6","-1","26","35","25","35","true"
"null","null","psychophysics","337","395385","0.0-3.0-1.164","","key","null","16.67562711864347","720","394.5","","","","","","","",""
"928","arrowleft","psychophysics","338","396322","0.0-3.0-0.165","","key","arrowleft","16.666000000000086","720","394.5","166","6","-1","23","35","25","35","true"
"null","null","psychophysics","339","397326","0.0-3.0-1.165","","key","null","16.665999999999904","720","394.5","","","","","","","",""
"788.1999999284744","arrowright","psychophysics","340","398119","0.0-3.0-0.166","","key","arrowright","16.666000000000533","720","394.5","167","6","1","26","15","25","35","true"
"null","null","psychophysics","341","399120","0.0-3.0-1.166","","key","null","16.665999999999904","720","394.5","","","","","","","",""
"790.7000000476837","arrowleft","psychophysics","342","399914","0.0-3.0-0.167","","key","arrowleft","16.66599999999997","720","394.5","168","7","1","24","35","25","35","false"
"null","null","psychophysics","343","400916","0.0-3.0-1.167","","key","null","16.66600000000035","720","394.5","","","","","","","",""
"90837.39999997616","arrowright","html-keyboard-response","344","491753","0.0-3.0-2.167-0.167","<div style=""color: white; text-align: center; vertical-align: top; display: inline-block; width: 800px; margin: auto""><p>You have completed 60% of the trials. You are on block 7 of 10. <br>Good job! Take a break if you need to.</p><p>Press any key to continue the experiment.</p></div>","","","","","","","","","","","","",""
"939.5","arrowright","psychophysics","345","493708","0.0-3.0-0.168","","key","arrowright","16.767089285714196","720","394.5","169","7","-1","20","35","25","35","false"
"null","null","psychophysics","346","494713","0.0-3.0-1.168","","key","null","16.665999999999904","720","394.5","","","","","","","",""
"743.5","arrowleft","psychophysics","347","495463","0.0-3.0-0.169","","key","arrowleft","16.666000000000086","720","394.5","170","7","-1","26","15","25","35","true"
"null","null","psychophysics","348","496464","0.0-3.0-1.169","","key","null","16.66599999999938","720","394.5","","","","","","","",""
"639.2999999523163","arrowright","psychophysics","349","497106","0.0-3.0-0.170","","key","arrowright","16.665999999999798","720","394.5","171","7","1","26","15","25","35","true"
"null","null","psychophysics","350","498113","0.0-3.0-1.170","","key","null","16.665999999999904","720","394.5","","","","","","","",""
"632.2999999523163","arrowleft","psychophysics","351","498758","0.0-3.0-0.171","","key","arrowleft","16.6660000000005","720","394.5","172","7","-1","25","35","25","35","true"
"null","null","psychophysics","352","499763","0.0-3.0-1.171","","key","null","16.665999999999904","720","394.5","","","","","","","",""
"1489.8999999761581","arrowright","psychophysics","353","501256","0.0-3.0-0.172","","key","arrowright","16.665999999999727","720","394.5","173","7","1","27","35","25","35","true"
"null","null","psychophysics","354","502258","0.0-3.0-1.172","","key","null","16.677745762712252","720","394.5","","","","","","","",""
"853.2999999523163","arrowleft","psychophysics","355","503115","0.0-3.0-0.173","","key","arrowleft","16.66600000000029","720","394.5","174","7","1","23","35","25","35","false"
"null","null","psychophysics","356","504117","0.0-3.0-1.173","","key","null","16.666000000000892","720","394.5","","","","","","","",""
"738.8999999761581","arrowright","psychophysics","357","504859","0.0-3.0-0.174","","key","arrowright","16.66599999999947","720","394.5","175","7","-1","23","35","25","35","false"
"null","null","psychophysics","358","505867","0.0-3.0-1.174","","key","null","16.66600000000035","720","394.5","","","","","","","",""
"883.5","arrowright","psychophysics","359","506754","0.0-3.0-0.175","","key","arrowright","16.665999999999677","720","394.5","176","7","-1","25","35","25","35","false"
"null","null","psychophysics","360","507756","0.0-3.0-1.175","","key","null","16.665999999999904","720","394.5","","","","","","","",""
"809.2000000476837","arrowright","psychophysics","361","508569","0.0-3.0-0.176","","key","arrowright","16.665999999999865","720","394.5","177","7","1","30","15","25","35","true"
"null","null","psychophysics","362","509571","0.0-3.0-1.176","","key","null","16.665999999999904","720","394.5","","","","","","","",""
"638.5","arrowright","psychophysics","363","510213","0.0-3.0-0.177","","key","arrowright","16.665999999999798","720","394.5","178","7","1","30","15","25","35","true"
"null","null","psychophysics","364","511215","0.0-3.0-1.177","","key","null","16.66599999999938","720","394.5","","","","","","","",""
"1704.1000000238419","arrowright","psychophysics","365","512929","0.0-3.0-0.178","","key","arrowright","16.671623762375976","720","394.5","179","7","1","30","15","25","35","true"
"null","null","psychophysics","366","513931","0.0-3.0-1.178","","key","null","16.665999999999904","720","394.5","","","","","","","",""
"799.5","arrowleft","psychophysics","367","514742","0.0-3.0-0.179","","key","arrowleft","16.666000000001077","720","394.5","180","7","1","25","15","25","35","false"
"null","null","psychophysics","368","515747","0.0-3.0-1.179","","key","null","16.665999999999904","720","394.5","","","","","","","",""
"1667.1999999284744","arrowright","psychophysics","369","517420","0.0-3.0-0.180","","key","arrowright","16.665999999999766","720","394.5","181","7","1","30","15","25","35","true"
"null","null","psychophysics","370","518430","0.0-3.0-1.180","","key","null","16.665999999999904","720","394.5","","","","","","","",""
"685.4000000953674","arrowleft","psychophysics","371","519122","0.0-3.0-0.181","","key","arrowleft","16.666000000000988","720","394.5","182","7","-1","25","15","25","35","true"
"null","null","psychophysics","372","520124","0.0-3.0-1.181","","key","null","16.665999999999904","720","394.5","","","","","","","",""
"835.3999999761581","arrowleft","psychophysics","373","520963","0.0-3.0-0.182","","key","arrowleft","16.665999999999222","720","394.5","183","7","-1","26","15","25","35","true"
"null","null","psychophysics","374","521965","0.0-3.0-1.182","","key","null","16.67754999999985","720","394.5","","","","","","","",""
"951","arrowleft","psychophysics","375","522920","0.0-3.0-0.183","","key","arrowleft","16.666000000000558","720","394.5","184","7","-1","26","15","25","35","true"
"null","null","psychophysics","376","523930","0.0-3.0-1.183","","key","null","16.665999999999904","720","394.5","","","","","","","",""
"809.3000000715256","arrowright","psychophysics","377","524746","0.0-3.0-0.184","","key","arrowright","16.665999999999865","720","394.5","185","7","-1","25","35","25","35","false"
"null","null","psychophysics","378","525749","0.0-3.0-1.184","","key","null","16.66599999999938","720","394.5","","","","","","","",""
"752","arrowright","psychophysics","379","526504","0.0-3.0-0.185","","key","arrowright","16.666000000000086","720","394.5","186","7","-1","20","35","25","35","false"
"null","null","psychophysics","380","527506","0.0-3.0-1.185","","key","null","16.665999999999904","720","394.5","","","","","","","",""
"625.3999999761581","arrowright","psychophysics","381","528135","0.0-3.0-0.186","","key","arrowright","16.665999999999798","720","394.5","187","7","1","30","35","25","35","true"
"null","null","psychophysics","382","529137","0.0-3.0-1.186","","key","null","16.665999999999904","720","394.5","","","","","","","",""
"838.7999999523163","arrowleft","psychophysics","383","529987","0.0-3.0-0.187","","key","arrowleft","16.66600000000093","720","394.5","188","7","1","25","35","25","35","false"
"null","null","psychophysics","384","530990","0.0-3.0-1.187","","key","null","16.665999999999904","720","394.5","","","","","","","",""
"804.6000000238419","arrowright","psychophysics","385","531799","0.0-3.0-0.188","","key","arrowright","16.665999999999865","720","394.5","189","7","1","27","15","25","35","true"
"null","null","psychophysics","386","532801","0.0-3.0-1.188","","key","null","16.67562711864347","720","394.5","","","","","","","",""
"1015.3999999761581","arrowleft","psychophysics","387","533819","0.0-3.0-0.189","","key","arrowleft","16.66600000000132","720","394.5","190","7","1","24","15","25","35","false"
"null","null","psychophysics","388","534822","0.0-3.0-1.189","","key","null","16.665999999999904","720","394.5","","","","","","","",""
"712.5","arrowright","psychophysics","389","535538","0.0-3.0-0.190","","key","arrowright","16.666000000001596","720","394.5","191","7","1","27","35","25","35","true"
"null","null","psychophysics","390","536548","0.0-3.0-1.190","","key","null","16.66599999999938","720","394.5","","","","","","","",""
"985.6000000238419","arrowright","psychophysics","391","537537","0.0-3.0-0.191","","key","arrowright","16.66599999999844","720","394.5","192","7","1","23","15","25","35","true"
"null","null","psychophysics","392","538540","0.0-3.0-1.191","","key","null","16.665999999999904","720","394.5","","","","","","","",""
"683.3000000715256","arrowleft","psychophysics","393","539227","0.0-3.0-0.192","","key","arrowleft","16.66600000000035","720","394.5","193","7","-1","23","15","25","35","true"
"null","null","psychophysics","394","540230","0.0-3.0-1.192","","key","null","16.665999999999904","720","394.5","","","","","","","",""
"800.7000000476837","arrowleft","psychophysics","395","541037","0.0-3.0-0.193","","key","arrowleft","16.66600000000229","720","394.5","194","7","1","23","35","25","35","false"
"null","null","psychophysics","396","542039","0.0-3.0-1.193","","key","null","16.67562711864347","720","394.5","","","","","","","",""
"655.6999999284744","arrowleft","psychophysics","397","542706","0.0-3.0-0.194","","key","arrowleft","16.66600000000117","720","394.5","195","7","-1","25","15","25","35","true"
"null","null","psychophysics","398","543711","0.0-3.0-1.194","","key","null","16.665999999999904","720","394.5","","","","","","","",""
"553.8999999761581","arrowright","psychophysics","399","544272","0.0-3.0-0.195","","key","arrowright","16.666000000000086","720","394.5","196","8","1","30","35","25","35","true"
"null","null","psychophysics","400","545274","0.0-3.0-1.195","","key","null","16.665999999999904","720","394.5","","","","","","","",""
"1215.5","arrowright","html-keyboard-response","401","546492","0.0-3.0-2.195-0.195","<div style=""color: white; text-align: center; vertical-align: top; display: inline-block; width: 800px; margin: auto""><p>You have completed 70% of the trials. You are on block 8 of 10. <br>Good job! Take a break if you need to.</p><p>Press any key to continue the experiment.</p></div>","","","","","","","","","","","","",""
"807.1999999284744","arrowright","psychophysics","402","548310","0.0-3.0-0.196","","key","arrowright","16.665999999999865","720","394.5","197","8","-1","24","15","25","35","false"
"null","null","psychophysics","403","549318","0.0-3.0-1.196","","key","null","16.66599999999938","720","394.5","","","","","","","",""
"880.2999999523163","arrowright","psychophysics","404","550201","0.0-3.0-0.197","","key","arrowright","16.665999999999677","720","394.5","198","8","1","26","15","25","35","true"
"null","null","psychophysics","405","551204","0.0-3.0-1.197","","key","null","16.665999999999904","720","394.5","","","","","","","",""
"1214.0999999046326","arrowleft","psychophysics","406","552421","0.0-3.0-0.198","","key","arrowleft","16.67388888888915","720","394.5","199","8","1","23","15","25","35","false"
"null","null","psychophysics","407","553424","0.0-3.0-1.198","","key","null","16.665999999999904","720","394.5","","","","","","","",""
"999.2000000476837","arrowright","psychophysics","408","554427","0.0-3.0-0.199","","key","arrowright","16.665999999999904","720","394.5","200","8","1","30","35","25","35","true"
"null","null","psychophysics","409","555436","0.0-3.0-1.199","","key","null","16.66599999999938","720","394.5","","","","","","","",""
"914","arrowleft","psychophysics","410","556354","0.0-3.0-0.200","","key","arrowleft","16.666000000000672","720","394.5","201","8","-1","26","35","25","35","true"
"null","null","psychophysics","411","557357","0.0-3.0-1.200","","key","null","16.665999999999904","720","394.5","","","","","","","",""
"692.6000000238419","arrowright","psychophysics","412","558053","0.0-3.0-0.201","","key","arrowright","16.665999999999567","720","394.5","202","8","-1","20","15","25","35","false"
"null","null","psychophysics","413","559056","0.0-3.0-1.201","","key","null","16.665999999999904","720","394.5","","","","","","","",""
"2828.100000023842","arrowleft","psychophysics","414","561887","0.0-3.0-0.202","","key","arrowleft","27.082250000000037","720","394.5","203","8","1","23","35","25","35","false"
"null","null","psychophysics","415","562896","0.0-3.0-1.202","","key","null","16.677745762711265","720","394.5","","","","","","","",""
"786.9000000953674","arrowleft","psychophysics","416","563690","0.0-3.0-0.203","","key","arrowleft","16.666000000000533","720","394.5","204","8","-1","30","35","25","35","true"
"null","null","psychophysics","417","564694","0.0-3.0-1.203","","key","null","16.665999999999904","720","394.5","","","","","","","",""
"814.8000000715256","arrowright","psychophysics","418","565512","0.0-3.0-0.204","","key","arrowright","16.665999999999865","720","394.5","205","8","1","24","35","25","35","true"
"null","null","psychophysics","419","566514","0.0-3.0-1.204","","key","null","16.66599999999938","720","394.5","","","","","","","",""
"639.5","arrowright","psychophysics","420","567158","0.0-3.0-0.205","","key","arrowright","16.666000000002946","720","394.5","206","8","-1","27","35","25","35","false"
"null","null","psychophysics","421","568162","0.0-3.0-1.205","","key","null","16.665999999999904","720","394.5","","","","","","","",""
"696.6999999284744","arrowleft","psychophysics","422","568872","0.0-3.0-0.206","","key","arrowleft","16.666000000001596","720","394.5","207","8","1","23","15","25","35","false"
"null","null","psychophysics","423","569875","0.0-3.0-1.206","","key","null","16.665999999999904","720","394.5","","","","","","","",""
"1501.2999999523163","arrowright","psychophysics","424","571380","0.0-3.0-0.207","","key","arrowright","16.665999999999727","720","394.5","208","8","1","26","35","25","35","true"
"null","null","psychophysics","425","572382","0.0-3.0-1.207","","key","null","16.67546666666555","720","394.5","","","","","","","",""
"807.8999999761581","arrowright","psychophysics","426","573193","0.0-3.0-0.208","","key","arrowright","16.666000000000533","720","394.5","209","8","1","25","15","25","35","true"
"null","null","psychophysics","427","574196","0.0-3.0-1.208","","key","null","16.66600000000188","720","394.5","","","","","","","",""
"718.3000000715256","arrowright","psychophysics","428","574929","0.0-3.0-0.209","","key","arrowright","16.666000000000825","720","394.5","210","8","1","24","15","25","35","true"
"null","null","psychophysics","429","575931","0.0-3.0-1.209","","key","null","16.66599999999938","720","394.5","","","","","","","",""
"680.2999999523163","arrowleft","psychophysics","430","576615","0.0-3.0-0.210","","key","arrowleft","16.66600000000035","720","394.5","211","8","1","24","35","25","35","false"
"null","null","psychophysics","431","577618","0.0-3.0-1.210","","key","null","16.665999999999904","720","394.5","","","","","","","",""
"598.3999999761581","arrowright","psychophysics","432","578219","0.0-3.0-0.211","","key","arrowright","16.66599999999827","720","394.5","212","8","-1","20","35","25","35","false"
"null","null","psychophysics","433","579222","0.0-3.0-1.211","","key","null","16.665999999999904","720","394.5","","","","","","","",""
"638.3000000715256","arrowright","psychophysics","434","579864","0.0-3.0-0.212","","key","arrowright","16.665999999999798","720","394.5","213","8","1","25","35","25","35","true"
"null","null","psychophysics","435","580875","0.0-3.0-1.212","","key","null","16.66600000000132","720","394.5","","","","","","","",""
"592.5","arrowright","psychophysics","436","581471","0.0-3.0-0.213","","key","arrowright","16.66599999999827","720","394.5","214","8","1","30","15","25","35","true"
"null","null","psychophysics","437","582475","0.0-3.0-1.213","","key","null","16.67562711864347","720","394.5","","","","","","","",""
"608","arrowleft","psychophysics","438","583087","0.0-3.0-0.214","","key","arrowleft","16.666000000000672","720","394.5","215","8","-1","23","15","25","35","true"
"null","null","psychophysics","439","584091","0.0-3.0-1.214","","key","null","16.665999999999904","720","394.5","","","","","","","",""
"691.8999999761581","arrowleft","psychophysics","440","584787","0.0-3.0-0.215","","key","arrowleft","16.665999999999567","720","394.5","216","8","-1","20","15","25","35","true"
"null","null","psychophysics","441","585789","0.0-3.0-1.215","","key","null","16.665999999999904","720","394.5","","","","","","","",""
"773.3999999761581","arrowright","psychophysics","442","586574","0.0-3.0-0.216","","key","arrowright","16.666000000001237","720","394.5","217","8","-1","23","35","25","35","false"
"null","null","psychophysics","443","587579","0.0-3.0-1.216","","key","null","16.665999999999904","720","394.5","","","","","","","",""
"1199.9000000953674","arrowright","psychophysics","444","588785","0.0-3.0-0.217","","key","arrowright","16.666000000000672","720","394.5","218","8","1","25","35","25","35","true"
"null","null","psychophysics","445","589787","0.0-3.0-1.217","","key","null","16.665999999999904","720","394.5","","","","","","","",""
"616.1000000238419","arrowleft","psychophysics","446","590406","0.0-3.0-0.218","","key","arrowleft","16.66599999999744","720","394.5","219","8","-1","26","15","25","35","true"
"null","null","psychophysics","447","591409","0.0-3.0-1.218","","key","null","16.665999999999904","720","394.5","","","","","","","",""
"667.7000000476837","arrowright","psychophysics","448","592080","0.0-3.0-0.219","","key","arrowright","16.66600000000117","720","394.5","220","8","1","25","35","25","35","true"
"null","null","psychophysics","449","593091","0.0-3.0-1.219","","key","null","16.67546666666749","720","394.5","","","","","","","",""
"940.7000000476837","arrowleft","psychophysics","450","594036","0.0-3.0-0.220","","key","arrowleft","16.665999999999517","720","394.5","221","8","-1","27","35","25","35","true"
"null","null","psychophysics","451","595040","0.0-3.0-1.220","","key","null","16.665999999999904","720","394.5","","","","","","","",""
"679.5","arrowleft","psychophysics","452","595723","0.0-3.0-0.221","","key","arrowleft","16.66599999999744","720","394.5","222","8","1","20","35","25","35","false"
"null","null","psychophysics","453","596727","0.0-3.0-1.221","","key","null","16.665999999999904","720","394.5","","","","","","","",""
"872.7999999523163","arrowright","psychophysics","454","597607","0.0-3.0-0.222","","key","arrowright","16.665999999999677","720","394.5","223","8","1","24","15","25","35","true"
"null","null","psychophysics","455","598611","0.0-3.0-1.222","","key","null","16.66600000000188","720","394.5","","","","","","","",""
"736.3999999761581","arrowleft","psychophysics","456","599361","0.0-3.0-0.223","","key","arrowleft","16.666000000000086","720","394.5","224","9","1","26","35","25","35","false"
"null","null","psychophysics","457","600364","0.0-3.0-1.223","","key","null","16.665999999999904","720","394.5","","","","","","","",""
"13782.899999976158","arrowright","html-keyboard-response","458","614149","0.0-3.0-2.223-0.223","<div style=""color: white; text-align: center; vertical-align: top; display: inline-block; width: 800px; margin: auto""><p>You have completed 80% of the trials. You are on block 9 of 10. <br>Good job! Take a break if you need to.</p><p>Press any key to continue the experiment.</p></div>","","","","","","","","","","","","",""
"1814","arrowright","psychophysics","459","616981","0.0-3.0-0.224","","key","arrowright","16.6784166666664","720","394.5","225","9","-1","23","35","25","35","false"
"null","null","psychophysics","460","617982","0.0-3.0-1.224","","key","null","16.66600000000132","720","394.5","","","","","","","",""
"578.2999999523163","arrowleft","psychophysics","461","618564","0.0-3.0-0.225","","key","arrowleft","16.666000000000086","720","394.5","226","9","-1","30","15","25","35","true"
"null","null","psychophysics","462","619567","0.0-3.0-1.225","","key","null","16.66600000000132","720","394.5","","","","","","","",""
"588.8999999761581","arrowleft","psychophysics","463","620158","0.0-3.0-0.226","","key","arrowleft","16.66599999999915","720","394.5","227","9","-1","25","15","25","35","true"
"null","null","psychophysics","464","621163","0.0-3.0-1.226","","key","null","16.665999999999904","720","394.5","","","","","","","",""
"611.8999999761581","arrowleft","psychophysics","465","621789","0.0-3.0-0.227","","key","arrowleft","16.665999999999798","720","394.5","228","9","-1","20","15","25","35","true"
"null","null","psychophysics","466","622793","0.0-3.0-1.227","","key","null","16.665999999999904","720","394.5","","","","","","","",""
"753","arrowright","psychophysics","467","623553","0.0-3.0-0.228","","key","arrowright","16.666000000001965","720","394.5","229","9","-1","20","15","25","35","false"
"null","null","psychophysics","468","624556","0.0-3.0-1.228","","key","null","16.677745762711265","720","394.5","","","","","","","",""
"878.3999999761581","arrowright","psychophysics","469","625437","0.0-3.0-0.229","","key","arrowright","16.666000000001915","720","394.5","230","9","1","24","15","25","35","true"
"null","null","psychophysics","470","626440","0.0-3.0-1.229","","key","null","16.665999999999904","720","394.5","","","","","","","",""
"695","arrowleft","psychophysics","471","627139","0.0-3.0-0.230","","key","arrowleft","16.665999999999567","720","394.5","231","9","1","20","35","25","35","false"
"null","null","psychophysics","472","628143","0.0-3.0-1.230","","key","null","16.665999999999904","720","394.5","","","","","","","",""
"829.3999999761581","arrowright","psychophysics","473","628986","0.0-3.0-0.231","","key","arrowright","16.66600000000093","720","394.5","232","9","1","26","35","25","35","true"
"null","null","psychophysics","474","629988","0.0-3.0-1.231","","key","null","16.665999999999904","720","394.5","","","","","","","",""
"543.8999999761581","arrowleft","psychophysics","475","630535","0.0-3.0-0.232","","key","arrowleft","16.666000000001077","720","394.5","233","9","1","24","35","25","35","false"
"null","null","psychophysics","476","631537","0.0-3.0-1.232","","key","null","16.665999999999904","720","394.5","","","","","","","",""
"645.6999999284744","arrowleft","psychophysics","477","632186","0.0-3.0-0.233","","key","arrowleft","16.666000000002033","720","394.5","234","9","1","23","35","25","35","false"
"null","null","psychophysics","478","633188","0.0-3.0-1.233","","key","null","16.665999999999904","720","394.5","","","","","","","",""
"729.3999999761581","arrowleft","psychophysics","479","633920","0.0-3.0-0.234","","key","arrowleft","16.666000000000825","720","394.5","235","9","-1","27","35","25","35","true"
"null","null","psychophysics","480","634923","0.0-3.0-1.234","","key","null","16.67562711864544","720","394.5","","","","","","","",""
"984.1000000238419","arrowleft","psychophysics","481","635921","0.0-3.0-0.235","","key","arrowleft","16.665999999999904","720","394.5","236","9","-1","27","35","25","35","true"
"null","null","psychophysics","482","636923","0.0-3.0-1.235","","key","null","16.665999999999904","720","394.5","","","","","","","",""
"1298.6000000238419","arrowleft","psychophysics","483","638226","0.0-3.0-0.236","","key","arrowleft","16.665999999998572","720","394.5","237","9","-1","27","35","25","35","true"
"null","null","psychophysics","484","639230","0.0-3.0-1.236","","key","null","16.665999999999904","720","394.5","","","","","","","",""
"849.1000000238419","arrowright","psychophysics","485","640085","0.0-3.0-0.237","","key","arrowright","16.66600000000029","720","394.5","238","9","1","24","35","25","35","true"
"null","null","psychophysics","486","641087","0.0-3.0-1.237","","key","null","16.665999999999904","720","394.5","","","","","","","",""
"761.8999999761581","arrowleft","psychophysics","487","641852","0.0-3.0-0.238","","key","arrowleft","16.66599999999938","720","394.5","239","9","-1","23","15","25","35","true"
"null","null","psychophysics","488","642863","0.0-3.0-1.238","","key","null","16.665999999999904","720","394.5","","","","","","","",""
"949.6999999284744","arrowright","psychophysics","489","643819","0.0-3.0-0.239","","key","arrowright","16.666000000001013","720","394.5","240","9","-1","20","15","25","35","false"
"null","null","psychophysics","490","644822","0.0-3.0-1.239","","key","null","16.67562711864347","720","394.5","","","","","","","",""
"950.1000000238419","arrowright","psychophysics","491","645777","0.0-3.0-0.240","","key","arrowright","16.665999999999517","720","394.5","241","9","-1","20","15","25","35","false"
"null","null","psychophysics","492","646780","0.0-3.0-1.240","","key","null","16.665999999999904","720","394.5","","","","","","","",""
"882.2000000476837","arrowleft","psychophysics","493","647669","0.0-3.0-0.241","","key","arrowleft","16.665999999999087","720","394.5","242","9","1","26","35","25","35","false"
"null","null","psychophysics","494","648672","0.0-3.0-1.241","","key","null","16.665999999999904","720","394.5","","","","","","","",""
"682.5","arrowleft","psychophysics","495","649367","0.0-3.0-0.242","","key","arrowleft","16.665999999999567","720","394.5","243","9","-1","23","15","25","35","true"
"null","null","psychophysics","496","650368","0.0-3.0-1.242","","key","null","16.665999999999904","720","394.5","","","","","","","",""
"1267.1000000238419","arrowleft","psychophysics","497","651639","0.0-3.0-0.243","","key","arrowleft","16.66600000000093","720","394.5","244","9","-1","30","35","25","35","true"
"null","null","psychophysics","498","652644","0.0-3.0-1.243","","key","null","16.665999999999904","720","394.5","","","","","","","",""
"3639.2000000476837","arrowright","psychophysics","499","656290","0.0-3.0-0.244","","key","arrowright","16.668605504587394","720","394.5","245","9","1","30","35","25","35","true"
"null","null","psychophysics","500","657299","0.0-3.0-1.244","","key","null","16.66599999999938","720","394.5","","","","","","","",""
"972.1000000238419","arrowleft","psychophysics","501","658274","0.0-3.0-0.245","","key","arrowleft","16.66599999999897","720","394.5","246","9","1","26","35","25","35","false"
"null","null","psychophysics","502","659279","0.0-3.0-1.245","","key","null","16.66600000000188","720","394.5","","","","","","","",""
"982.4000000953674","arrowleft","psychophysics","503","660268","0.0-3.0-0.246","","key","arrowleft","16.665999999999904","720","394.5","247","9","1","23","15","25","35","false"
"null","null","psychophysics","504","661270","0.0-3.0-1.246","","key","null","16.665999999999904","720","394.5","","","","","","","",""
"863.7000000476837","arrowleft","psychophysics","505","662137","0.0-3.0-0.247","","key","arrowleft","16.66600000000029","720","394.5","248","9","-1","27","15","25","35","true"
"null","null","psychophysics","506","663141","0.0-3.0-1.247","","key","null","16.665999999999904","720","394.5","","","","","","","",""
"646.8000000715256","arrowleft","psychophysics","507","663803","0.0-3.0-0.248","","key","arrowleft","16.665999999998185","720","394.5","249","9","-1","26","15","25","35","true"
"null","null","psychophysics","508","664806","0.0-3.0-1.248","","key","null","16.67562711864347","720","394.5","","","","","","","",""
"738.8999999761581","arrowleft","psychophysics","509","665549","0.0-3.0-0.249","","key","arrowleft","16.666000000000086","720","394.5","250","9","-1","26","15","25","35","true"
"null","null","psychophysics","510","666551","0.0-3.0-1.249","","key","null","16.665999999999904","720","394.5","","","","","","","",""
"765.3999999761581","arrowleft","psychophysics","511","667321","0.0-3.0-0.250","","key","arrowleft","16.66599999999938","720","394.5","251","9","-1","27","35","25","35","true"
"null","null","psychophysics","512","668324","0.0-3.0-1.250","","key","null","16.665999999999904","720","394.5","","","","","","","",""
"727.8999999761581","arrowleft","psychophysics","513","669056","0.0-3.0-0.251","","key","arrowleft","16.665999999998117","720","394.5","252","10","-1","30","35","25","35","true"
"null","null","psychophysics","514","670066","0.0-3.0-1.251","","key","null","16.66599999999938","720","394.5","","","","","","","",""
"2228.1999999284744","arrowright","html-keyboard-response","515","672296","0.0-3.0-2.251-0.251","<div style=""color: white; text-align: center; vertical-align: top; display: inline-block; width: 800px; margin: auto""><p>You have completed 90% of the trials. You are on block 10 of 10. <br>Good job! Take a break if you need to.</p><p>Press any key to continue the experiment.</p></div>","","","","","","","","","","","","",""
"2734.100000023842","arrowright","psychophysics","516","676038","0.0-3.0-0.252","","key","arrowright","16.669463414634244","720","394.5","253","10","1","25","15","25","35","true"
"null","null","psychophysics","517","677048","0.0-3.0-1.252","","key","null","16.665999999999904","720","394.5","","","","","","","",""
"803.1999999284744","arrowleft","psychophysics","518","677857","0.0-3.0-0.253","","key","arrowleft","16.665999999999865","720","394.5","254","10","1","23","35","25","35","false"
"null","null","psychophysics","519","678861","0.0-3.0-1.253","","key","null","16.665999999999904","720","394.5","","","","","","","",""
"776.1000000238419","arrowleft","psychophysics","520","679644","0.0-3.0-0.254","","key","arrowleft","16.665999999998704","720","394.5","255","10","-1","26","35","25","35","true"
"null","null","psychophysics","521","680648","0.0-3.0-1.254","","key","null","16.66599999999938","720","394.5","","","","","","","",""
"658.6999999284744","arrowright","psychophysics","522","681311","0.0-3.0-0.255","","key","arrowright","16.666000000002033","720","394.5","256","10","1","24","15","25","35","true"
"null","null","psychophysics","523","682314","0.0-3.0-1.255","","key","null","16.665999999999904","720","394.5","","","","","","","",""
"571.3999999761581","arrowleft","psychophysics","524","682902","0.0-3.0-0.256","","key","arrowleft","16.666000000001596","720","394.5","257","10","-1","30","15","25","35","true"
"null","null","psychophysics","525","683905","0.0-3.0-1.256","","key","null","16.665999999999904","720","394.5","","","","","","","",""
"615.8999999761581","arrowleft","psychophysics","526","684525","0.0-3.0-0.257","","key","arrowleft","16.685249999999844","720","394.5","258","10","-1","27","35","25","35","true"
"null","null","psychophysics","527","685529","0.0-3.0-1.257","","key","null","16.665999999999904","720","394.5","","","","","","","",""
"1074.8000000715256","arrowleft","psychophysics","528","686611","0.0-3.0-0.258","","key","arrowleft","16.665999999999258","720","394.5","259","10","-1","23","15","25","35","true"
"null","null","psychophysics","529","687614","0.0-3.0-1.258","","key","null","16.665999999999904","720","394.5","","","","","","","",""
"815.2999999523163","arrowleft","psychophysics","530","688436","0.0-3.0-0.259","","key","arrowleft","16.665999999999222","720","394.5","260","10","-1","27","35","25","35","true"
"null","null","psychophysics","531","689440","0.0-3.0-1.259","","key","null","16.665999999999904","720","394.5","","","","","","","",""
"665.7999999523163","arrowleft","psychophysics","532","690119","0.0-3.0-0.260","","key","arrowleft","16.66600000000035","720","394.5","261","10","-1","24","15","25","35","true"
"null","null","psychophysics","533","691122","0.0-3.0-1.260","","key","null","16.665999999999904","720","394.5","","","","","","","",""
"828","arrowleft","psychophysics","534","691955","0.0-3.0-0.261","","key","arrowleft","16.666000000001596","720","394.5","262","10","1","24","15","25","35","false"
"null","null","psychophysics","535","692959","0.0-3.0-1.261","","key","null","16.665999999999904","720","394.5","","","","","","","",""
"774.7999999523163","arrowleft","psychophysics","536","693737","0.0-3.0-0.262","","key","arrowleft","16.666000000001237","720","394.5","263","10","1","24","35","25","35","false"
"null","null","psychophysics","537","694741","0.0-3.0-1.262","","key","null","16.67562711864347","720","394.5","","","","","","","",""
"867.4000000953674","arrowright","psychophysics","538","695613","0.0-3.0-0.263","","key","arrowright","16.66599999999801","720","394.5","264","10","-1","25","35","25","35","false"
"null","null","psychophysics","539","696626","0.0-3.0-1.263","","key","null","16.66599999999938","720","394.5","","","","","","","",""
"816.8000000715256","arrowleft","psychophysics","540","697451","0.0-3.0-0.264","","key","arrowleft","16.666000000001596","720","394.5","265","10","1","24","15","25","35","false"
"null","null","psychophysics","541","698453","0.0-3.0-1.264","","key","null","16.665999999999904","720","394.5","","","","","","","",""
"717.1000000238419","arrowright","psychophysics","542","699173","0.0-3.0-0.265","","key","arrowright","16.666000000001596","720","394.5","266","10","1","27","15","25","35","true"
"null","null","psychophysics","543","700177","0.0-3.0-1.265","","key","null","16.665999999999904","720","394.5","","","","","","","",""
"607.2000000476837","arrowleft","psychophysics","544","700788","0.0-3.0-0.266","","key","arrowleft","16.666000000000672","720","394.5","267","10","1","23","35","25","35","false"
"null","null","psychophysics","545","701791","0.0-3.0-1.266","","key","null","16.665999999999904","720","394.5","","","","","","","",""
"877.3999999761581","arrowleft","psychophysics","546","702684","0.0-3.0-0.267","","key","arrowleft","16.665999999999087","720","394.5","268","10","1","23","15","25","35","false"
"null","null","psychophysics","547","703685","0.0-3.0-1.267","","key","null","16.665999999999904","720","394.5","","","","","","","",""
"745.8999999761581","arrowleft","psychophysics","548","704435","0.0-3.0-0.268","","key","arrowleft","16.666000000000086","720","394.5","269","10","-1","25","15","25","35","true"
"null","null","psychophysics","549","705437","0.0-3.0-1.268","","key","null","16.67562711864347","720","394.5","","","","","","","",""
"694.7999999523163","arrowright","psychophysics","550","706136","0.0-3.0-0.269","","key","arrowright","16.665999999999567","720","394.5","270","10","1","26","15","25","35","true"
"null","null","psychophysics","551","707140","0.0-3.0-1.269","","key","null","16.665999999999904","720","394.5","","","","","","","",""
"715.1000000238419","arrowleft","psychophysics","552","707860","0.0-3.0-0.270","","key","arrowleft","16.666000000001596","720","394.5","271","10","1","23","15","25","35","false"
"null","null","psychophysics","553","708863","0.0-3.0-1.270","","key","null","16.665999999999904","720","394.5","","","","","","","",""
"589.8999999761581","arrowleft","psychophysics","554","709467","0.0-3.0-0.271","","key","arrowleft","16.666000000000672","720","394.5","272","10","-1","30","15","25","35","true"
"null","null","psychophysics","555","710470","0.0-3.0-1.271","","key","null","16.665999999999904","720","394.5","","","","","","","",""
"579.2999999523163","arrowleft","psychophysics","556","711052","0.0-3.0-0.272","","key","arrowleft","16.66599999999915","720","394.5","273","10","1","20","15","25","35","false"
"null","null","psychophysics","557","712055","0.0-3.0-1.272","","key","null","16.665999999999904","720","394.5","","","","","","","",""
"875.3999999761581","arrowleft","psychophysics","558","712935","0.0-3.0-0.273","","key","arrowleft","16.666000000001915","720","394.5","274","10","1","25","15","25","35","false"
"null","null","psychophysics","559","713937","0.0-3.0-1.273","","key","null","16.665999999999904","720","394.5","","","","","","","",""
"629.2999999523163","arrowright","psychophysics","560","714571","0.0-3.0-0.274","","key","arrowright","16.68135135135349","720","394.5","275","10","-1","24","35","25","35","false"
"null","null","psychophysics","561","715573","0.0-3.0-1.274","","key","null","16.665999999999904","720","394.5","","","","","","","",""
"680.6000000238419","arrowleft","psychophysics","562","716270","0.0-3.0-0.275","","key","arrowleft","16.665999999999567","720","394.5","276","10","-1","24","35","25","35","true"
"null","null","psychophysics","563","717275","0.0-3.0-1.275","","key","null","16.665999999999904","720","394.5","","","","","","","",""
"953.2999999523163","arrowright","psychophysics","564","718232","0.0-3.0-0.276","","key","arrowright","16.66599999999897","720","394.5","277","10","-1","23","35","25","35","false"
"null","null","psychophysics","565","719235","0.0-3.0-1.276","","key","null","16.665999999999904","720","394.5","","","","","","","",""
"821.3999999761581","arrowleft","psychophysics","566","720060","0.0-3.0-0.277","","key","arrowleft","16.665999999999865","720","394.5","278","10","-1","30","15","25","35","true"
"null","null","psychophysics","567","721063","0.0-3.0-1.277","","key","null","16.665999999999904","720","394.5","","","","","","","",""
"707.0999999046326","arrowleft","psychophysics","568","721777","0.0-3.0-0.278","","key","arrowleft","16.665999999998824","720","394.5","279","10","-1","25","15","25","35","true"
"null","null","psychophysics","569","722789","0.0-3.0-1.278","","key","null","16.66600000000132","720","394.5","","","","","","","",""
"711.8999999761581","arrowright","psychophysics","570","723504","0.0-3.0-0.279","","key","arrowright","16.665999999998824","720","394.5","280","11","1","27","15","25","35","true"
"null","null","psychophysics","571","724507","0.0-3.0-1.279","","key","null","16.665999999999904","720","394.5","","","","","","","",""
