"rt","response","trial_type","trial_index","time_elapsed","internal_node_id","stimulus","response_type","key_press","avg_frame_time","center_x","center_y","trial","block","test_pos","test_inner_radius","test_outer_radius","ref_inner_radius","ref_outer_radius","test_bigger"
"73371","{""p_id"":""6882"",""age"":""19"",""handedness"":""right"",""sex"":""female"",""other_sex"":""""}","survey-html-form","0","73374","0.0-0.0","","","","","","","","","","","","","",""
"34653"," ","html-keyboard-response","1","108034","0.0-1.0","<p style=""color: white"">Welcome to the Size Judgment Experiment. <br>There will be 10 blocks in this experiment. <br>There will be 28 trials in each block. <br>You will be given a chance to take a break between blocks. <br>Press any key to start the experiment.</p>","","","","","","","","","","","","",""
"228020"," ","psychophysics","2","336061","0.0-2.0","","key"," ","16.96651038178165","720","410","","","","","","","",""
"5869","arrowright","psychophysics","3","341934","0.0-3.0-0.0","","key","arrowright","16.706552706552706","720","410","1","1","-1","20","35","25","35","false"
"null","null","psychophysics","4","342937","0.0-3.0-1.0","","key","null","16.661016949152543","720","410","","","","","","","",""
"751","arrowright","psychophysics","5","343692","0.0-3.0-0.1","","key","arrowright","16.681818181818183","720","410","2","1","-1","20","35","25","35","false"
"null","null","psychophysics","6","344693","0.0-3.0-1.1","","key","null","16.677966101694917","720","410","","","","","","","",""
"1215.9999999999418","arrowleft","psychophysics","7","345911","0.0-3.0-0.2","","key","arrowleft","16.666666666666668","720","410","3","1","-1","30","15","25","35","true"
"null","null","psychophysics","8","346913","0.0-3.0-1.2","","key","null","16.677966101694917","720","410","","","","","","","",""
"874","arrowright","psychophysics","9","347790","0.0-3.0-0.3","","key","arrowright","16.634615384615383","720","410","4","1","1","24","15","25","35","true"
"null","null","psychophysics","10","348791","0.0-3.0-1.3","","key","null","16.661016949152543","720","410","","","","","","","",""
"1804.9999999999418","arrowleft","psychophysics","11","350601","0.0-3.0-0.4","","key","arrowleft","16.685185185185187","720","410","5","1","-1","27","15","25","35","true"
"null","null","psychophysics","12","351603","0.0-3.0-1.4","","key","null","16.661016949152543","720","410","","","","","","","",""
"579","arrowright","psychophysics","13","352185","0.0-3.0-0.5","","key","arrowright","16.647058823529413","720","410","6","1","-1","20","15","25","35","false"
"null","null","psychophysics","14","353187","0.0-3.0-1.5","","key","null","16.677966101694917","720","410","","","","","","","",""
"687","arrowright","psychophysics","15","353877","0.0-3.0-0.6","","key","arrowright","16.675","720","410","7","1","1","26","15","25","35","true"
"null","null","psychophysics","16","354879","0.0-3.0-1.6","","key","null","16.677966101694917","720","410","","","","","","","",""
"1458","arrowright","psychophysics","17","356350","0.0-3.0-0.7","","key","arrowright","16.625","720","410","8","1","-1","23","35","25","35","false"
"null","null","psychophysics","18","357353","0.0-3.0-1.7","","key","null","16.661016949152543","720","410","","","","","","","",""
"7266","arrowleft","psychophysics","19","364622","0.0-3.0-0.8","","key","arrowleft","16.716589861751153","720","410","9","1","-1","27","35","25","35","true"
"null","null","psychophysics","20","365625","0.0-3.0-1.8","","key","null","16.661016949152543","720","410","","","","","","","",""
"1026","arrowright","psychophysics","21","366653","0.0-3.0-0.9","","key","arrowright","16.721311475409838","720","410","10","1","-1","23","35","25","35","false"
"null","null","psychophysics","22","367655","0.0-3.0-1.9","","key","null","16.677966101694917","720","410","","","","","","","",""
"162","arrowright","psychophysics","23","367820","0.0-3.0-0.10","","key","arrowright","16.666666666666668","720","410","11","1","1","20","35","25","35","true"
"null","null","psychophysics","24","368822","0.0-3.0-1.10","","key","null","16.677966101694917","720","410","","","","","","","",""
"3922","arrowright","psychophysics","25","372745","0.0-3.0-0.11","","key","arrowright","16.666666666666668","720","410","12","1","-1","26","15","25","35","false"
"null","null","psychophysics","26","373750","0.0-3.0-1.11","","key","null","16.616666666666667","720","410","","","","","","","",""
"1119","arrowleft","psychophysics","27","374871","0.0-3.0-0.12","","key","arrowleft","16.666666666666668","720","410","13","1","1","20","35","25","35","false"
"null","null","psychophysics","28","375873","0.0-3.0-1.12","","key","null","16.677966101694917","720","410","","","","","","","",""
"640","arrowright","psychophysics","29","376515","0.0-3.0-0.13","","key","arrowright","16.64864864864865","720","410","14","1","1","27","15","25","35","true"
"null","null","psychophysics","30","377516","0.0-3.0-1.13","","key","null","16.633333333333333","720","410","","","","","","","",""
"676","arrowright","psychophysics","31","378195","0.0-3.0-0.14","","key","arrowright","16.641025641025642","720","410","15","1","1","30","35","25","35","true"
"null","null","psychophysics","32","379200","0.0-3.0-1.14","","key","null","16.65","720","410","","","","","","","",""
"1211","arrowleft","psychophysics","33","380412","0.0-3.0-0.15","","key","arrowleft","16.661971830985916","720","410","16","1","-1","24","15","25","35","true"
"null","null","psychophysics","34","381413","0.0-3.0-1.15","","key","null","16.661016949152543","720","410","","","","","","","",""
"627","arrowright","psychophysics","35","382043","0.0-3.0-0.16","","key","arrowright","15.944444444444445","720","410","17","1","1","26","35","25","35","true"
"null","null","psychophysics","36","383044","0.0-3.0-1.16","","key","null","16.661016949152543","720","410","","","","","","","",""
"919.9999999999418","arrowright","psychophysics","37","383967","0.0-3.0-0.17","","key","arrowright","16.69090909090909","720","410","18","1","1","25","35","25","35","true"
"null","null","psychophysics","38","384970","0.0-3.0-1.17","","key","null","16.677966101694917","720","410","","","","","","","",""
"751","arrowright","psychophysics","39","385724","0.0-3.0-0.18","","key","arrowright","16.681818181818183","720","410","19","1","1","24","15","25","35","true"
"null","null","psychophysics","40","386725","0.0-3.0-1.18","","key","null","16.64406779661017","720","410","","","","","","","",""
"505","arrowleft","psychophysics","41","387232","0.0-3.0-0.19","","key","arrowleft","16.6","720","410","20","1","1","20","15","25","35","false"
"null","null","psychophysics","42","388234","0.0-3.0-1.19","","key","null","16.694915254237287","720","410","","","","","","","",""
"999","arrowleft","psychophysics","43","389235","0.0-3.0-0.20","","key","arrowleft","16.661016949152543","720","410","21","1","-1","23","15","25","35","true"
"null","null","psychophysics","44","390236","0.0-3.0-1.20","","key","null","16.661016949152543","720","410","","","","","","","",""
"575","arrowright","psychophysics","45","390816","0.0-3.0-0.21","","key","arrowright","16.727272727272727","720","410","22","1","1","23","15","25","35","true"
"null","null","psychophysics","46","391819","0.0-3.0-1.21","","key","null","16.65","720","410","","","","","","","",""
"536","arrowright","psychophysics","47","392356","0.0-3.0-0.22","","key","arrowright","16.677419354838708","720","410","23","1","-1","20","35","25","35","false"
"null","null","psychophysics","48","393358","0.0-3.0-1.22","","key","null","16.694915254237287","720","410","","","","","","","",""
"662.0000000000582","arrowright","psychophysics","49","394023","0.0-3.0-0.23","","key","arrowright","16.794871794871796","720","410","24","1","1","23","15","25","35","true"
"null","null","psychophysics","50","395024","0.0-3.0-1.23","","key","null","16.694915254237287","720","410","","","","","","","",""
"560","arrowleft","psychophysics","51","395587","0.0-3.0-0.24","","key","arrowleft","16.696969696969695","720","410","25","1","1","20","35","25","35","false"
"null","null","psychophysics","52","396591","0.0-3.0-1.24","","key","null","16.661016949152543","720","410","","","","","","","",""
"543.0000000000582","arrowright","psychophysics","53","397135","0.0-3.0-0.25","","key","arrowright","16.71875","720","410","26","1","1","25","35","25","35","true"
"null","null","psychophysics","54","398136","0.0-3.0-1.25","","key","null","16.661016949152543","720","410","","","","","","","",""
"553","arrowleft","psychophysics","55","398691","0.0-3.0-0.26","","key","arrowleft","16.6875","720","410","27","1","1","20","35","25","35","false"
"null","null","psychophysics","56","399693","0.0-3.0-1.26","","key","null","16.661016949152543","720","410","","","","","","","",""
"1709","arrowleft","psychophysics","57","401404","0.0-3.0-0.27","","key","arrowleft","16.69607843137255","720","410","28","2","1","23","35","25","35","false"
"null","null","psychophysics","58","402408","0.0-3.0-1.27","","key","null","16.64406779661017","720","410","","","","","","","",""
"4292.000000000058"," ","html-keyboard-response","59","406701","0.0-3.0-2.27-0.27","<div style=""color: white; text-align: center; vertical-align: top; display: inline-block; width: 800px; margin: auto""><p>You have completed 10% of the trials. You are on block 2 of 10. <br>Good job! Take a break if you need to.</p><p>Press any key to continue the experiment.</p></div>","","","","","","","","","","","","",""
"1699","arrowright","psychophysics","60","409403","0.0-3.0-0.28","","key","arrowright","16.673267326732674","720","410","29","2","1","27","35","25","35","true"
"null","null","psychophysics","61","410406","0.0-3.0-1.28","","key","null","16.694915254237287","720","410","","","","","","","",""
"721","arrowright","psychophysics","62","411129","0.0-3.0-0.29","","key","arrowright","16.666666666666668","720","410","30","2","-1","25","35","25","35","false"
"null","null","psychophysics","63","412130","0.0-3.0-1.29","","key","null","16.661016949152543","720","410","","","","","","","",""
"687.9999999999418","arrowleft","psychophysics","64","412824","0.0-3.0-0.30","","key","arrowleft","16.609756097560975","720","410","31","2","-1","23","15","25","35","true"
"null","null","psychophysics","65","413825","0.0-3.0-1.30","","key","null","16.677966101694917","720","410","","","","","","","",""
"408","arrowright","psychophysics","66","414236","0.0-3.0-0.31","","key","arrowright","16.75","720","410","32","2","-1","24","15","25","35","false"
"null","null","psychophysics","67","415238","0.0-3.0-1.31","","key","null","16.677966101694917","720","410","","","","","","","",""
"520","arrowright","psychophysics","68","415762","0.0-3.0-0.32","","key","arrowright","16.666666666666668","720","410","33","2","1","26","35","25","35","true"
"null","null","psychophysics","69","416763","0.0-3.0-1.32","","key","null","16.661016949152543","720","410","","","","","","","",""
"576","arrowleft","psychophysics","70","417341","0.0-3.0-0.33","","key","arrowleft","16.58823529411765","720","410","34","2","1","20","35","25","35","false"
"null","null","psychophysics","71","418343","0.0-3.0-1.33","","key","null","16.661016949152543","720","410","","","","","","","",""
"555.9999999999418","arrowright","psychophysics","72","418901","0.0-3.0-0.34","","key","arrowright","16.696969696969695","720","410","35","2","-1","27","15","25","35","false"
"null","null","psychophysics","73","419903","0.0-3.0-1.34","","key","null","16.677966101694917","720","410","","","","","","","",""
"760","arrowleft","psychophysics","74","420665","0.0-3.0-0.35","","key","arrowleft","16.681818181818183","720","410","36","2","1","20","35","25","35","false"
"null","null","psychophysics","75","421668","0.0-3.0-1.35","","key","null","16.6","720","410","","","","","","","",""
"548","arrowleft","psychophysics","76","422219","0.0-3.0-0.36","","key","arrowleft","16.71875","720","410","37","2","-1","30","35","25","35","true"
"null","null","psychophysics","77","423220","0.0-3.0-1.36","","key","null","16.677966101694917","720","410","","","","","","","",""
"614.0000000000582","arrowright","psychophysics","78","423838","0.0-3.0-0.37","","key","arrowright","16.72222222222222","720","410","38","2","1","30","35","25","35","true"
"null","null","psychophysics","79","424840","0.0-3.0-1.37","","key","null","16.677966101694917","720","410","","","","","","","",""
"774","arrowright","psychophysics","80","425615","0.0-3.0-0.38","","key","arrowright","16.666666666666668","720","410","39","2","-1","23","35","25","35","false"
"null","null","psychophysics","81","426617","0.0-3.0-1.38","","key","null","16.616666666666667","720","410","","","","","","","",""
"746","arrowleft","psychophysics","82","427367","0.0-3.0-0.39","","key","arrowleft","16.636363636363637","720","410","40","2","-1","26","15","25","35","true"
"null","null","psychophysics","83","428368","0.0-3.0-1.39","","key","null","16.661016949152543","720","410","","","","","","","",""
"638","arrowright","psychophysics","84","429009","0.0-3.0-0.40","","key","arrowright","16.675675675675677","720","410","41","2","1","24","15","25","35","true"
"null","null","psychophysics","85","430010","0.0-3.0-1.40","","key","null","16.694915254237287","720","410","","","","","","","",""
"893","arrowright","psychophysics","86","430906","0.0-3.0-0.41","","key","arrowright","16.660377358490567","720","410","42","2","-1","20","15","25","35","false"
"null","null","psychophysics","87","431908","0.0-3.0-1.41","","key","null","16.677966101694917","720","410","","","","","","","",""
"465.9999999999418","arrowleft","psychophysics","88","432376","0.0-3.0-0.42","","key","arrowleft","16.666666666666668","720","410","43","2","-1","30","15","25","35","true"
"null","null","psychophysics","89","433378","0.0-3.0-1.42","","key","null","16.677966101694917","720","410","","","","","","","",""
"538.9999999999418","arrowleft","psychophysics","90","433920","0.0-3.0-0.43","","key","arrowleft","16.71875","720","410","44","2","-1","30","15","25","35","true"
"null","null","psychophysics","91","434922","0.0-3.0-1.43","","key","null","16.64406779661017","720","410","","","","","","","",""
"573","arrowright","psychophysics","92","435497","0.0-3.0-0.44","","key","arrowright","16.696969696969695","720","410","45","2","-1","24","35","25","35","false"
"null","null","psychophysics","93","436501","0.0-3.0-1.44","","key","null","16.65","720","410","","","","","","","",""
"586","arrowleft","psychophysics","94","437091","0.0-3.0-0.45","","key","arrowleft","16.529411764705884","720","410","46","2","-1","30","35","25","35","true"
"null","null","psychophysics","95","438092","0.0-3.0-1.45","","key","null","16.677966101694917","720","410","","","","","","","",""
"561","arrowright","psychophysics","96","438657","0.0-3.0-0.46","","key","arrowright","16.636363636363637","720","410","47","2","-1","24","35","25","35","false"
"null","null","psychophysics","97","439659","0.0-3.0-1.46","","key","null","16.661016949152543","720","410","","","","","","","",""
"943","arrowright","psychophysics","98","440604","0.0-3.0-0.47","","key","arrowright","16.714285714285715","720","410","48","2","-1","25","35","25","35","false"
"null","null","psychophysics","99","441606","0.0-3.0-1.47","","key","null","16.661016949152543","720","410","","","","","","","",""
"690","arrowright","psychophysics","100","442299","0.0-3.0-0.48","","key","arrowright","16.70731707317073","720","410","49","2","1","27","35","25","35","true"
"null","null","psychophysics","101","443302","0.0-3.0-1.48","","key","null","16.661016949152543","720","410","","","","","","","",""
"604","arrowright","psychophysics","102","443908","0.0-3.0-0.49","","key","arrowright","16.62857142857143","720","410","50","2","1","26","15","25","35","true"
"null","null","psychophysics","103","444910","0.0-3.0-1.49","","key","null","16.64406779661017","720","410","","","","","","","",""
"2191","arrowright","psychophysics","104","447105","0.0-3.0-0.50","","key","arrowright","16.66412213740458","720","410","51","2","-1","24","35","25","35","false"
"null","null","psychophysics","105","448107","0.0-3.0-1.50","","key","null","16.64406779661017","720","410","","","","","","","",""
"869","arrowright","psychophysics","106","448978","0.0-3.0-0.51","","key","arrowright","16.686274509803923","720","410","52","2","-1","24","35","25","35","false"
"null","null","psychophysics","107","449979","0.0-3.0-1.51","","key","null","17.24561403508772","720","410","","","","","","","",""
"654","arrowleft","psychophysics","108","450645","0.0-3.0-0.52","","key","arrowleft","16.615384615384617","720","410","53","2","-1","25","15","25","35","true"
"null","null","psychophysics","109","451647","0.0-3.0-1.52","","key","null","16.677966101694917","720","410","","","","","","","",""
"583.0000000000582","arrowright","psychophysics","110","452238","0.0-3.0-0.53","","key","arrowright","16.685714285714287","720","410","54","2","-1","23","35","25","35","false"
"null","null","psychophysics","111","453240","0.0-3.0-1.53","","key","null","16.661016949152543","720","410","","","","","","","",""
"607","arrowleft","psychophysics","112","453850","0.0-3.0-0.54","","key","arrowleft","16.694444444444443","720","410","55","2","-1","26","35","25","35","true"
"null","null","psychophysics","113","454851","0.0-3.0-1.54","","key","null","16.661016949152543","720","410","","","","","","","",""
"959","arrowright","psychophysics","114","455812","0.0-3.0-0.55","","key","arrowright","16.678571428571427","720","410","56","3","-1","26","35","25","35","false"
"null","null","psychophysics","115","456815","0.0-3.0-1.55","","key","null","16.65","720","410","","","","","","","",""
"1352"," ","html-keyboard-response","116","458168","0.0-3.0-2.55-0.55","<div style=""color: white; text-align: center; vertical-align: top; display: inline-block; width: 800px; margin: auto""><p>You have completed 20% of the trials. You are on block 3 of 10. <br>Good job! Take a break if you need to.</p><p>Press any key to continue the experiment.</p></div>","","","","","","","","","","","","",""
"732","arrowright","psychophysics","117","459902","0.0-3.0-0.56","","key","arrowright","16.69047619047619","720","410","57","3","-1","20","35","25","35","false"
"null","null","psychophysics","118","460903","0.0-3.0-1.56","","key","null","16.661016949152543","720","410","","","","","","","",""
"503","arrowright","psychophysics","119","461409","0.0-3.0-0.57","","key","arrowright","16.689655172413794","720","410","58","3","-1","23","35","25","35","false"
"null","null","psychophysics","120","462414","0.0-3.0-1.57","","key","null","16.65","720","410","","","","","","","",""
"576","arrowleft","psychophysics","121","462993","0.0-3.0-0.58","","key","arrowleft","16.636363636363637","720","410","59","3","1","27","15","25","35","false"
"null","null","psychophysics","122","463994","0.0-3.0-1.58","","key","null","16.661016949152543","720","410","","","","","","","",""
"473","arrowright","psychophysics","123","464470","0.0-3.0-0.59","","key","arrowright","16.678571428571427","720","410","60","3","-1","23","35","25","35","false"
"null","null","psychophysics","124","465473","0.0-3.0-1.59","","key","null","16.661016949152543","720","410","","","","","","","",""
"568","arrowright","psychophysics","125","466042","0.0-3.0-0.60","","key","arrowright","16.666666666666668","720","410","61","3","1","25","15","25","35","true"
"null","null","psychophysics","126","467044","0.0-3.0-1.60","","key","null","16.661016949152543","720","410","","","","","","","",""
"673","arrowright","psychophysics","127","467720","0.0-3.0-0.61","","key","arrowright","16.675","720","410","62","3","1","30","15","25","35","true"
"null","null","psychophysics","128","468721","0.0-3.0-1.61","","key","null","16.661016949152543","720","410","","","","","","","",""
"579","arrowleft","psychophysics","129","469304","0.0-3.0-0.62","","key","arrowleft","16.647058823529413","720","410","63","3","-1","26","35","25","35","true"
"null","null","psychophysics","130","470305","0.0-3.0-1.62","","key","null","16.661016949152543","720","410","","","","","","","",""
"538.0000000000582","arrowright","psychophysics","131","470846","0.0-3.0-0.63","","key","arrowright","16.677419354838708","720","410","64","3","-1","25","35","25","35","false"
"null","null","psychophysics","132","471847","0.0-3.0-1.63","","key","null","16.661016949152543","720","410","","","","","","","",""
"868.9999999999418","arrowright","psychophysics","133","472727","0.0-3.0-0.64","","key","arrowright","16.615384615384617","720","410","65","3","1","23","15","25","35","true"
"null","null","psychophysics","134","473732","0.0-3.0-1.64","","key","null","16.65","720","410","","","","","","","",""
"708","arrowleft","psychophysics","135","474443","0.0-3.0-0.65","","key","arrowleft","16.70731707317073","720","410","66","3","-1","24","15","25","35","true"
"null","null","psychophysics","136","475445","0.0-3.0-1.65","","key","null","16.661016949152543","720","410","","","","","","","",""
"929.9999999999418","arrowleft","psychophysics","137","476377","0.0-3.0-0.66","","key","arrowleft","16.672727272727272","720","410","67","3","-1","26","35","25","35","true"
"null","null","psychophysics","138","477378","0.0-3.0-1.66","","key","null","16.677966101694917","720","410","","","","","","","",""
"982.0000000000582","arrowright","psychophysics","139","478363","0.0-3.0-0.67","","key","arrowright","16.655172413793103","720","410","68","3","1","25","35","25","35","true"
"null","null","psychophysics","140","479367","0.0-3.0-1.67","","key","null","16.616666666666667","720","410","","","","","","","",""
"567.9999999999418","arrowright","psychophysics","141","479937","0.0-3.0-0.68","","key","arrowright","16.636363636363637","720","410","69","3","-1","20","35","25","35","false"
"null","null","psychophysics","142","480938","0.0-3.0-1.68","","key","null","16.694915254237287","720","410","","","","","","","",""
"584","arrowleft","psychophysics","143","481525","0.0-3.0-0.69","","key","arrowleft","16.647058823529413","720","410","70","3","-1","26","15","25","35","true"
"null","null","psychophysics","144","482526","0.0-3.0-1.69","","key","null","16.64406779661017","720","410","","","","","","","",""
"1062","arrowleft","psychophysics","145","483591","0.0-3.0-0.70","","key","arrowleft","16.6984126984127","720","410","71","3","1","23","35","25","35","false"
"null","null","psychophysics","146","484593","0.0-3.0-1.70","","key","null","16.694915254237287","720","410","","","","","","","",""
"1129.0000000000582","arrowleft","psychophysics","147","485726","0.0-3.0-0.71","","key","arrowleft","16.671641791044777","720","410","72","3","-1","24","15","25","35","true"
"null","null","psychophysics","148","486728","0.0-3.0-1.71","","key","null","16.677966101694917","720","410","","","","","","","",""
"474","arrowright","psychophysics","149","487203","0.0-3.0-0.72","","key","arrowright","16.678571428571427","720","410","73","3","1","24","15","25","35","true"
"null","null","psychophysics","150","488206","0.0-3.0-1.72","","key","null","16.661016949152543","720","410","","","","","","","",""
"637","arrowleft","psychophysics","151","488846","0.0-3.0-0.73","","key","arrowleft","16.675675675675677","720","410","74","3","-1","27","15","25","35","true"
"null","null","psychophysics","152","489848","0.0-3.0-1.73","","key","null","16.65","720","410","","","","","","","",""
"663","arrowright","psychophysics","153","490513","0.0-3.0-0.74","","key","arrowright","16.68421052631579","720","410","75","3","1","23","15","25","35","true"
"null","null","psychophysics","154","491517","0.0-3.0-1.74","","key","null","16.583333333333332","720","410","","","","","","","",""
"1014","arrowright","psychophysics","155","492533","0.0-3.0-0.75","","key","arrowright","16.616666666666667","720","410","76","3","1","27","35","25","35","true"
"null","null","psychophysics","156","493536","0.0-3.0-1.75","","key","null","16.661016949152543","720","410","","","","","","","",""
"527.0000000000582","arrowleft","psychophysics","157","494065","0.0-3.0-0.76","","key","arrowleft","16.633333333333333","720","410","77","3","1","20","15","25","35","false"
"null","null","psychophysics","158","495066","0.0-3.0-1.76","","key","null","16.616666666666667","720","410","","","","","","","",""
"819.0000000000582","arrowleft","psychophysics","159","495887","0.0-3.0-0.77","","key","arrowleft","16.708333333333332","720","410","78","3","-1","27","15","25","35","true"
"null","null","psychophysics","160","496888","0.0-3.0-1.77","","key","null","16.661016949152543","720","410","","","","","","","",""
"1439","arrowleft","psychophysics","161","498332","0.0-3.0-0.78","","key","arrowleft","16.651162790697676","720","410","79","3","-1","27","35","25","35","true"
"null","null","psychophysics","162","499333","0.0-3.0-1.78","","key","null","17.24561403508772","720","410","","","","","","","",""
"814","arrowright","psychophysics","163","500150","0.0-3.0-0.79","","key","arrowright","16.659574468085108","720","410","80","3","1","27","15","25","35","true"
"null","null","psychophysics","164","501152","0.0-3.0-1.79","","key","null","16.583333333333332","720","410","","","","","","","",""
"710","arrowleft","psychophysics","165","501865","0.0-3.0-0.80","","key","arrowleft","16.634146341463413","720","410","81","3","-1","30","15","25","35","true"
"null","null","psychophysics","166","502866","0.0-3.0-1.80","","key","null","16.616666666666667","720","410","","","","","","","",""
"889","arrowleft","psychophysics","167","503761","0.0-3.0-0.81","","key","arrowleft","16.653846153846153","720","410","82","3","-1","30","15","25","35","true"
"null","null","psychophysics","168","504763","0.0-3.0-1.81","","key","null","16.677966101694917","720","410","","","","","","","",""
"2364","arrowleft","psychophysics","169","507129","0.0-3.0-0.82","","key","arrowleft","16.652482269503547","720","410","83","3","1","23","35","25","35","false"
"null","null","psychophysics","170","508132","0.0-3.0-1.82","","key","null","16.666666666666668","720","410","","","","","","","",""
"3435.9999999998836","arrowright","psychophysics","171","511573","0.0-3.0-0.83","","key","arrowright","16.58048780487805","720","410","84","4","1","23","15","25","35","true"
"null","null","psychophysics","172","512578","0.0-3.0-1.83","","key","null","16.661016949152543","720","410","","","","","","","",""
"1611.9999999999418"," ","html-keyboard-response","173","514191","0.0-3.0-2.83-0.83","<div style=""color: white; text-align: center; vertical-align: top; display: inline-block; width: 800px; margin: auto""><p>You have completed 30% of the trials. You are on block 4 of 10. <br>Good job! Take a break if you need to.</p><p>Press any key to continue the experiment.</p></div>","","","","","","","","","","","","",""
"874.0000000000582","arrowright","psychophysics","174","516074","0.0-3.0-0.84","","key","arrowright","16.647058823529413","720","410","85","4","-1","20","15","25","35","false"
"null","null","psychophysics","175","517076","0.0-3.0-1.84","","key","null","16.661016949152543","720","410","","","","","","","",""
"554.9999999999418","arrowleft","psychophysics","176","517633","0.0-3.0-0.85","","key","arrowleft","16.696969696969695","720","410","86","4","-1","25","35","25","35","true"
"null","null","psychophysics","177","518636","0.0-3.0-1.85","","key","null","16.677966101694917","720","410","","","","","","","",""
"732","arrowright","psychophysics","178","519370","0.0-3.0-0.86","","key","arrowright","16.697674418604652","720","410","87","4","1","23","15","25","35","true"
"null","null","psychophysics","179","520373","0.0-3.0-1.86","","key","null","16.661016949152543","720","410","","","","","","","",""
"1011.0000000000582","arrowleft","psychophysics","180","521386","0.0-3.0-0.87","","key","arrowleft","16.683333333333334","720","410","88","4","-1","26","35","25","35","true"
"null","null","psychophysics","181","522388","0.0-3.0-1.87","","key","null","16.677966101694917","720","410","","","","","","","",""
"1015.9999999999418","arrowleft","psychophysics","182","523407","0.0-3.0-0.88","","key","arrowleft","16.666666666666668","720","410","89","4","1","24","35","25","35","false"
"null","null","psychophysics","183","524410","0.0-3.0-1.88","","key","null","16.627118644067796","720","410","","","","","","","",""
"524","arrowright","psychophysics","184","524936","0.0-3.0-0.89","","key","arrowright","16.774193548387096","720","410","90","4","1","30","35","25","35","true"
"null","null","psychophysics","185","525938","0.0-3.0-1.89","","key","null","16.677966101694917","720","410","","","","","","","",""
"1305","arrowleft","psychophysics","186","527246","0.0-3.0-0.90","","key","arrowleft","16.675324675324674","720","410","91","4","1","24","35","25","35","false"
"null","null","psychophysics","187","528248","0.0-3.0-1.90","","key","null","16.616666666666667","720","410","","","","","","","",""
"670","arrowright","psychophysics","188","528920","0.0-3.0-0.91","","key","arrowright","16.743589743589745","720","410","92","4","1","27","15","25","35","true"
"null","null","psychophysics","189","529925","0.0-3.0-1.91","","key","null","16.677966101694917","720","410","","","","","","","",""
"1014","arrowright","psychophysics","190","530941","0.0-3.0-0.92","","key","arrowright","16.666666666666668","720","410","93","4","-1","20","15","25","35","false"
"null","null","psychophysics","191","531942","0.0-3.0-1.92","","key","null","16.661016949152543","720","410","","","","","","","",""
"563","arrowleft","psychophysics","192","532508","0.0-3.0-0.93","","key","arrowleft","16.666666666666668","720","410","94","4","-1","30","15","25","35","true"
"null","null","psychophysics","193","533509","0.0-3.0-1.93","","key","null","16.64406779661017","720","410","","","","","","","",""
"559","arrowleft","psychophysics","194","534070","0.0-3.0-0.94","","key","arrowleft","16.636363636363637","720","410","95","4","-1","26","15","25","35","true"
"null","null","psychophysics","195","535074","0.0-3.0-1.94","","key","null","16.661016949152543","720","410","","","","","","","",""
"1067.9999999998836","arrowleft","psychophysics","196","536146","0.0-3.0-0.95","","key","arrowleft","16.634920634920636","720","410","96","4","1","24","35","25","35","false"
"null","null","psychophysics","197","537148","0.0-3.0-1.95","","key","null","16.633333333333333","720","410","","","","","","","",""
"551","arrowright","psychophysics","198","537704","0.0-3.0-0.96","","key","arrowright","16.71875","720","410","97","4","-1","24","15","25","35","false"
"null","null","psychophysics","199","538706","0.0-3.0-1.96","","key","null","16.661016949152543","720","410","","","","","","","",""
"592.9999999998836","arrowright","psychophysics","200","539302","0.0-3.0-0.97","","key","arrowright","16.742857142857144","720","410","98","4","1","26","15","25","35","true"
"null","null","psychophysics","201","540303","0.0-3.0-1.97","","key","null","16.677966101694917","720","410","","","","","","","",""
"679","arrowleft","psychophysics","202","540985","0.0-3.0-0.98","","key","arrowleft","16.675","720","410","99","4","1","23","35","25","35","false"
"null","null","psychophysics","203","541991","0.0-3.0-1.98","","key","null","16.661016949152543","720","410","","","","","","","",""
"527","arrowright","psychophysics","204","542520","0.0-3.0-0.99","","key","arrowright","16.677419354838708","720","410","100","4","1","23","35","25","35","true"
"null","null","psychophysics","205","543521","0.0-3.0-1.99","","key","null","16.677966101694917","720","410","","","","","","","",""
"645","arrowleft","psychophysics","206","544168","0.0-3.0-0.100","","key","arrowleft","16.68421052631579","720","410","101","4","-1","23","15","25","35","true"
"null","null","psychophysics","207","545170","0.0-3.0-1.100","","key","null","16.661016949152543","720","410","","","","","","","",""
"533","arrowright","psychophysics","208","545706","0.0-3.0-0.101","","key","arrowright","16.677419354838708","720","410","102","4","1","30","15","25","35","true"
"null","null","psychophysics","209","546708","0.0-3.0-1.101","","key","null","16.64406779661017","720","410","","","","","","","",""
"596","arrowright","psychophysics","210","547309","0.0-3.0-0.102","","key","arrowright","16.6","720","410","103","4","1","30","35","25","35","true"
"null","null","psychophysics","211","548311","0.0-3.0-1.102","","key","null","16.64406779661017","720","410","","","","","","","",""
"614","arrowleft","psychophysics","212","548927","0.0-3.0-0.103","","key","arrowleft","16.666666666666668","720","410","104","4","-1","27","35","25","35","true"
"null","null","psychophysics","213","549928","0.0-3.0-1.103","","key","null","16.64406779661017","720","410","","","","","","","",""
"565.9999999998836","arrowleft","psychophysics","214","550495","0.0-3.0-0.104","","key","arrowleft","16.636363636363637","720","410","105","4","-1","27","15","25","35","true"
"null","null","psychophysics","215","551496","0.0-3.0-1.104","","key","null","16.677966101694917","720","410","","","","","","","",""
"557","arrowright","psychophysics","216","552056","0.0-3.0-0.105","","key","arrowright","16.545454545454547","720","410","106","4","1","26","15","25","35","true"
"null","null","psychophysics","217","553058","0.0-3.0-1.105","","key","null","16.661016949152543","720","410","","","","","","","",""
"1849","arrowleft","psychophysics","218","554919","0.0-3.0-0.106","","key","arrowleft","16.666666666666668","720","410","107","4","1","26","35","25","35","false"
"null","null","psychophysics","219","555920","0.0-3.0-1.106","","key","null","16.661016949152543","720","410","","","","","","","",""
"1259","arrowleft","psychophysics","220","557187","0.0-3.0-0.107","","key","arrowleft","16.69333333333333","720","410","108","4","-1","27","35","25","35","true"
"null","null","psychophysics","221","558188","0.0-3.0-1.107","","key","null","16.677966101694917","720","410","","","","","","","",""
"478","arrowright","psychophysics","222","558668","0.0-3.0-0.108","","key","arrowright","16.678571428571427","720","410","109","4","1","25","35","25","35","true"
"null","null","psychophysics","223","559674","0.0-3.0-1.108","","key","null","16.677966101694917","720","410","","","","","","","",""
"1577","arrowright","psychophysics","224","561254","0.0-3.0-0.109","","key","arrowright","16.680851063829788","720","410","110","4","-1","23","15","25","35","false"
"null","null","psychophysics","225","562256","0.0-3.0-1.109","","key","null","16.610169491525422","720","410","","","","","","","",""
"2451","arrowright","psychophysics","226","564709","0.0-3.0-0.110","","key","arrowright","16.67808219178082","720","410","111","4","1","30","15","25","35","true"
"null","null","psychophysics","227","565713","0.0-3.0-1.110","","key","null","16.677966101694917","720","410","","","","","","","",""
"783","arrowleft","psychophysics","228","566499","0.0-3.0-0.111","","key","arrowleft","16.608695652173914","720","410","112","5","-1","25","15","25","35","true"
"null","null","psychophysics","229","567501","0.0-3.0-1.111","","key","null","16.616666666666667","720","410","","","","","","","",""
"15865.999999999884"," ","html-keyboard-response","230","583368","0.0-3.0-2.111-0.111","<div style=""color: white; text-align: center; vertical-align: top; display: inline-block; width: 800px; margin: auto""><p>You have completed 40% of the trials. You are on block 5 of 10. <br>Good job! Take a break if you need to.</p><p>Press any key to continue the experiment.</p></div>","","","","","","","","","","","","",""
"950","arrowright","psychophysics","231","585330","0.0-3.0-0.112","","key","arrowright","17.903846153846153","720","410","113","5","1","27","15","25","35","true"
"null","null","psychophysics","232","586331","0.0-3.0-1.112","","key","null","16.633333333333333","720","410","","","","","","","",""
"3480.9999999998836","arrowleft","psychophysics","233","589815","0.0-3.0-0.113","","key","arrowleft","16.66826923076923","720","410","114","5","1","20","15","25","35","false"
"null","null","psychophysics","234","590819","0.0-3.0-1.113","","key","null","16.677966101694917","720","410","","","","","","","",""
"773","arrowright","psychophysics","235","591595","0.0-3.0-0.114","","key","arrowright","16.88888888888889","720","410","115","5","1","26","35","25","35","true"
"null","null","psychophysics","236","592596","0.0-3.0-1.114","","key","null","16.677966101694917","720","410","","","","","","","",""
"628","arrowleft","psychophysics","237","593227","0.0-3.0-0.115","","key","arrowleft","16.594594594594593","720","410","116","5","1","24","35","25","35","false"
"null","null","psychophysics","238","594229","0.0-3.0-1.115","","key","null","16.694915254237287","720","410","","","","","","","",""
"586","arrowright","psychophysics","239","594818","0.0-3.0-0.116","","key","arrowright","16.571428571428573","720","410","117","5","-1","23","35","25","35","false"
"null","null","psychophysics","240","595821","0.0-3.0-1.116","","key","null","16.677966101694917","720","410","","","","","","","",""
"3964","arrowleft","psychophysics","241","599791","0.0-3.0-0.117","","key","arrowleft","16.666666666666668","720","410","118","5","1","24","35","25","35","false"
"null","null","psychophysics","242","600792","0.0-3.0-1.117","","key","null","16.661016949152543","720","410","","","","","","","",""
"716","arrowleft","psychophysics","243","601511","0.0-3.0-0.118","","key","arrowleft","16.666666666666668","720","410","119","5","-1","23","15","25","35","true"
"null","null","psychophysics","244","602516","0.0-3.0-1.118","","key","null","16.616666666666667","720","410","","","","","","","",""
"925","arrowright","psychophysics","245","603443","0.0-3.0-0.119","","key","arrowright","16.666666666666668","720","410","120","5","1","30","15","25","35","true"
"null","null","psychophysics","246","604445","0.0-3.0-1.119","","key","null","16.661016949152543","720","410","","","","","","","",""
"679","arrowleft","psychophysics","247","605126","0.0-3.0-0.120","","key","arrowleft","16.65","720","410","121","5","1","23","35","25","35","false"
"null","null","psychophysics","248","606128","0.0-3.0-1.120","","key","null","16.661016949152543","720","410","","","","","","","",""
"583","arrowleft","psychophysics","249","606713","0.0-3.0-0.121","","key","arrowleft","16.647058823529413","720","410","122","5","-1","26","35","25","35","true"
"null","null","psychophysics","250","607715","0.0-3.0-1.121","","key","null","16.65","720","410","","","","","","","",""
"619","arrowleft","psychophysics","251","608339","0.0-3.0-0.122","","key","arrowleft","16.666666666666668","720","410","123","5","1","20","35","25","35","false"
"null","null","psychophysics","252","609341","0.0-3.0-1.122","","key","null","16.661016949152543","720","410","","","","","","","",""
"509","arrowleft","psychophysics","253","609852","0.0-3.0-0.123","","key","arrowleft","16.633333333333333","720","410","124","5","1","23","15","25","35","false"
"null","null","psychophysics","254","610854","0.0-3.0-1.123","","key","null","16.661016949152543","720","410","","","","","","","",""
"508","arrowright","psychophysics","255","611364","0.0-3.0-0.124","","key","arrowright","16.655172413793103","720","410","125","5","-1","25","15","25","35","false"
"null","null","psychophysics","256","612365","0.0-3.0-1.124","","key","null","16.65","720","410","","","","","","","",""
"929","arrowleft","psychophysics","257","613297","0.0-3.0-0.125","","key","arrowleft","16.666666666666668","720","410","126","5","-1","30","35","25","35","true"
"null","null","psychophysics","258","614302","0.0-3.0-1.125","","key","null","16.6","720","410","","","","","","","",""
"706","arrowright","psychophysics","259","615011","0.0-3.0-0.126","","key","arrowright","16.658536585365855","720","410","127","5","1","25","35","25","35","true"
"null","null","psychophysics","260","616013","0.0-3.0-1.126","","key","null","16.677966101694917","720","410","","","","","","","",""
"590","arrowright","psychophysics","261","616611","0.0-3.0-0.127","","key","arrowright","16.62857142857143","720","410","128","5","-1","23","35","25","35","false"
"null","null","psychophysics","262","617613","0.0-3.0-1.127","","key","null","16.677966101694917","720","410","","","","","","","",""
"1466","arrowright","psychophysics","263","619086","0.0-3.0-0.128","","key","arrowright","16.670454545454547","720","410","129","5","-1","20","15","25","35","false"
"null","null","psychophysics","264","620091","0.0-3.0-1.128","","key","null","16.677966101694917","720","410","","","","","","","",""
"949","arrowleft","psychophysics","265","621043","0.0-3.0-0.129","","key","arrowleft","16.642857142857142","720","410","130","5","-1","27","35","25","35","true"
"null","null","psychophysics","266","622044","0.0-3.0-1.129","","key","null","16.661016949152543","720","410","","","","","","","",""
"2259.0000000001164","arrowleft","psychophysics","267","624305","0.0-3.0-0.130","","key","arrowleft","16.659259259259258","720","410","131","5","-1","27","35","25","35","true"
"null","null","psychophysics","268","625307","0.0-3.0-1.130","","key","null","16.694915254237287","720","410","","","","","","","",""
"553","arrowleft","psychophysics","269","625872","0.0-3.0-0.131","","key","arrowleft","16.666666666666668","720","410","132","5","1","20","15","25","35","false"
"null","null","psychophysics","270","626873","0.0-3.0-1.131","","key","null","16.661016949152543","720","410","","","","","","","",""
"5388","arrowleft","psychophysics","271","632263","0.0-3.0-0.132","","key","arrowleft","16.92744479495268","720","410","133","5","-1","26","35","25","35","true"
"null","null","psychophysics","272","633267","0.0-3.0-1.132","","key","null","16.6","720","410","","","","","","","",""
"7092","arrowleft","psychophysics","273","640362","0.0-3.0-0.133","","key","arrowleft","16.66509433962264","720","410","134","5","1","24","35","25","35","false"
"null","null","psychophysics","274","641366","0.0-3.0-1.133","","key","null","16.6","720","410","","","","","","","",""
"14625","arrowright","psychophysics","275","655994","0.0-3.0-0.134","","key","arrowright","16.666666666666668","720","410","135","5","-1","25","15","25","35","false"
"null","null","psychophysics","276","657000","0.0-3.0-1.134","","key","null","16.65","720","410","","","","","","","",""
"1387.9999999998836","arrowright","psychophysics","277","658391","0.0-3.0-0.135","","key","arrowright","16.670731707317074","720","410","136","5","1","23","15","25","35","true"
"null","null","psychophysics","278","659392","0.0-3.0-1.135","","key","null","16.677966101694917","720","410","","","","","","","",""
"1741","arrowleft","psychophysics","279","661136","0.0-3.0-0.136","","key","arrowleft","16.66346153846154","720","410","137","5","-1","27","35","25","35","true"
"null","null","psychophysics","280","662137","0.0-3.0-1.136","","key","null","16.661016949152543","720","410","","","","","","","",""
"1087","arrowright","psychophysics","281","663230","0.0-3.0-0.137","","key","arrowright","16.640625","720","410","138","5","-1","23","15","25","35","false"
"null","null","psychophysics","282","664232","0.0-3.0-1.137","","key","null","16.633333333333333","720","410","","","","","","","",""
"583","arrowright","psychophysics","283","664818","0.0-3.0-0.138","","key","arrowright","16.647058823529413","720","410","139","5","-1","20","15","25","35","false"
"null","null","psychophysics","284","665819","0.0-3.0-1.138","","key","null","16.64406779661017","720","410","","","","","","","",""
"682","arrowright","psychophysics","285","666504","0.0-3.0-0.139","","key","arrowright","16.8","720","410","140","6","1","30","15","25","35","true"
"null","null","psychophysics","286","667505","0.0-3.0-1.139","","key","null","16.661016949152543","720","410","","","","","","","",""
"23341"," ","html-keyboard-response","287","690848","0.0-3.0-2.139-0.139","<div style=""color: white; text-align: center; vertical-align: top; display: inline-block; width: 800px; margin: auto""><p>You have completed 50% of the trials. You are on block 6 of 10. <br>Good job! Take a break if you need to.</p><p>Press any key to continue the experiment.</p></div>","","","","","","","","","","","","",""
"3532.9999999998836","arrowright","psychophysics","288","695387","0.0-3.0-0.140","","key","arrowright","16.69047619047619","720","410","141","6","-1","23","15","25","35","false"
"null","null","psychophysics","289","696388","0.0-3.0-1.140","","key","null","16.64406779661017","720","410","","","","","","","",""
"867","arrowright","psychophysics","290","697260","0.0-3.0-0.141","","key","arrowright","16.627450980392158","720","410","142","6","-1","27","35","25","35","false"
"null","null","psychophysics","291","698262","0.0-3.0-1.141","","key","null","16.677966101694917","720","410","","","","","","","",""
"597.9999999998836","arrowleft","psychophysics","292","698870","0.0-3.0-0.142","","key","arrowleft","16.72222222222222","720","410","143","6","-1","30","35","25","35","true"
"null","null","psychophysics","293","699872","0.0-3.0-1.142","","key","null","16.677966101694917","720","410","","","","","","","",""
"580","arrowright","psychophysics","294","700454","0.0-3.0-0.143","","key","arrowright","16.676470588235293","720","410","144","6","-1","23","35","25","35","false"
"null","null","psychophysics","295","701457","0.0-3.0-1.143","","key","null","16.677966101694917","720","410","","","","","","","",""
"692","arrowright","psychophysics","296","702152","0.0-3.0-0.144","","key","arrowright","16.73170731707317","720","410","145","6","1","26","35","25","35","true"
"null","null","psychophysics","297","703156","0.0-3.0-1.144","","key","null","16.677966101694917","720","410","","","","","","","",""
"812","arrowleft","psychophysics","298","703970","0.0-3.0-0.145","","key","arrowleft","16.75","720","410","146","6","-1","26","15","25","35","true"
"null","null","psychophysics","299","704972","0.0-3.0-1.145","","key","null","16.64406779661017","720","410","","","","","","","",""
"494","arrowright","psychophysics","300","705467","0.0-3.0-0.146","","key","arrowright","16.75862068965517","720","410","147","6","1","27","15","25","35","true"
"null","null","psychophysics","301","706468","0.0-3.0-1.146","","key","null","16.661016949152543","720","410","","","","","","","",""
"857","arrowright","psychophysics","302","707329","0.0-3.0-0.147","","key","arrowright","16.66","720","410","148","6","1","26","35","25","35","true"
"null","null","psychophysics","303","708331","0.0-3.0-1.147","","key","null","16.633333333333333","720","410","","","","","","","",""
"1300","arrowright","psychophysics","304","709637","0.0-3.0-0.148","","key","arrowright","16.649350649350648","720","410","149","6","-1","24","35","25","35","false"
"null","null","psychophysics","305","710639","0.0-3.0-1.148","","key","null","16.661016949152543","720","410","","","","","","","",""
"516.0000000001164","arrowright","psychophysics","306","711158","0.0-3.0-0.149","","key","arrowright","16.666666666666668","720","410","150","6","-1","20","15","25","35","false"
"null","null","psychophysics","307","712159","0.0-3.0-1.149","","key","null","16.694915254237287","720","410","","","","","","","",""
"2861.0000000001164","arrowleft","psychophysics","308","715022","0.0-3.0-0.150","","key","arrowleft","16.666666666666668","720","410","151","6","-1","23","15","25","35","true"
"null","null","psychophysics","309","716027","0.0-3.0-1.150","","key","null","16.627118644067796","720","410","","","","","","","",""
"621.0000000001164","arrowright","psychophysics","310","716657","0.0-3.0-0.151","","key","arrowright","16.675675675675677","720","410","152","6","1","26","35","25","35","true"
"null","null","psychophysics","311","717659","0.0-3.0-1.151","","key","null","16.71186440677966","720","410","","","","","","","",""
"3066","arrowright","psychophysics","312","720727","0.0-3.0-0.152","","key","arrowright","16.666666666666668","720","410","153","6","1","25","15","25","35","true"
"null","null","psychophysics","313","721732","0.0-3.0-1.152","","key","null","16.616666666666667","720","410","","","","","","","",""
"567","arrowright","psychophysics","314","722301","0.0-3.0-0.153","","key","arrowright","16.757575757575758","720","410","154","6","1","30","35","25","35","true"
"null","null","psychophysics","315","723303","0.0-3.0-1.153","","key","null","16.677966101694917","720","410","","","","","","","",""
"565","arrowright","psychophysics","316","723870","0.0-3.0-0.154","","key","arrowright","16.78787878787879","720","410","155","6","1","30","15","25","35","true"
"null","null","psychophysics","317","724872","0.0-3.0-1.154","","key","null","16.661016949152543","720","410","","","","","","","",""
"7298","arrowright","psychophysics","318","732174","0.0-3.0-0.155","","key","arrowright","16.665903890160184","720","410","156","6","1","23","35","25","35","true"
"null","null","psychophysics","319","733181","0.0-3.0-1.155","","key","null","16.616666666666667","720","410","","","","","","","",""
"737","arrowleft","psychophysics","320","733920","0.0-3.0-0.156","","key","arrowleft","16.627906976744185","720","410","157","6","1","20","15","25","35","false"
"null","null","psychophysics","321","734922","0.0-3.0-1.156","","key","null","16.677966101694917","720","410","","","","","","","",""
"1973","arrowleft","psychophysics","322","736898","0.0-3.0-0.157","","key","arrowleft","16.666666666666668","720","410","158","6","1","20","15","25","35","false"
"null","null","psychophysics","323","737899","0.0-3.0-1.157","","key","null","16.633333333333333","720","410","","","","","","","",""
"554","arrowright","psychophysics","324","738460","0.0-3.0-0.158","","key","arrowright","16.65625","720","410","159","6","-1","25","15","25","35","false"
"null","null","psychophysics","325","739461","0.0-3.0-1.158","","key","null","17.228070175438596","720","410","","","","","","","",""
"1337.0000000001164","arrowleft","psychophysics","326","740802","0.0-3.0-0.159","","key","arrowleft","16.675","720","410","160","6","-1","25","15","25","35","true"
"null","null","psychophysics","327","741804","0.0-3.0-1.159","","key","null","16.677966101694917","720","410","","","","","","","",""
"1077","arrowright","psychophysics","328","742883","0.0-3.0-0.160","","key","arrowright","16.671875","720","410","161","6","-1","24","35","25","35","false"
"null","null","psychophysics","329","743884","0.0-3.0-1.160","","key","null","16.64406779661017","720","410","","","","","","","",""
"698","arrowright","psychophysics","330","744587","0.0-3.0-0.161","","key","arrowright","17.736842105263158","720","410","162","6","-1","24","35","25","35","false"
"null","null","psychophysics","331","745589","0.0-3.0-1.161","","key","null","16.448275862068964","720","410","","","","","","","",""
"701","arrowright","psychophysics","332","746293","0.0-3.0-0.162","","key","arrowright","17.075","720","410","163","6","1","30","15","25","35","true"
"null","null","psychophysics","333","747296","0.0-3.0-1.162","","key","null","16.677966101694917","720","410","","","","","","","",""
"561.0000000001164","arrowleft","psychophysics","334","747861","0.0-3.0-0.163","","key","arrowleft","16.606060606060606","720","410","164","6","1","20","15","25","35","false"
"null","null","psychophysics","335","748863","0.0-3.0-1.163","","key","null","16.661016949152543","720","410","","","","","","","",""
"483","arrowright","psychophysics","336","749352","0.0-3.0-0.164","","key","arrowright","16.620689655172413","720","410","165","6","1","30","35","25","35","true"
"null","null","psychophysics","337","750358","0.0-3.0-1.164","","key","null","16.677966101694917","720","410","","","","","","","",""
"633","arrowleft","psychophysics","338","750994","0.0-3.0-0.165","","key","arrowleft","16.64864864864865","720","410","166","6","-1","24","35","25","35","true"
"null","null","psychophysics","339","751997","0.0-3.0-1.165","","key","null","17.553571428571427","720","410","","","","","","","",""
"608","arrowleft","psychophysics","340","752608","0.0-3.0-0.166","","key","arrowleft","16.444444444444443","720","410","167","6","-1","30","15","25","35","true"
"null","null","psychophysics","341","753610","0.0-3.0-1.166","","key","null","16.661016949152543","720","410","","","","","","","",""
"695","arrowright","psychophysics","342","754308","0.0-3.0-0.167","","key","arrowright","16.658536585365855","720","410","168","7","1","24","15","25","35","true"
"null","null","psychophysics","343","755310","0.0-3.0-1.167","","key","null","16.661016949152543","720","410","","","","","","","",""
"31099","arrowright","html-keyboard-response","344","786414","0.0-3.0-2.167-0.167","<div style=""color: white; text-align: center; vertical-align: top; display: inline-block; width: 800px; margin: auto""><p>You have completed 60% of the trials. You are on block 7 of 10. <br>Good job! Take a break if you need to.</p><p>Press any key to continue the experiment.</p></div>","","","","","","","","","","","","",""
"952","arrowright","psychophysics","345","788371","0.0-3.0-0.168","","key","arrowright","16.660714285714285","720","410","169","7","-1","26","35","25","35","false"
"null","null","psychophysics","346","789376","0.0-3.0-1.168","","key","null","16.677966101694917","720","410","","","","","","","",""
"2215.9999999998836","arrowright","psychophysics","347","791595","0.0-3.0-0.169","","key","arrowright","16.65909090909091","720","410","170","7","-1","25","35","25","35","false"
"null","null","psychophysics","348","792597","0.0-3.0-1.169","","key","null","16.661016949152543","720","410","","","","","","","",""
"790","arrowleft","psychophysics","349","793395","0.0-3.0-0.170","","key","arrowleft","16.638297872340427","720","410","171","7","1","25","35","25","35","false"
"null","null","psychophysics","350","794397","0.0-3.0-1.170","","key","null","16.661016949152543","720","410","","","","","","","",""
"607","arrowleft","psychophysics","351","795017","0.0-3.0-0.171","","key","arrowleft","16.513513513513512","720","410","172","7","-1","30","35","25","35","true"
"null","null","psychophysics","352","796019","0.0-3.0-1.171","","key","null","16.661016949152543","720","410","","","","","","","",""
"586","arrowleft","psychophysics","353","796609","0.0-3.0-0.172","","key","arrowleft","16.676470588235293","720","410","173","7","-1","27","35","25","35","true"
"null","null","psychophysics","354","797610","0.0-3.0-1.172","","key","null","16.677966101694917","720","410","","","","","","","",""
"570.0000000001164","arrowleft","psychophysics","355","798183","0.0-3.0-0.173","","key","arrowleft","16.676470588235293","720","410","174","7","-1","30","35","25","35","true"
"null","null","psychophysics","356","799184","0.0-3.0-1.173","","key","null","16.677966101694917","720","410","","","","","","","",""
"764.0000000001164","arrowright","psychophysics","357","799952","0.0-3.0-0.174","","key","arrowright","16.711111111111112","720","410","175","7","1","23","15","25","35","true"
"null","null","psychophysics","358","800958","0.0-3.0-1.174","","key","null","16.677966101694917","720","410","","","","","","","",""
"517","arrowleft","psychophysics","359","801477","0.0-3.0-0.175","","key","arrowleft","16.633333333333333","720","410","176","7","1","20","35","25","35","false"
"null","null","psychophysics","360","802479","0.0-3.0-1.175","","key","null","16.677966101694917","720","410","","","","","","","",""
"776","arrowright","psychophysics","361","803259","0.0-3.0-0.176","","key","arrowright","16.67391304347826","720","410","177","7","1","26","15","25","35","true"
"null","null","psychophysics","362","804261","0.0-3.0-1.176","","key","null","16.71186440677966","720","410","","","","","","","",""
"562","arrowright","psychophysics","363","804833","0.0-3.0-0.177","","key","arrowright","16.705882352941178","720","410","178","7","1","23","35","25","35","true"
"null","null","psychophysics","364","805834","0.0-3.0-1.177","","key","null","16.661016949152543","720","410","","","","","","","",""
"715","arrowleft","psychophysics","365","806556","0.0-3.0-0.178","","key","arrowleft","16.69047619047619","720","410","179","7","-1","27","35","25","35","true"
"null","null","psychophysics","366","807558","0.0-3.0-1.178","","key","null","16.677966101694917","720","410","","","","","","","",""
"548","arrowright","psychophysics","367","808109","0.0-3.0-0.179","","key","arrowright","16.65625","720","410","180","7","1","25","15","25","35","true"
"null","null","psychophysics","368","809110","0.0-3.0-1.179","","key","null","16.677966101694917","720","410","","","","","","","",""
"503","arrowright","psychophysics","369","809616","0.0-3.0-0.180","","key","arrowright","16.733333333333334","720","410","181","7","1","30","15","25","35","true"
"null","null","psychophysics","370","810617","0.0-3.0-1.180","","key","null","16.677966101694917","720","410","","","","","","","",""
"1214","arrowleft","psychophysics","371","811833","0.0-3.0-0.181","","key","arrowleft","16.666666666666668","720","410","182","7","-1","24","15","25","35","true"
"null","null","psychophysics","372","812838","0.0-3.0-1.181","","key","null","16.661016949152543","720","410","","","","","","","",""
"581","arrowright","psychophysics","373","813421","0.0-3.0-0.182","","key","arrowright","16.61764705882353","720","410","183","7","1","25","15","25","35","true"
"null","null","psychophysics","374","814423","0.0-3.0-1.182","","key","null","16.677966101694917","720","410","","","","","","","",""
"662","arrowright","psychophysics","375","815088","0.0-3.0-0.183","","key","arrowright","16.666666666666668","720","410","184","7","1","27","15","25","35","true"
"null","null","psychophysics","376","816090","0.0-3.0-1.183","","key","null","16.677966101694917","720","410","","","","","","","",""
"607","arrowleft","psychophysics","377","816700","0.0-3.0-0.184","","key","arrowleft","16.72222222222222","720","410","185","7","-1","26","15","25","35","true"
"null","null","psychophysics","378","817702","0.0-3.0-1.184","","key","null","16.677966101694917","720","410","","","","","","","",""
"558","arrowright","psychophysics","379","818267","0.0-3.0-0.185","","key","arrowright","16.727272727272727","720","410","186","7","1","25","35","25","35","true"
"null","null","psychophysics","380","819268","0.0-3.0-1.185","","key","null","16.661016949152543","720","410","","","","","","","",""
"2173","arrowleft","psychophysics","381","821444","0.0-3.0-0.186","","key","arrowleft","16.666666666666668","720","410","187","7","-1","26","35","25","35","true"
"null","null","psychophysics","382","822446","0.0-3.0-1.186","","key","null","16.694915254237287","720","410","","","","","","","",""
"502.0000000001164","arrowright","psychophysics","383","822952","0.0-3.0-0.187","","key","arrowright","16.6","720","410","188","7","1","30","35","25","35","true"
"null","null","psychophysics","384","823954","0.0-3.0-1.187","","key","null","16.694915254237287","720","410","","","","","","","",""
"760.0000000001164","arrowleft","psychophysics","385","824721","0.0-3.0-0.188","","key","arrowleft","16.666666666666668","720","410","189","7","-1","27","15","25","35","true"
"null","null","psychophysics","386","825722","0.0-3.0-1.188","","key","null","16.677966101694917","720","410","","","","","","","",""
"514","arrowright","psychophysics","387","826238","0.0-3.0-0.189","","key","arrowright","16.7","720","410","190","7","1","30","35","25","35","true"
"null","null","psychophysics","388","827240","0.0-3.0-1.189","","key","null","16.661016949152543","720","410","","","","","","","",""
"561","arrowright","psychophysics","389","827804","0.0-3.0-0.190","","key","arrowright","16.666666666666668","720","410","191","7","-1","20","35","25","35","false"
"null","null","psychophysics","390","828805","0.0-3.0-1.190","","key","null","16.677966101694917","720","410","","","","","","","",""
"585.9999999998836","arrowleft","psychophysics","391","829394","0.0-3.0-0.191","","key","arrowleft","16.676470588235293","720","410","192","7","-1","25","35","25","35","true"
"null","null","psychophysics","392","830396","0.0-3.0-1.191","","key","null","16.677966101694917","720","410","","","","","","","",""
"542","arrowleft","psychophysics","393","830945","0.0-3.0-0.192","","key","arrowleft","16.46875","720","410","193","7","1","20","35","25","35","false"
"null","null","psychophysics","394","831946","0.0-3.0-1.192","","key","null","16.661016949152543","720","410","","","","","","","",""
"818","arrowright","psychophysics","395","832767","0.0-3.0-0.193","","key","arrowright","16.612244897959183","720","410","194","7","1","23","15","25","35","true"
"null","null","psychophysics","396","833769","0.0-3.0-1.193","","key","null","16.677966101694917","720","410","","","","","","","",""
"1051","arrowright","psychophysics","397","834823","0.0-3.0-0.194","","key","arrowright","16.693548387096776","720","410","195","7","1","24","35","25","35","true"
"null","null","psychophysics","398","835826","0.0-3.0-1.194","","key","null","16.677966101694917","720","410","","","","","","","",""
"588","arrowright","psychophysics","399","836416","0.0-3.0-0.195","","key","arrowright","16.714285714285715","720","410","196","8","-1","20","35","25","35","false"
"null","null","psychophysics","400","837422","0.0-3.0-1.195","","key","null","16.661016949152543","720","410","","","","","","","",""
"1704.9999999998836","arrowright","html-keyboard-response","401","839128","0.0-3.0-2.195-0.195","<div style=""color: white; text-align: center; vertical-align: top; display: inline-block; width: 800px; margin: auto""><p>You have completed 70% of the trials. You are on block 8 of 10. <br>Good job! Take a break if you need to.</p><p>Press any key to continue the experiment.</p></div>","","","","","","","","","","","","",""
"736","arrowright","psychophysics","402","840868","0.0-3.0-0.196","","key","arrowright","16.651162790697676","720","410","197","8","1","25","15","25","35","true"
"null","null","psychophysics","403","841869","0.0-3.0-1.196","","key","null","16.677966101694917","720","410","","","","","","","",""
"635","arrowleft","psychophysics","404","842507","0.0-3.0-0.197","","key","arrowleft","16.7027027027027","720","410","198","8","-1","24","15","25","35","true"
"null","null","psychophysics","405","843513","0.0-3.0-1.197","","key","null","16.64406779661017","720","410","","","","","","","",""
"734","arrowleft","psychophysics","406","844256","0.0-3.0-0.198","","key","arrowleft","16.59090909090909","720","410","199","8","-1","25","15","25","35","true"
"null","null","psychophysics","407","845258","0.0-3.0-1.198","","key","null","16.694915254237287","720","410","","","","","","","",""
"612","arrowright","psychophysics","408","845873","0.0-3.0-0.199","","key","arrowright","16.694444444444443","720","410","200","8","-1","23","35","25","35","false"
"null","null","psychophysics","409","846875","0.0-3.0-1.199","","key","null","16.661016949152543","720","410","","","","","","","",""
"702","arrowleft","psychophysics","410","847580","0.0-3.0-0.200","","key","arrowleft","16.658536585365855","720","410","201","8","-1","24","15","25","35","true"
"null","null","psychophysics","411","848581","0.0-3.0-1.200","","key","null","16.65","720","410","","","","","","","",""
"500","arrowright","psychophysics","412","849087","0.0-3.0-0.201","","key","arrowright","16.724137931034484","720","410","202","8","1","25","35","25","35","true"
"null","null","psychophysics","413","850089","0.0-3.0-1.201","","key","null","16.627118644067796","720","410","","","","","","","",""
"561","arrowleft","psychophysics","414","850652","0.0-3.0-0.202","","key","arrowleft","16.666666666666668","720","410","203","8","-1","30","15","25","35","true"
"null","null","psychophysics","415","851654","0.0-3.0-1.202","","key","null","16.661016949152543","720","410","","","","","","","",""
"460","arrowright","psychophysics","416","852117","0.0-3.0-0.203","","key","arrowright","16.666666666666668","720","410","204","8","-1","23","15","25","35","false"
"null","null","psychophysics","417","853119","0.0-3.0-1.203","","key","null","16.661016949152543","720","410","","","","","","","",""
"531","arrowright","psychophysics","418","853652","0.0-3.0-0.204","","key","arrowright","20.64","720","410","205","8","-1","20","15","25","35","false"
"null","null","psychophysics","419","854653","0.0-3.0-1.204","","key","null","17.89090909090909","720","410","","","","","","","",""
"606","arrowright","psychophysics","420","855283","0.0-3.0-0.205","","key","arrowright","16.43243243243243","720","410","206","8","1","27","35","25","35","true"
"null","null","psychophysics","421","856284","0.0-3.0-1.205","","key","null","16.677966101694917","720","410","","","","","","","",""
"2480","arrowleft","psychophysics","422","858766","0.0-3.0-0.206","","key","arrowleft","17.741007194244606","720","410","207","8","-1","24","15","25","35","true"
"null","null","psychophysics","423","859767","0.0-3.0-1.206","","key","null","16.677966101694917","720","410","","","","","","","",""
"519","arrowleft","psychophysics","424","860288","0.0-3.0-0.207","","key","arrowleft","16.633333333333333","720","410","208","8","-1","30","15","25","35","true"
"null","null","psychophysics","425","861293","0.0-3.0-1.207","","key","null","16.677966101694917","720","410","","","","","","","",""
"2193","arrowleft","psychophysics","426","863488","0.0-3.0-0.208","","key","arrowleft","17.046875","720","410","209","8","-1","26","35","25","35","true"
"null","null","psychophysics","427","864490","0.0-3.0-1.208","","key","null","16.661016949152543","720","410","","","","","","","",""
"530","arrowright","psychophysics","428","865023","0.0-3.0-0.209","","key","arrowright","16.677419354838708","720","410","210","8","-1","20","15","25","35","false"
"null","null","psychophysics","429","866025","0.0-3.0-1.209","","key","null","16.677966101694917","720","410","","","","","","","",""
"472.0000000001164","arrowleft","psychophysics","430","866505","0.0-3.0-0.210","","key","arrowleft","16.392857142857142","720","410","211","8","-1","30","35","25","35","true"
"null","null","psychophysics","431","867506","0.0-3.0-1.210","","key","null","16.677966101694917","720","410","","","","","","","",""
"570","arrowright","psychophysics","432","868078","0.0-3.0-0.211","","key","arrowright","16.666666666666668","720","410","212","8","1","24","15","25","35","true"
"null","null","psychophysics","433","869081","0.0-3.0-1.211","","key","null","16.633333333333333","720","410","","","","","","","",""
"526","arrowright","psychophysics","434","869609","0.0-3.0-0.212","","key","arrowright","16.733333333333334","720","410","213","8","1","30","35","25","35","true"
"null","null","psychophysics","435","870611","0.0-3.0-1.212","","key","null","16.677966101694917","720","410","","","","","","","",""
"599.0000000001164","arrowleft","psychophysics","436","871212","0.0-3.0-0.213","","key","arrowleft","16.6","720","410","214","8","-1","27","15","25","35","true"
"null","null","psychophysics","437","872213","0.0-3.0-1.213","","key","null","16.661016949152543","720","410","","","","","","","",""
"548","arrowright","psychophysics","438","872767","0.0-3.0-0.214","","key","arrowright","16.393939393939394","720","410","215","8","1","26","15","25","35","true"
"null","null","psychophysics","439","873768","0.0-3.0-1.214","","key","null","16.661016949152543","720","410","","","","","","","",""
"542","arrowleft","psychophysics","440","874315","0.0-3.0-0.215","","key","arrowleft","16.677419354838708","720","410","216","8","1","20","15","25","35","false"
"null","null","psychophysics","441","875316","0.0-3.0-1.215","","key","null","16.583333333333332","720","410","","","","","","","",""
"466.0000000001164","arrowright","psychophysics","442","875785","0.0-3.0-0.216","","key","arrowright","16.666666666666668","720","410","217","8","1","27","35","25","35","true"
"null","null","psychophysics","443","876786","0.0-3.0-1.216","","key","null","16.661016949152543","720","410","","","","","","","",""
"880","arrowleft","psychophysics","444","877669","0.0-3.0-0.217","","key","arrowleft","16.75","720","410","218","8","1","26","35","25","35","false"
"null","null","psychophysics","445","878671","0.0-3.0-1.217","","key","null","16.64406779661017","720","410","","","","","","","",""
"771","arrowleft","psychophysics","446","879450","0.0-3.0-0.218","","key","arrowleft","16.565217391304348","720","410","219","8","-1","26","15","25","35","true"
"null","null","psychophysics","447","880452","0.0-3.0-1.218","","key","null","16.677966101694917","720","410","","","","","","","",""
"892.0000000001164","arrowleft","psychophysics","448","881347","0.0-3.0-0.219","","key","arrowleft","16.673076923076923","720","410","220","8","-1","27","15","25","35","true"
"null","null","psychophysics","449","882351","0.0-3.0-1.219","","key","null","16.633333333333333","720","410","","","","","","","",""
"520","arrowright","psychophysics","450","882874","0.0-3.0-0.220","","key","arrowright","16.666666666666668","720","410","221","8","1","27","35","25","35","true"
"null","null","psychophysics","451","883875","0.0-3.0-1.220","","key","null","16.661016949152543","720","410","","","","","","","",""
"594.0000000001164","arrowleft","psychophysics","452","884471","0.0-3.0-0.221","","key","arrowleft","16.65714285714286","720","410","222","8","1","20","35","25","35","false"
"null","null","psychophysics","453","885477","0.0-3.0-1.221","","key","null","16.64406779661017","720","410","","","","","","","",""
"605","arrowright","psychophysics","454","886084","0.0-3.0-0.222","","key","arrowright","16.72222222222222","720","410","223","8","1","20","15","25","35","true"
"null","null","psychophysics","455","887087","0.0-3.0-1.222","","key","null","16.661016949152543","720","410","","","","","","","",""
"513","arrowright","psychophysics","456","887603","0.0-3.0-0.223","","key","arrowright","16.733333333333334","720","410","224","9","1","26","15","25","35","true"
"null","null","psychophysics","457","888605","0.0-3.0-1.223","","key","null","16.661016949152543","720","410","","","","","","","",""
"755","arrowright","html-keyboard-response","458","889361","0.0-3.0-2.223-0.223","<div style=""color: white; text-align: center; vertical-align: top; display: inline-block; width: 800px; margin: auto""><p>You have completed 80% of the trials. You are on block 9 of 10. <br>Good job! Take a break if you need to.</p><p>Press any key to continue the experiment.</p></div>","","","","","","","","","","","","",""
"393","arrowright","psychophysics","459","890759","0.0-3.0-0.224","","key","arrowright","16.636363636363637","720","410","225","9","-1","20","35","25","35","false"
"null","null","psychophysics","460","891765","0.0-3.0-1.224","","key","null","16.616666666666667","720","410","","","","","","","",""
"618.0000000001164","arrowleft","psychophysics","461","892385","0.0-3.0-0.225","","key","arrowleft","16.666666666666668","720","410","226","9","-1","23","15","25","35","true"
"null","null","psychophysics","462","893386","0.0-3.0-1.225","","key","null","16.661016949152543","720","410","","","","","","","",""
"632","arrowright","psychophysics","463","894021","0.0-3.0-0.226","","key","arrowright","16.64864864864865","720","410","227","9","1","20","15","25","35","true"
"null","null","psychophysics","464","895023","0.0-3.0-1.226","","key","null","16.677966101694917","720","410","","","","","","","",""
"478","arrowright","psychophysics","465","895504","0.0-3.0-0.227","","key","arrowright","16.642857142857142","720","410","228","9","1","30","15","25","35","true"
"null","null","psychophysics","466","896505","0.0-3.0-1.227","","key","null","16.64406779661017","720","410","","","","","","","",""
"1267.0000000001164","arrowright","psychophysics","467","897774","0.0-3.0-0.228","","key","arrowright","16.653333333333332","720","410","229","9","1","27","35","25","35","true"
"null","null","psychophysics","468","898783","0.0-3.0-1.228","","key","null","16.583333333333332","720","410","","","","","","","",""
"1443","arrowright","psychophysics","469","900229","0.0-3.0-0.229","","key","arrowright","16.647058823529413","720","410","230","9","1","25","35","25","35","true"
"null","null","psychophysics","470","901231","0.0-3.0-1.229","","key","null","16.633333333333333","720","410","","","","","","","",""
"496","arrowright","psychophysics","471","901730","0.0-3.0-0.230","","key","arrowright","16.678571428571427","720","410","231","9","1","25","15","25","35","true"
"null","null","psychophysics","472","902732","0.0-3.0-1.230","","key","null","16.633333333333333","720","410","","","","","","","",""
"524","arrowright","psychophysics","473","903259","0.0-3.0-0.231","","key","arrowright","16.733333333333334","720","410","232","9","-1","20","35","25","35","false"
"null","null","psychophysics","474","904260","0.0-3.0-1.231","","key","null","16.677966101694917","720","410","","","","","","","",""
"3133","arrowright","psychophysics","475","907401","0.0-3.0-0.232","","key","arrowright","16.648936170212767","720","410","233","9","1","24","15","25","35","true"
"null","null","psychophysics","476","908403","0.0-3.0-1.232","","key","null","16.661016949152543","720","410","","","","","","","",""
"722","arrowleft","psychophysics","477","909128","0.0-3.0-0.233","","key","arrowleft","16.666666666666668","720","410","234","9","-1","25","15","25","35","true"
"null","null","psychophysics","478","910129","0.0-3.0-1.233","","key","null","16.661016949152543","720","410","","","","","","","",""
"796","arrowleft","psychophysics","479","910940","0.0-3.0-0.234","","key","arrowleft","16.5625","720","410","235","9","-1","26","15","25","35","true"
"null","null","psychophysics","480","911942","0.0-3.0-1.234","","key","null","16.661016949152543","720","410","","","","","","","",""
"500","arrowright","psychophysics","481","912446","0.0-3.0-0.235","","key","arrowright","16.655172413793103","720","410","236","9","1","27","15","25","35","true"
"null","null","psychophysics","482","913451","0.0-3.0-1.235","","key","null","16.633333333333333","720","410","","","","","","","",""
"664","arrowright","psychophysics","483","914117","0.0-3.0-0.236","","key","arrowright","16.692307692307693","720","410","237","9","-1","20","15","25","35","false"
"null","null","psychophysics","484","915120","0.0-3.0-1.236","","key","null","16.677966101694917","720","410","","","","","","","",""
"679","arrowright","psychophysics","485","915801","0.0-3.0-0.237","","key","arrowright","16.7","720","410","238","9","1","25","15","25","35","true"
"null","null","psychophysics","486","916803","0.0-3.0-1.237","","key","null","16.677966101694917","720","410","","","","","","","",""
"3344","arrowright","psychophysics","487","920154","0.0-3.0-0.238","","key","arrowright","16.67","720","410","239","9","1","26","35","25","35","true"
"null","null","psychophysics","488","921156","0.0-3.0-1.238","","key","null","16.71186440677966","720","410","","","","","","","",""
"905","arrowleft","psychophysics","489","922063","0.0-3.0-0.239","","key","arrowleft","16.660377358490567","720","410","240","9","1","23","35","25","35","false"
"null","null","psychophysics","490","923064","0.0-3.0-1.239","","key","null","16.616666666666667","720","410","","","","","","","",""
"919","arrowright","psychophysics","491","923989","0.0-3.0-0.240","","key","arrowright","16.64814814814815","720","410","241","9","1","26","35","25","35","true"
"null","null","psychophysics","492","924993","0.0-3.0-1.240","","key","null","16.661016949152543","720","410","","","","","","","",""
"832","arrowleft","psychophysics","493","925829","0.0-3.0-0.241","","key","arrowleft","16.612244897959183","720","410","242","9","-1","30","35","25","35","true"
"null","null","psychophysics","494","926831","0.0-3.0-1.241","","key","null","16.616666666666667","720","410","","","","","","","",""
"4392","arrowright","psychophysics","495","931225","0.0-3.0-0.242","","key","arrowright","16.66412213740458","720","410","243","9","1","24","35","25","35","true"
"null","null","psychophysics","496","932233","0.0-3.0-1.242","","key","null","16.6","720","410","","","","","","","",""
"1383","arrowleft","psychophysics","497","933619","0.0-3.0-0.243","","key","arrowleft","16.70731707317073","720","410","244","9","-1","27","15","25","35","true"
"null","null","psychophysics","498","934621","0.0-3.0-1.243","","key","null","16.661016949152543","720","410","","","","","","","",""
"633","arrowright","psychophysics","499","935257","0.0-3.0-0.244","","key","arrowright","16.675675675675677","720","410","245","9","-1","25","35","25","35","false"
"null","null","psychophysics","500","936259","0.0-3.0-1.244","","key","null","16.661016949152543","720","410","","","","","","","",""
"5891","arrowleft","psychophysics","501","942153","0.0-3.0-0.245","","key","arrowleft","16.674220963172804","720","410","246","9","-1","26","15","25","35","true"
"null","null","psychophysics","502","943160","0.0-3.0-1.245","","key","null","16.64406779661017","720","410","","","","","","","",""
"540","arrowright","psychophysics","503","943703","0.0-3.0-0.246","","key","arrowright","16.625","720","410","247","9","-1","20","35","25","35","false"
"null","null","psychophysics","504","944705","0.0-3.0-1.246","","key","null","16.71186440677966","720","410","","","","","","","",""
"1743.9999999998836","arrowleft","psychophysics","505","946452","0.0-3.0-0.247","","key","arrowleft","17.207920792079207","720","410","248","9","-1","25","15","25","35","true"
"null","null","psychophysics","506","947454","0.0-3.0-1.247","","key","null","16.694915254237287","720","410","","","","","","","",""
"545","arrowright","psychophysics","507","948002","0.0-3.0-0.248","","key","arrowright","16.71875","720","410","249","9","1","25","35","25","35","true"
"null","null","psychophysics","508","949009","0.0-3.0-1.248","","key","null","16.694915254237287","720","410","","","","","","","",""
"696.0000000001164","arrowright","psychophysics","509","949708","0.0-3.0-0.249","","key","arrowright","16.658536585365855","720","410","250","9","-1","25","35","25","35","false"
"null","null","psychophysics","510","950709","0.0-3.0-1.249","","key","null","16.694915254237287","720","410","","","","","","","",""
"928","arrowright","psychophysics","511","951640","0.0-3.0-0.250","","key","arrowright","16.672727272727272","720","410","251","9","1","24","15","25","35","true"
"null","null","psychophysics","512","952642","0.0-3.0-1.250","","key","null","16.661016949152543","720","410","","","","","","","",""
"657.9999999998836","arrowleft","psychophysics","513","953303","0.0-3.0-0.251","","key","arrowleft","16.692307692307693","720","410","252","10","-1","30","35","25","35","true"
"null","null","psychophysics","514","954305","0.0-3.0-1.251","","key","null","16.677966101694917","720","410","","","","","","","",""
"1168","arrowright","html-keyboard-response","515","955478","0.0-3.0-2.251-0.251","<div style=""color: white; text-align: center; vertical-align: top; display: inline-block; width: 800px; margin: auto""><p>You have completed 90% of the trials. You are on block 10 of 10. <br>Good job! Take a break if you need to.</p><p>Press any key to continue the experiment.</p></div>","","","","","","","","","","","","",""
"633.9999999998836","arrowright","psychophysics","516","957114","0.0-3.0-0.252","","key","arrowright","16.675675675675677","720","410","253","10","1","25","15","25","35","true"
"null","null","psychophysics","517","958115","0.0-3.0-1.252","","key","null","17.24561403508772","720","410","","","","","","","",""
"493","arrowright","psychophysics","518","958610","0.0-3.0-0.253","","key","arrowright","16.655172413793103","720","410","254","10","1","27","35","25","35","true"
"null","null","psychophysics","519","959611","0.0-3.0-1.253","","key","null","16.677966101694917","720","410","","","","","","","",""
"784","arrowright","psychophysics","520","960395","0.0-3.0-0.254","","key","arrowright","16.73913043478261","720","410","255","10","1","26","15","25","35","true"
"null","null","psychophysics","521","961400","0.0-3.0-1.254","","key","null","16.677966101694917","720","410","","","","","","","",""
"505.9999999998836","arrowright","psychophysics","522","961908","0.0-3.0-0.255","","key","arrowright","16.766666666666666","720","410","256","10","1","24","15","25","35","true"
"null","null","psychophysics","523","962908","0.0-3.0-1.255","","key","null","16.661016949152543","720","410","","","","","","","",""
"1575","arrowleft","psychophysics","524","964484","0.0-3.0-0.256","","key","arrowleft","16.666666666666668","720","410","257","10","-1","25","15","25","35","true"
"null","null","psychophysics","525","965486","0.0-3.0-1.256","","key","null","16.593220338983052","720","410","","","","","","","",""
"815","arrowright","psychophysics","526","966312","0.0-3.0-0.257","","key","arrowright","16.571428571428573","720","410","258","10","1","24","35","25","35","true"
"null","null","psychophysics","527","967318","0.0-3.0-1.257","","key","null","16.616666666666667","720","410","","","","","","","",""
"618","arrowright","psychophysics","528","967937","0.0-3.0-0.258","","key","arrowright","16.75","720","410","259","10","1","27","15","25","35","true"
"null","null","psychophysics","529","968938","0.0-3.0-1.258","","key","null","16.64406779661017","720","410","","","","","","","",""
"1287","arrowright","psychophysics","530","970226","0.0-3.0-0.259","","key","arrowright","16.644736842105264","720","410","260","10","1","30","35","25","35","true"
"null","null","psychophysics","531","971227","0.0-3.0-1.259","","key","null","16.694915254237287","720","410","","","","","","","",""
"1120.9999999998836","arrowright","psychophysics","532","972355","0.0-3.0-0.260","","key","arrowright","16.671641791044777","720","410","261","10","-1","25","35","25","35","false"
"null","null","psychophysics","533","973362","0.0-3.0-1.260","","key","null","16.616666666666667","720","410","","","","","","","",""
"586","arrowleft","psychophysics","534","973952","0.0-3.0-0.261","","key","arrowleft","16.676470588235293","720","410","262","10","-1","27","15","25","35","true"
"null","null","psychophysics","535","974954","0.0-3.0-1.261","","key","null","16.694915254237287","720","410","","","","","","","",""
"613.0000000001164","arrowright","psychophysics","536","975569","0.0-3.0-0.262","","key","arrowright","16.72222222222222","720","410","263","10","1","27","15","25","35","true"
"null","null","psychophysics","537","976571","0.0-3.0-1.262","","key","null","16.677966101694917","720","410","","","","","","","",""
"599","arrowright","psychophysics","538","977173","0.0-3.0-0.263","","key","arrowright","16.65714285714286","720","410","264","10","1","24","35","25","35","true"
"null","null","psychophysics","539","978174","0.0-3.0-1.263","","key","null","16.661016949152543","720","410","","","","","","","",""
"565","arrowleft","psychophysics","540","978752","0.0-3.0-0.264","","key","arrowleft","16.470588235294116","720","410","265","10","-1","30","15","25","35","true"
"null","null","psychophysics","541","979753","0.0-3.0-1.264","","key","null","16.661016949152543","720","410","","","","","","","",""
"464","arrowright","psychophysics","542","980219","0.0-3.0-0.265","","key","arrowright","16.62962962962963","720","410","266","10","1","27","35","25","35","true"
"null","null","psychophysics","543","981222","0.0-3.0-1.265","","key","null","16.661016949152543","720","410","","","","","","","",""
"1485.0000000001164","arrowleft","psychophysics","544","982710","0.0-3.0-0.266","","key","arrowleft","16.662921348314608","720","410","267","10","1","23","35","25","35","false"
"null","null","psychophysics","545","983711","0.0-3.0-1.266","","key","null","16.661016949152543","720","410","","","","","","","",""
"552","arrowright","psychophysics","546","984265","0.0-3.0-0.267","","key","arrowright","16.59375","720","410","268","10","-1","24","35","25","35","false"
"null","null","psychophysics","547","985272","0.0-3.0-1.267","","key","null","16.661016949152543","720","410","","","","","","","",""
"562.9999999998836","arrowright","psychophysics","548","985844","0.0-3.0-0.268","","key","arrowright","16.705882352941178","720","410","269","10","1","26","15","25","35","true"
"null","null","psychophysics","549","986846","0.0-3.0-1.268","","key","null","16.661016949152543","720","410","","","","","","","",""
"536.9999999998836","arrowright","psychophysics","550","987385","0.0-3.0-0.269","","key","arrowright","16.70967741935484","720","410","270","10","-1","24","35","25","35","false"
"null","null","psychophysics","551","988387","0.0-3.0-1.269","","key","null","16.64406779661017","720","410","","","","","","","",""
"545","arrowleft","psychophysics","552","988941","0.0-3.0-0.270","","key","arrowleft","16.666666666666668","720","410","271","10","-1","30","35","25","35","true"
"null","null","psychophysics","553","989945","0.0-3.0-1.270","","key","null","16.677966101694917","720","410","","","","","","","",""
"472.9999999998836","arrowright","psychophysics","554","990426","0.0-3.0-0.271","","key","arrowright","16.642857142857142","720","410","272","10","1","25","15","25","35","true"
"null","null","psychophysics","555","991427","0.0-3.0-1.271","","key","null","16.661016949152543","720","410","","","","","","","",""
"487","arrowright","psychophysics","556","991917","0.0-3.0-0.272","","key","arrowright","16.714285714285715","720","410","273","10","1","30","15","25","35","true"
"null","null","psychophysics","557","992917","0.0-3.0-1.272","","key","null","16.677966101694917","720","410","","","","","","","",""
"574","arrowleft","psychophysics","558","993495","0.0-3.0-0.273","","key","arrowleft","16.647058823529413","720","410","274","10","-1","26","15","25","35","true"
"null","null","psychophysics","559","994496","0.0-3.0-1.273","","key","null","16.661016949152543","720","410","","","","","","","",""
"437","arrowright","psychophysics","560","994935","0.0-3.0-0.274","","key","arrowright","16.64","720","410","275","10","-1","25","35","25","35","false"
"null","null","psychophysics","561","995938","0.0-3.0-1.274","","key","null","16.65","720","410","","","","","","","",""
"473.0000000001164","arrowright","psychophysics","562","996419","0.0-3.0-0.275","","key","arrowright","16.62962962962963","720","410","276","10","1","27","35","25","35","true"
"null","null","psychophysics","563","997424","0.0-3.0-1.275","","key","null","16.616666666666667","720","410","","","","","","","",""
"815","arrowleft","psychophysics","564","998242","0.0-3.0-0.276","","key","arrowleft","16.729166666666668","720","410","277","10","-1","24","15","25","35","true"
"null","null","psychophysics","565","999252","0.0-3.0-1.276","","key","null","16.68421052631579","720","410","","","","","","","",""
"548","arrowright","psychophysics","566","999812","0.0-3.0-0.277","","key","arrowright","16.322580645161292","720","410","278","10","1","24","15","25","35","true"
"null","null","psychophysics","567","1000813","0.0-3.0-1.277","","key","null","16.661016949152543","720","410","","","","","","","",""
"640","arrowright","psychophysics","568","1001455","0.0-3.0-0.278","","key","arrowright","16.64864864864865","720","410","279","10","1","25","15","25","35","true"
"null","null","psychophysics","569","1002457","0.0-3.0-1.278","","key","null","16.583333333333332","720","410","","","","","","","",""
"465.0000000001164","arrowright","psychophysics","570","1002933","0.0-3.0-0.279","","key","arrowright","17.037037037037038","720","410","280","11","1","26","15","25","35","true"
"null","null","psychophysics","571","1003935","0.0-3.0-1.279","","key","null","16.627118644067796","720","410","","","","","","","",""
