"rt","response","trial_type","trial_index","time_elapsed","internal_node_id","stimulus","response_type","key_press","avg_frame_time","center_x","center_y","trial","block","test_pos","test_inner_radius","test_outer_radius","ref_inner_radius","ref_outer_radius","test_bigger"
"31871","{""p_id"":""2064"",""age"":""19"",""handedness"":""right"",""sex"":""female"",""other_sex"":""""}","survey-html-form","0","31874","0.0-0.0","","","","","","","","","","","","","",""
"6892.5999999940395"," ","html-keyboard-response","1","38770","0.0-1.0","<p style=""color: white"">Welcome to the Size Judgment Experiment. <br>There will be 10 blocks in this experiment. <br>There will be 28 trials in each block. <br>You will be given a chance to take a break between blocks. <br>Press any key to start the experiment.</p>","","","","","","","","","","","","",""
"14355.5"," ","psychophysics","2","53142","0.0-2.0","","key"," ","16.66688863109048","960","484.5","","","","","","","",""
"7728.699999988079","arrowleft","psychophysics","3","60884","0.0-3.0-0.0","","key","arrowleft","16.66661853448276","960","484.5","1","1","1","25","35","25","35","false"
"null","null","psychophysics","4","61898","0.0-3.0-1.0","","key","null","16.66666101694913","960","484.5","","","","","","","",""
"2296.300000011921","arrowleft","psychophysics","5","64201","0.0-3.0-0.1","","key","arrowleft","16.666239130434775","960","484.5","2","1","-1","24","15","25","35","true"
"null","null","psychophysics","6","65203","0.0-3.0-1.1","","key","null","16.66671186440683","960","484.5","","","","","","","",""
"4410.5999999940395","arrowright","psychophysics","7","69617","0.0-3.0-0.2","","key","arrowright","16.666564393939385","960","484.5","3","1","1","20","15","25","35","true"
"null","null","psychophysics","8","70630","0.0-3.0-1.2","","key","null","16.666559322033734","960","484.5","","","","","","","",""
"4242.299999982119","arrowleft","psychophysics","9","74878","0.0-3.0-0.3","","key","arrowleft","16.666374015748055","960","484.5","4","1","-1","20","15","25","35","true"
"null","null","psychophysics","10","75880","0.0-3.0-1.3","","key","null","16.666559322033734","960","484.5","","","","","","","",""
"3341.7000000178814","arrowright","psychophysics","11","79229","0.0-3.0-0.4","","key","arrowright","16.666610000000002","960","484.5","5","1","1","26","35","25","35","true"
"null","null","psychophysics","12","80236","0.0-3.0-1.4","","key","null","16.667516666666536","960","484.5","","","","","","","",""
"976.2000000178814","arrowleft","psychophysics","13","81215","0.0-3.0-0.5","","key","arrowleft","16.666789473684428","960","484.5","6","1","-1","26","15","25","35","true"
"null","null","psychophysics","14","82229","0.0-3.0-1.5","","key","null","16.66748333333332","960","484.5","","","","","","","",""
"1485.4000000059605","arrowleft","psychophysics","15","83721","0.0-3.0-0.6","","key","arrowleft","16.667134831460675","960","484.5","7","1","-1","27","35","25","35","true"
"null","null","psychophysics","16","84730","0.0-3.0-1.6","","key","null","16.66708474576259","960","484.5","","","","","","","",""
"2038.800000011921","arrowleft","psychophysics","17","86774","0.0-3.0-0.7","","key","arrowleft","16.666647540983533","960","484.5","8","1","1","23","35","25","35","false"
"null","null","psychophysics","18","87780","0.0-3.0-1.7","","key","null","16.666694915254098","960","484.5","","","","","","","",""
"1054.699999988079","arrowright","psychophysics","19","88841","0.0-3.0-0.8","","key","arrowright","16.667428571428726","960","484.5","9","1","1","26","15","25","35","true"
"null","null","psychophysics","20","89846","0.0-3.0-1.8","","key","null","16.66666101694913","960","484.5","","","","","","","",""
"1548.0999999940395","arrowright","psychophysics","21","91400","0.0-3.0-0.9","","key","arrowright","16.66644086021497","960","484.5","10","1","1","27","35","25","35","true"
"null","null","psychophysics","22","92413","0.0-3.0-1.9","","key","null","16.66655932203398","960","484.5","","","","","","","",""
"763.1999999880791","arrowleft","psychophysics","23","93184","0.0-3.0-0.10","","key","arrowleft","16.666847826087018","960","484.5","11","1","-1","27","15","25","35","true"
"null","null","psychophysics","24","94194","0.0-3.0-1.10","","key","null","16.666576271186585","960","484.5","","","","","","","",""
"823.3999999761581","arrowright","psychophysics","25","95025","0.0-3.0-0.11","","key","arrowright","16.668265306122652","960","484.5","12","1","1","27","15","25","35","true"
"null","null","psychophysics","26","96029","0.0-3.0-1.11","","key","null","16.666593220338946","960","484.5","","","","","","","",""
"1111.2999999821186","arrowleft","psychophysics","27","97147","0.0-3.0-0.12","","key","arrowleft","16.666348484848363","960","484.5","13","1","-1","27","35","25","35","true"
"null","null","psychophysics","28","98160","0.0-3.0-1.12","","key","null","16.6666833333334","960","484.5","","","","","","","",""
"648.3000000119209","arrowright","psychophysics","29","98817","0.0-3.0-0.13","","key","arrowright","16.667871794871573","960","484.5","14","1","1","30","15","25","35","true"
"null","null","psychophysics","30","99829","0.0-3.0-1.13","","key","null","16.667254237287928","960","484.5","","","","","","","",""
"1053.4000000059605","arrowleft","psychophysics","31","100889","0.0-3.0-0.14","","key","arrowleft","16.66665079365073","960","484.5","15","1","-1","24","35","25","35","true"
"null","null","psychophysics","32","101891","0.0-3.0-1.14","","key","null","16.66662711864416","960","484.5","","","","","","","",""
"1142.2999999821186","arrowleft","psychophysics","33","103037","0.0-3.0-0.15","","key","arrowleft","16.66669117647068","960","484.5","16","1","-1","24","35","25","35","true"
"null","null","psychophysics","34","104046","0.0-3.0-1.15","","key","null","16.66657627118634","960","484.5","","","","","","","",""
"1930.2999999821186","arrowright","psychophysics","35","105985","0.0-3.0-0.16","","key","arrowright","16.666077586206892","960","484.5","17","1","-1","20","15","25","35","false"
"null","null","psychophysics","36","106996","0.0-3.0-1.16","","key","null","16.666457627118582","960","484.5","","","","","","","",""
"881.5","arrowleft","psychophysics","37","107884","0.0-3.0-0.17","","key","arrowleft","16.66705660377371","960","484.5","18","1","-1","30","35","25","35","true"
"null","null","psychophysics","38","108896","0.0-3.0-1.17","","key","null","16.666627118643916","960","484.5","","","","","","","",""
"1218.9000000059605","arrowright","psychophysics","39","110121","0.0-3.0-0.18","","key","arrowright","16.666520547945044","960","484.5","19","1","-1","26","35","25","35","false"
"null","null","psychophysics","40","111130","0.0-3.0-1.18","","key","null","16.667423728813507","960","484.5","","","","","","","",""
"931.5999999940395","arrowleft","psychophysics","41","112069","0.0-3.0-0.19","","key","arrowleft","16.66666071428569","960","484.5","20","1","1","20","35","25","35","false"
"null","null","psychophysics","42","113077","0.0-3.0-1.19","","key","null","16.666677966101737","960","484.5","","","","","","","",""
"1066.2999999821186","arrowright","psychophysics","43","114150","0.0-3.0-0.20","","key","arrowright","16.66687500000012","960","484.5","21","1","1","26","15","25","35","true"
"null","null","psychophysics","44","115159","0.0-3.0-1.20","","key","null","16.666610169491555","960","484.5","","","","","","","",""
"1437.0999999940395","arrowright","psychophysics","45","116600","0.0-3.0-0.21","","key","arrowright","16.666674418604682","960","484.5","22","1","-1","23","35","25","35","false"
"null","null","psychophysics","46","117605","0.0-3.0-1.21","","key","null","16.667271186440534","960","484.5","","","","","","","",""
"1142.199999988079","arrowright","psychophysics","47","118751","0.0-3.0-0.22","","key","arrowright","16.666970588235177","960","484.5","23","1","1","25","15","25","35","true"
"null","null","psychophysics","48","119759","0.0-3.0-1.22","","key","null","16.666711864406953","960","484.5","","","","","","","",""
"906.9000000059605","arrowright","psychophysics","49","120668","0.0-3.0-0.23","","key","arrowright","16.666240740740722","960","484.5","24","1","1","25","15","25","35","true"
"null","null","psychophysics","50","121678","0.0-3.0-1.23","","key","null","16.666694915254347","960","484.5","","","","","","","",""
"666.1999999880791","arrowright","psychophysics","51","122350","0.0-3.0-0.24","","key","arrowright","16.66757499999985","960","484.5","25","1","1","26","15","25","35","true"
"null","null","psychophysics","52","123359","0.0-3.0-1.24","","key","null","16.666610169491555","960","484.5","","","","","","","",""
"847","arrowright","psychophysics","53","124209","0.0-3.0-0.25","","key","arrowright","16.666639999999898","960","484.5","26","1","1","25","15","25","35","true"
"null","null","psychophysics","54","125213","0.0-3.0-1.25","","key","null","16.666644067796522","960","484.5","","","","","","","",""
"1706.2999999821186","arrowleft","psychophysics","55","126925","0.0-3.0-0.26","","key","arrowleft","16.666696078431343","960","484.5","27","1","-1","23","15","25","35","true"
"null","null","psychophysics","56","127929","0.0-3.0-1.26","","key","null","16.667322033898355","960","484.5","","","","","","","",""
"1031.7000000178814","arrowright","psychophysics","57","128969","0.0-3.0-0.27","","key","arrowright","16.66656451612911","960","484.5","28","2","-1","20","35","25","35","false"
"null","null","psychophysics","58","129976","0.0-3.0-1.27","","key","null","16.66681355932186","960","484.5","","","","","","","",""
"17300.09999999404"," ","html-keyboard-response","59","147277","0.0-3.0-2.27-0.27","<div style=""color: white; text-align: center; vertical-align: top; display: inline-block; width: 800px; margin: auto""><p>You have completed 10% of the trials. You are on block 2 of 10. <br>Good job! Take a break if you need to.</p><p>Press any key to continue the experiment.</p></div>","","","","","","","","","","","","",""
"1233.5","arrowleft","psychophysics","60","149518","0.0-3.0-0.28","","key","arrowleft","16.6670405405406","960","484.5","29","2","-1","27","35","25","35","true"
"null","null","psychophysics","61","150519","0.0-3.0-1.28","","key","null","16.666457627118582","960","484.5","","","","","","","",""
"1101.9000000059605","arrowleft","psychophysics","62","151624","0.0-3.0-0.29","","key","arrowleft","16.66716923076937","960","484.5","30","2","1","25","35","25","35","false"
"null","null","psychophysics","63","152626","0.0-3.0-1.29","","key","null","16.66625423728828","960","484.5","","","","","","","",""
"753.1999999880791","arrowleft","psychophysics","64","153385","0.0-3.0-0.30","","key","arrowleft","16.66777777777752","960","484.5","31","2","-1","26","15","25","35","true"
"null","null","psychophysics","65","154386","0.0-3.0-1.30","","key","null","16.666932203389617","960","484.5","","","","","","","",""
"2371.300000011921","arrowleft","psychophysics","66","156760","0.0-3.0-0.31","","key","arrowleft","16.666801418439718","960","484.5","32","2","-1","26","15","25","35","true"
"null","null","psychophysics","67","157762","0.0-3.0-1.31","","key","null","16.666694915254098","960","484.5","","","","","","","",""
"2355.699999988079","arrowleft","psychophysics","68","160122","0.0-3.0-0.32","","key","arrowleft","16.666787234042708","960","484.5","33","2","-1","27","35","25","35","true"
"null","null","psychophysics","69","161125","0.0-3.0-1.32","","key","null","16.66735593220308","960","484.5","","","","","","","",""
"2224.5999999940395","arrowleft","psychophysics","70","163353","0.0-3.0-0.33","","key","arrowleft","16.666353383458645","960","484.5","34","2","-1","20","15","25","35","true"
"null","null","psychophysics","71","164355","0.0-3.0-1.33","","key","null","16.66577966101675","960","484.5","","","","","","","",""
"1001.9000000059605","arrowright","psychophysics","72","165361","0.0-3.0-0.34","","key","arrowright","16.66671186440646","960","484.5","35","2","1","30","35","25","35","true"
"null","null","psychophysics","73","166362","0.0-3.0-1.34","","key","null","16.666474576271437","960","484.5","","","","","","","",""
"1736.2999999821186","arrowleft","psychophysics","74","168104","0.0-3.0-0.35","","key","arrowleft","16.66661538461547","960","484.5","36","2","-1","25","35","25","35","true"
"null","null","psychophysics","75","169106","0.0-3.0-1.35","","key","null","16.666694915254098","960","484.5","","","","","","","",""
"1209.0999999940395","arrowright","psychophysics","76","170318","0.0-3.0-0.36","","key","arrowright","16.666638888888784","960","484.5","37","2","-1","20","35","25","35","false"
"null","null","psychophysics","77","171319","0.0-3.0-1.36","","key","null","16.666677966101737","960","484.5","","","","","","","",""
"902.9000000059605","arrowright","psychophysics","78","172224","0.0-3.0-0.37","","key","arrowright","16.666716981132268","960","484.5","38","2","-1","20","35","25","35","false"
"null","null","psychophysics","79","173228","0.0-3.0-1.37","","key","null","16.666661016949377","960","484.5","","","","","","","",""
"1092.4000000059605","arrowleft","psychophysics","80","174325","0.0-3.0-0.38","","key","arrowleft","16.667153846153703","960","484.5","39","2","-1","24","35","25","35","true"
"null","null","psychophysics","81","175326","0.0-3.0-1.38","","key","null","16.666728813559313","960","484.5","","","","","","","",""
"943.3000000119209","arrowleft","psychophysics","82","176272","0.0-3.0-0.39","","key","arrowleft","16.667571428571268","960","484.5","40","2","1","23","35","25","35","false"
"null","null","psychophysics","83","177274","0.0-3.0-1.39","","key","null","16.666830508474465","960","484.5","","","","","","","",""
"4648.700000017881","arrowright","psychophysics","84","181925","0.0-3.0-0.40","","key","arrowright","16.666640287769788","960","484.5","41","2","-1","23","35","25","35","false"
"null","null","psychophysics","85","182929","0.0-3.0-1.40","","key","null","16.66752542372866","960","484.5","","","","","","","",""
"768","arrowleft","psychophysics","86","183701","0.0-3.0-0.41","","key","arrowleft","16.666608695651952","960","484.5","42","2","-1","27","15","25","35","true"
"null","null","psychophysics","87","184703","0.0-3.0-1.41","","key","null","16.666559322033734","960","484.5","","","","","","","",""
"598","arrowleft","psychophysics","88","185304","0.0-3.0-0.42","","key","arrowleft","16.666771428571415","960","484.5","43","2","-1","30","15","25","35","true"
"null","null","psychophysics","89","186305","0.0-3.0-1.42","","key","null","16.66671186440646","960","484.5","","","","","","","",""
"1624.7999999821186","arrowleft","psychophysics","90","187932","0.0-3.0-0.43","","key","arrowleft","16.666505154639307","960","484.5","44","2","1","24","35","25","35","false"
"null","null","psychophysics","91","188936","0.0-3.0-1.43","","key","null","16.66738983050829","960","484.5","","","","","","","",""
"793.6999999880791","arrowleft","psychophysics","92","189732","0.0-3.0-0.44","","key","arrowleft","16.667042553191386","960","484.5","45","2","-1","30","35","25","35","true"
"null","null","psychophysics","93","190735","0.0-3.0-1.44","","key","null","16.666711864406953","960","484.5","","","","","","","",""
"970.3000000119209","arrowleft","psychophysics","94","191708","0.0-3.0-0.45","","key","arrowleft","16.666631578947744","960","484.5","46","2","1","25","35","25","35","false"
"null","null","psychophysics","95","192709","0.0-3.0-1.45","","key","null","16.66676271186453","960","484.5","","","","","","","",""
"942.2000000178814","arrowright","psychophysics","96","193653","0.0-3.0-0.46","","key","arrowright","16.666678571428616","960","484.5","47","2","1","27","15","25","35","true"
"null","null","psychophysics","97","194656","0.0-3.0-1.46","","key","null","16.666576271186585","960","484.5","","","","","","","",""
"1421.300000011921","arrowleft","psychophysics","98","196081","0.0-3.0-0.47","","key","arrowleft","16.66691764705876","960","484.5","48","2","1","24","15","25","35","false"
"null","null","psychophysics","99","197083","0.0-3.0-1.47","","key","null","16.665898305084752","960","484.5","","","","","","","",""
"689.3000000119209","arrowleft","psychophysics","100","197776","0.0-3.0-0.48","","key","arrowleft","16.666649999999937","960","484.5","49","2","-1","30","15","25","35","true"
"null","null","psychophysics","101","198777","0.0-3.0-1.48","","key","null","16.666644067796522","960","484.5","","","","","","","",""
"619.3000000119209","arrowleft","psychophysics","102","199404","0.0-3.0-0.49","","key","arrowleft","16.667972972973665","960","484.5","50","2","-1","30","15","25","35","true"
"null","null","psychophysics","103","200407","0.0-3.0-1.49","","key","null","16.666847457626826","960","484.5","","","","","","","",""
"733.5999999940395","arrowleft","psychophysics","104","201144","0.0-3.0-0.50","","key","arrowleft","16.665604651162433","960","484.5","51","2","-1","30","15","25","35","true"
"null","null","psychophysics","105","202145","0.0-3.0-1.50","","key","null","16.667644067796665","960","484.5","","","","","","","",""
"855.4000000059605","arrowright","psychophysics","106","203008","0.0-3.0-0.51","","key","arrowright","16.666607843137314","960","484.5","52","2","1","26","15","25","35","true"
"null","null","psychophysics","107","204009","0.0-3.0-1.51","","key","null","16.666661016949377","960","484.5","","","","","","","",""
"580.6999999880791","arrowleft","psychophysics","108","204592","0.0-3.0-0.52","","key","arrowleft","16.668441176470985","960","484.5","53","2","-1","30","15","25","35","true"
"null","null","psychophysics","109","205594","0.0-3.0-1.52","","key","null","16.66683050847496","960","484.5","","","","","","","",""
"760.7999999821186","arrowright","psychophysics","110","206365","0.0-3.0-0.53","","key","arrowright","16.66769565217407","960","484.5","54","2","-1","24","35","25","35","false"
"null","null","psychophysics","111","207366","0.0-3.0-1.53","","key","null","16.667135593220415","960","484.5","","","","","","","",""
"1406.300000011921","arrowright","psychophysics","112","208776","0.0-3.0-0.54","","key","arrowright","16.665771084337592","960","484.5","55","2","-1","23","15","25","35","false"
"null","null","psychophysics","113","209778","0.0-3.0-1.54","","key","null","16.66686440677968","960","484.5","","","","","","","",""
"1393.5999999940395","arrowright","psychophysics","114","211176","0.0-3.0-0.55","","key","arrowright","16.66672289156613","960","484.5","56","3","-1","20","15","25","35","false"
"null","null","psychophysics","115","212179","0.0-3.0-1.55","","key","null","16.66662711864416","960","484.5","","","","","","","",""
"23502.59999999404"," ","html-keyboard-response","116","235685","0.0-3.0-2.55-0.55","<div style=""color: white; text-align: center; vertical-align: top; display: inline-block; width: 800px; margin: auto""><p>You have completed 20% of the trials. You are on block 3 of 10. <br>Good job! Take a break if you need to.</p><p>Press any key to continue the experiment.</p></div>","","","","","","","","","","","","",""
"2538.300000011921","arrowleft","psychophysics","117","239236","0.0-3.0-0.56","","key","arrowleft","16.666815789473684","960","484.5","57","3","1","27","35","25","35","false"
"null","null","psychophysics","118","240240","0.0-3.0-1.56","","key","null","16.66735593220308","960","484.5","","","","","","","",""
"1305.699999988079","arrowright","psychophysics","119","241549","0.0-3.0-0.57","","key","arrowright","16.666589743589448","960","484.5","58","3","1","26","15","25","35","true"
"null","null","psychophysics","120","242552","0.0-3.0-1.57","","key","null","16.666694915254098","960","484.5","","","","","","","",""
"862.1000000238419","arrowleft","psychophysics","121","243417","0.0-3.0-0.58","","key","arrowleft","16.66570588235296","960","484.5","59","3","-1","24","15","25","35","true"
"null","null","psychophysics","122","244419","0.0-3.0-1.58","","key","null","16.667457627118722","960","484.5","","","","","","","",""
"1051.5999999940395","arrowleft","psychophysics","123","245476","0.0-3.0-0.59","","key","arrowleft","16.666693548387435","960","484.5","60","3","-1","24","15","25","35","true"
"null","null","psychophysics","124","246480","0.0-3.0-1.59","","key","null","16.66765000000014","960","484.5","","","","","","","",""
"1665.199999988079","arrowleft","psychophysics","125","248150","0.0-3.0-0.60","","key","arrowleft","16.66665656565638","960","484.5","61","3","-1","25","15","25","35","true"
"null","null","psychophysics","126","249151","0.0-3.0-1.60","","key","null","16.666644067797016","960","484.5","","","","","","","",""
"1178.199999988079","arrowright","psychophysics","127","250333","0.0-3.0-0.61","","key","arrowright","16.666542857142797","960","484.5","62","3","1","30","35","25","35","true"
"null","null","psychophysics","128","251335","0.0-3.0-1.61","","key","null","16.6666101694918","960","484.5","","","","","","","",""
"928.8000000119209","arrowleft","psychophysics","129","252268","0.0-3.0-0.62","","key","arrowleft","16.667836363636358","960","484.5","63","3","-1","27","15","25","35","true"
"null","null","psychophysics","130","253270","0.0-3.0-1.62","","key","null","16.666677966101737","960","484.5","","","","","","","",""
"725.3000000119209","arrowright","psychophysics","131","253998","0.0-3.0-0.63","","key","arrowright","16.66599999999947","960","484.5","64","3","1","30","15","25","35","true"
"null","null","psychophysics","132","255000","0.0-3.0-1.63","","key","null","16.66671186440646","960","484.5","","","","","","","",""
"833.1999999880791","arrowleft","psychophysics","133","255836","0.0-3.0-0.64","","key","arrowleft","16.666795918367548","960","484.5","65","3","-1","30","15","25","35","true"
"null","null","psychophysics","134","256838","0.0-3.0-1.64","","key","null","16.667152542372776","960","484.5","","","","","","","",""
"1866.5","arrowleft","psychophysics","135","258709","0.0-3.0-0.65","","key","arrowleft","16.66678378378358","960","484.5","66","3","1","23","35","25","35","false"
"null","null","psychophysics","136","259712","0.0-3.0-1.65","","key","null","16.667406779660652","960","484.5","","","","","","","",""
"1027.9000000059605","arrowright","psychophysics","137","260744","0.0-3.0-0.66","","key","arrowright","16.66668852458977","960","484.5","67","3","-1","20","35","25","35","false"
"null","null","psychophysics","138","261746","0.0-3.0-1.66","","key","null","16.66744067796636","960","484.5","","","","","","","",""
"1327","arrowleft","psychophysics","139","263076","0.0-3.0-0.67","","key","arrowleft","16.666151898734043","960","484.5","68","3","-1","24","15","25","35","true"
"null","null","psychophysics","140","264077","0.0-3.0-1.67","","key","null","16.666728813559313","960","484.5","","","","","","","",""
"970.1999999880791","arrowleft","psychophysics","141","265052","0.0-3.0-0.68","","key","arrowleft","16.667189655172166","960","484.5","69","3","-1","26","15","25","35","true"
"null","null","psychophysics","142","266057","0.0-3.0-1.68","","key","null","16.66662711864416","960","484.5","","","","","","","",""
"1007.0999999940395","arrowright","psychophysics","143","267072","0.0-3.0-0.69","","key","arrowright","16.6669166666669","960","484.5","70","3","1","26","35","25","35","true"
"null","null","psychophysics","144","268074","0.0-3.0-1.69","","key","null","16.66625423728729","960","484.5","","","","","","","",""
"1283.5","arrowleft","psychophysics","145","269361","0.0-3.0-0.70","","key","arrowleft","16.66667105263102","960","484.5","71","3","-1","23","15","25","35","true"
"null","null","psychophysics","146","270362","0.0-3.0-1.70","","key","null","16.667508474575804","960","484.5","","","","","","","",""
"1642.4000000059605","arrowleft","psychophysics","147","272008","0.0-3.0-0.71","","key","arrowleft","16.666744897958743","960","484.5","72","3","-1","30","35","25","35","true"
"null","null","psychophysics","148","273012","0.0-3.0-1.71","","key","null","16.66708474576185","960","484.5","","","","","","","",""
"952.5999999940395","arrowleft","psychophysics","149","273968","0.0-3.0-0.72","","key","arrowleft","16.66571929824555","960","484.5","73","3","-1","26","15","25","35","true"
"null","null","psychophysics","150","274970","0.0-3.0-1.72","","key","null","16.666847457627814","960","484.5","","","","","","","",""
"1176.699999988079","arrowright","psychophysics","151","276148","0.0-3.0-0.73","","key","arrowright","16.66688571428614","960","484.5","74","3","-1","26","35","25","35","false"
"null","null","psychophysics","152","277155","0.0-3.0-1.73","","key","null","16.666711864406953","960","484.5","","","","","","","",""
"1143.300000011921","arrowright","psychophysics","153","278301","0.0-3.0-0.74","","key","arrowright","16.666676470587845","960","484.5","75","3","1","25","35","25","35","true"
"null","null","psychophysics","154","279305","0.0-3.0-1.74","","key","null","16.66552542372887","960","484.5","","","","","","","",""
"1766","arrowright","psychophysics","155","281073","0.0-3.0-0.75","","key","arrowright","16.66660952380958","960","484.5","76","3","1","27","35","25","35","true"
"null","null","psychophysics","156","282075","0.0-3.0-1.75","","key","null","16.66627118644064","960","484.5","","","","","","","",""
"831.5999999940395","arrowright","psychophysics","157","282909","0.0-3.0-0.76","","key","arrowright","16.667244897959325","960","484.5","77","3","-1","23","35","25","35","false"
"null","null","psychophysics","158","283910","0.0-3.0-1.76","","key","null","16.666762711864035","960","484.5","","","","","","","",""
"810.3000000119209","arrowright","psychophysics","159","284728","0.0-3.0-0.77","","key","arrowright","16.667541666666995","960","484.5","78","3","1","30","15","25","35","true"
"null","null","psychophysics","160","285730","0.0-3.0-1.77","","key","null","16.66710000000021","960","484.5","","","","","","","",""
"1314.7999999821186","arrowright","psychophysics","161","287048","0.0-3.0-0.78","","key","arrowright","16.666641025640555","960","484.5","79","3","-1","24","35","25","35","false"
"null","null","psychophysics","162","288052","0.0-3.0-1.78","","key","null","16.666728813559313","960","484.5","","","","","","","",""
"1030.4000000059605","arrowleft","psychophysics","163","289084","0.0-3.0-0.79","","key","arrowleft","16.66659016393461","960","484.5","80","3","-1","24","15","25","35","true"
"null","null","psychophysics","164","290086","0.0-3.0-1.79","","key","null","16.666033898304626","960","484.5","","","","","","","",""
"929.5","arrowleft","psychophysics","165","291020","0.0-3.0-0.80","","key","arrowleft","16.666654545455028","960","484.5","81","3","-1","23","15","25","35","true"
"null","null","psychophysics","166","292022","0.0-3.0-1.80","","key","null","16.667271186440782","960","484.5","","","","","","","",""
"1209.300000011921","arrowright","psychophysics","167","293234","0.0-3.0-0.81","","key","arrowright","16.666624999999637","960","484.5","82","3","-1","26","35","25","35","false"
"null","null","psychophysics","168","294236","0.0-3.0-1.81","","key","null","16.666169491525487","960","484.5","","","","","","","",""
"1563.300000011921","arrowleft","psychophysics","169","295801","0.0-3.0-0.82","","key","arrowleft","16.66663440860187","960","484.5","83","3","1","24","35","25","35","false"
"null","null","psychophysics","170","296806","0.0-3.0-1.82","","key","null","16.66738983050829","960","484.5","","","","","","","",""
"859.5","arrowleft","psychophysics","171","297668","0.0-3.0-0.83","","key","arrowleft","16.666823529411225","960","484.5","84","4","-1","25","15","25","35","true"
"null","null","psychophysics","172","298670","0.0-3.0-1.83","","key","null","16.666779661016395","960","484.5","","","","","","","",""
"20386.40000000596"," ","html-keyboard-response","173","319057","0.0-3.0-2.83-0.83","<div style=""color: white; text-align: center; vertical-align: top; display: inline-block; width: 800px; margin: auto""><p>You have completed 30% of the trials. You are on block 4 of 10. <br>Good job! Take a break if you need to.</p><p>Press any key to continue the experiment.</p></div>","","","","","","","","","","","","",""
"976.4000000059605","arrowright","psychophysics","174","321048","0.0-3.0-0.84","","key","arrowright","16.667406779660652","960","484.5","85","4","1","27","15","25","35","true"
"null","null","psychophysics","175","322051","0.0-3.0-1.84","","key","null","16.66581355932196","960","484.5","","","","","","","",""
"1659.699999988079","arrowleft","psychophysics","176","323717","0.0-3.0-0.85","","key","arrowleft","16.66631313131339","960","484.5","86","4","1","26","35","25","35","false"
"null","null","psychophysics","177","324719","0.0-3.0-1.85","","key","null","16.66623728813493","960","484.5","","","","","","","",""
"987.3000000119209","arrowright","psychophysics","178","325712","0.0-3.0-0.86","","key","arrowright","16.667482758620313","960","484.5","87","4","1","25","15","25","35","true"
"null","null","psychophysics","179","326714","0.0-3.0-1.86","","key","null","16.6670166666668","960","484.5","","","","","","","",""
"966.9000000059605","arrowleft","psychophysics","180","327684","0.0-3.0-0.87","","key","arrowleft","16.666666666666668","960","484.5","88","4","1","25","35","25","35","false"
"null","null","psychophysics","181","328691","0.0-3.0-1.87","","key","null","16.664932203390318","960","484.5","","","","","","","",""
"1226","arrowleft","psychophysics","182","329920","0.0-3.0-0.88","","key","arrowleft","16.666452054793897","960","484.5","89","4","-1","20","15","25","35","true"
"null","null","psychophysics","183","330922","0.0-3.0-1.88","","key","null","16.66635593220343","960","484.5","","","","","","","",""
"1769.300000011921","arrowright","psychophysics","184","332697","0.0-3.0-0.89","","key","arrowright","16.666839622641486","960","484.5","90","4","-1","24","35","25","35","false"
"null","null","psychophysics","185","333700","0.0-3.0-1.89","","key","null","16.666644067796522","960","484.5","","","","","","","",""
"1117.4000000059605","arrowright","psychophysics","186","334820","0.0-3.0-0.90","","key","arrowright","16.666393939393334","960","484.5","91","4","-1","20","35","25","35","false"
"null","null","psychophysics","187","335821","0.0-3.0-1.90","","key","null","16.66705084745713","960","484.5","","","","","","","",""
"740.5","arrowleft","psychophysics","188","336565","0.0-3.0-0.91","","key","arrowleft","16.666704545453698","960","484.5","92","4","-1","25","35","25","35","true"
"null","null","psychophysics","189","337571","0.0-3.0-1.91","","key","null","16.666389830509136","960","484.5","","","","","","","",""
"830.3000000119209","arrowleft","psychophysics","190","338404","0.0-3.0-0.92","","key","arrowleft","16.666755102040266","960","484.5","93","4","-1","27","35","25","35","true"
"null","null","psychophysics","191","339405","0.0-3.0-1.92","","key","null","16.667050847458118","960","484.5","","","","","","","",""
"901.2000000178814","arrowleft","psychophysics","192","340308","0.0-3.0-0.93","","key","arrowleft","16.666830188679324","960","484.5","94","4","-1","30","15","25","35","true"
"null","null","psychophysics","193","341310","0.0-3.0-1.93","","key","null","16.666864406780174","960","484.5","","","","","","","",""
"1173.2000000178814","arrowright","psychophysics","194","342488","0.0-3.0-0.94","","key","arrowright","16.66757142857116","960","484.5","95","4","1","27","15","25","35","true"
"null","null","psychophysics","195","343492","0.0-3.0-1.94","","key","null","16.66635593220343","960","484.5","","","","","","","",""
"892.3999999761581","arrowleft","psychophysics","196","344388","0.0-3.0-0.95","","key","arrowleft","16.666773584905247","960","484.5","96","4","1","20","15","25","35","false"
"null","null","psychophysics","197","345390","0.0-3.0-1.95","","key","null","16.66733898305121","960","484.5","","","","","","","",""
"3095.2000000178814","arrowleft","psychophysics","198","348488","0.0-3.0-0.96","","key","arrowleft","16.666648648648422","960","484.5","97","4","1","24","35","25","35","false"
"null","null","psychophysics","199","349492","0.0-3.0-1.96","","key","null","16.667305084745504","960","484.5","","","","","","","",""
"693.4000000059605","arrowright","psychophysics","200","350188","0.0-3.0-0.97","","key","arrowright","16.667170731707124","960","484.5","98","4","1","30","35","25","35","true"
"null","null","psychophysics","201","351190","0.0-3.0-1.97","","key","null","16.666474576270943","960","484.5","","","","","","","",""
"1539.699999988079","arrowright","psychophysics","202","352733","0.0-3.0-0.98","","key","arrowright","16.66657608695665","960","484.5","99","4","1","25","15","25","35","true"
"null","null","psychophysics","203","353734","0.0-3.0-1.98","","key","null","16.667576271186235","960","484.5","","","","","","","",""
"1806.4000000059605","arrowleft","psychophysics","204","355544","0.0-3.0-0.99","","key","arrowleft","16.666542056074288","960","484.5","100","4","1","23","15","25","35","false"
"null","null","psychophysics","205","356550","0.0-3.0-1.99","","key","null","16.667233333333083","960","484.5","","","","","","","",""
"843.8000000119209","arrowleft","psychophysics","206","357397","0.0-3.0-0.100","","key","arrowleft","16.666319999999832","960","484.5","101","4","-1","27","15","25","35","true"
"null","null","psychophysics","207","358399","0.0-3.0-1.100","","key","null","16.666559322033734","960","484.5","","","","","","","",""
"2033.7000000178814","arrowleft","psychophysics","208","360436","0.0-3.0-0.101","","key","arrowleft","16.66664462809909","960","484.5","102","4","-1","23","15","25","35","true"
"null","null","psychophysics","209","361439","0.0-3.0-1.101","","key","null","16.666830508475453","960","484.5","","","","","","","",""
"1114.800000011921","arrowright","psychophysics","210","362560","0.0-3.0-0.102","","key","arrowright","16.667106060605764","960","484.5","103","4","1","27","15","25","35","true"
"null","null","psychophysics","211","363561","0.0-3.0-1.102","","key","null","16.666983050847687","960","484.5","","","","","","","",""
"1251.800000011921","arrowleft","psychophysics","212","364817","0.0-3.0-0.103","","key","arrowleft","16.666880000000045","960","484.5","104","4","1","24","35","25","35","false"
"null","null","psychophysics","213","365819","0.0-3.0-1.103","","key","null","16.66706779661048","960","484.5","","","","","","","",""
"1267.1000000238419","arrowleft","psychophysics","214","367088","0.0-3.0-0.104","","key","arrowleft","16.666746666666587","960","484.5","105","4","1","20","35","25","35","false"
"null","null","psychophysics","215","368090","0.0-3.0-1.104","","key","null","16.66652542372901","960","484.5","","","","","","","",""
"1721","arrowright","psychophysics","216","369824","0.0-3.0-0.105","","key","arrowright","16.66711650485426","960","484.5","106","4","1","30","35","25","35","true"
"null","null","psychophysics","217","370825","0.0-3.0-1.105","","key","null","16.666762711864035","960","484.5","","","","","","","",""
"1199.5999999940395","arrowleft","psychophysics","218","372028","0.0-3.0-0.106","","key","arrowleft","16.66650704225332","960","484.5","107","4","-1","24","15","25","35","true"
"null","null","psychophysics","219","373030","0.0-3.0-1.106","","key","null","16.66736666666693","960","484.5","","","","","","","",""
"1578","arrowleft","psychophysics","220","374612","0.0-3.0-0.107","","key","arrowleft","16.666870967741627","960","484.5","108","4","1","24","35","25","35","false"
"null","null","psychophysics","221","375617","0.0-3.0-1.107","","key","null","16.66738333333342","960","484.5","","","","","","","",""
"1088.800000011921","arrowright","psychophysics","222","376708","0.0-3.0-0.108","","key","arrowright","16.6669218750003","960","484.5","109","4","1","24","15","25","35","true"
"null","null","psychophysics","223","377710","0.0-3.0-1.108","","key","null","16.665440677966078","960","484.5","","","","","","","",""
"1269.9000000059605","arrowleft","psychophysics","224","378984","0.0-3.0-0.109","","key","arrowleft","16.66761842105265","960","484.5","110","4","1","27","35","25","35","false"
"null","null","psychophysics","225","379985","0.0-3.0-1.109","","key","null","16.66738983050829","960","484.5","","","","","","","",""
"1187.2000000178814","arrowleft","psychophysics","226","381176","0.0-3.0-0.110","","key","arrowleft","16.667000000000034","960","484.5","111","4","-1","26","15","25","35","true"
"null","null","psychophysics","227","382183","0.0-3.0-1.110","","key","null","16.66748333333332","960","484.5","","","","","","","",""
"1166.5","arrowleft","psychophysics","228","383352","0.0-3.0-0.111","","key","arrowleft","16.666681159420136","960","484.5","112","5","-1","27","15","25","35","true"
"null","null","psychophysics","229","384354","0.0-3.0-1.111","","key","null","16.66652542372901","960","484.5","","","","","","","",""
"2909.5999999940395"," ","html-keyboard-response","230","387264","0.0-3.0-2.111-0.111","<div style=""color: white; text-align: center; vertical-align: top; display: inline-block; width: 800px; margin: auto""><p>You have completed 40% of the trials. You are on block 5 of 10. <br>Good job! Take a break if you need to.</p><p>Press any key to continue the experiment.</p></div>","","","","","","","","","","","","",""
"890.4000000059605","arrowright","psychophysics","231","389172","0.0-3.0-0.112","","key","arrowright","16.66735849056595","960","484.5","113","5","1","30","15","25","35","true"
"null","null","psychophysics","232","390174","0.0-3.0-1.112","","key","null","16.666983050847687","960","484.5","","","","","","","",""
"1039.9000000059605","arrowleft","psychophysics","233","391217","0.0-3.0-0.113","","key","arrowleft","16.66667741935441","960","484.5","114","5","-1","25","35","25","35","true"
"null","null","psychophysics","234","392219","0.0-3.0-1.113","","key","null","16.667000000000048","960","484.5","","","","","","","",""
"879.7000000178814","arrowright","psychophysics","235","393100","0.0-3.0-0.114","","key","arrowright","16.666615384616307","960","484.5","115","5","1","24","15","25","35","true"
"null","null","psychophysics","236","394111","0.0-3.0-1.114","","key","null","16.667610169490956","960","484.5","","","","","","","",""
"1118.1000000238419","arrowleft","psychophysics","237","395233","0.0-3.0-0.115","","key","arrowleft","16.6671940298506","960","484.5","116","5","-1","27","35","25","35","true"
"null","null","psychophysics","238","396234","0.0-3.0-1.115","","key","null","16.666644067796522","960","484.5","","","","","","","",""
"938.0999999940395","arrowright","psychophysics","239","397176","0.0-3.0-0.116","","key","arrowright","16.667254545454952","960","484.5","117","5","1","26","15","25","35","true"
"null","null","psychophysics","240","398178","0.0-3.0-1.116","","key","null","16.666694915254592","960","484.5","","","","","","","",""
"868.0999999940395","arrowright","psychophysics","241","399050","0.0-3.0-0.117","","key","arrowright","16.667423076922066","960","484.5","118","5","1","25","15","25","35","true"
"null","null","psychophysics","242","400055","0.0-3.0-1.117","","key","null","16.666644067796522","960","484.5","","","","","","","",""
"1329.5","arrowleft","psychophysics","243","401388","0.0-3.0-0.118","","key","arrowleft","16.66668354430386","960","484.5","119","5","1","24","35","25","35","false"
"null","null","psychophysics","244","402389","0.0-3.0-1.118","","key","null","16.666508474575664","960","484.5","","","","","","","",""
"1528.5","arrowleft","psychophysics","245","403920","0.0-3.0-0.119","","key","arrowleft","16.667120879120706","960","484.5","120","5","1","27","35","25","35","false"
"null","null","psychophysics","246","404921","0.0-3.0-1.119","","key","null","16.66735593220357","960","484.5","","","","","","","",""
"1044.800000011921","arrowleft","psychophysics","247","405972","0.0-3.0-0.120","","key","arrowleft","16.663306451612904","960","484.5","121","5","-1","30","35","25","35","true"
"null","null","psychophysics","248","406977","0.0-3.0-1.120","","key","null","16.667525423729153","960","484.5","","","","","","","",""
"1210.4000000059605","arrowright","psychophysics","249","408192","0.0-3.0-0.121","","key","arrowright","16.667124999999942","960","484.5","122","5","-1","23","35","25","35","false"
"null","null","psychophysics","250","409194","0.0-3.0-1.121","","key","null","16.666491525423304","960","484.5","","","","","","","",""
"1005.6999999880791","arrowleft","psychophysics","251","410204","0.0-3.0-0.122","","key","arrowleft","16.66708333333372","960","484.5","123","5","-1","23","15","25","35","true"
"null","null","psychophysics","252","411205","0.0-3.0-1.122","","key","null","16.666474576270943","960","484.5","","","","","","","",""
"1037.300000011921","arrowright","psychophysics","253","412252","0.0-3.0-0.123","","key","arrowright","16.66762903225777","960","484.5","124","5","1","23","15","25","35","true"
"null","null","psychophysics","254","413257","0.0-3.0-1.123","","key","null","16.666796610169744","960","484.5","","","","","","","",""
"1072.7000000178814","arrowleft","psychophysics","255","414332","0.0-3.0-0.124","","key","arrowleft","16.66662500000075","960","484.5","125","5","-1","25","15","25","35","true"
"null","null","psychophysics","256","415335","0.0-3.0-1.124","","key","null","16.666830508474465","960","484.5","","","","","","","",""
"1895.5","arrowright","psychophysics","257","417233","0.0-3.0-0.125","","key","arrowright","16.666646017699165","960","484.5","126","5","-1","20","35","25","35","false"
"null","null","psychophysics","258","418239","0.0-3.0-1.125","","key","null","16.66654237288137","960","484.5","","","","","","","",""
"858.5999999940395","arrowleft","psychophysics","259","419101","0.0-3.0-0.126","","key","arrowleft","16.666156862745993","960","484.5","127","5","-1","23","15","25","35","true"
"null","null","psychophysics","260","420102","0.0-3.0-1.126","","key","null","16.667694915254735","960","484.5","","","","","","","",""
"950.9000000059605","arrowleft","psychophysics","261","421056","0.0-3.0-0.127","","key","arrowleft","16.666678571428097","960","484.5","128","5","1","23","35","25","35","false"
"null","null","psychophysics","262","422056","0.0-3.0-1.127","","key","null","16.666644067796522","960","484.5","","","","","","","",""
"896.6000000238419","arrowleft","psychophysics","263","422955","0.0-3.0-0.128","","key","arrowleft","16.667094339623187","960","484.5","129","5","-1","30","35","25","35","true"
"null","null","psychophysics","264","423960","0.0-3.0-1.128","","key","null","16.667627118644305","960","484.5","","","","","","","",""
"930.5","arrowleft","psychophysics","265","424897","0.0-3.0-0.129","","key","arrowleft","16.666892857142166","960","484.5","130","5","-1","25","15","25","35","true"
"null","null","psychophysics","266","425899","0.0-3.0-1.129","","key","null","16.666881355932535","960","484.5","","","","","","","",""
"941.4000000059605","arrowright","psychophysics","267","426843","0.0-3.0-0.130","","key","arrowright","16.666345454545013","960","484.5","131","5","1","23","15","25","35","true"
"null","null","psychophysics","268","427844","0.0-3.0-1.130","","key","null","16.667576271186235","960","484.5","","","","","","","",""
"1191.5","arrowleft","psychophysics","269","429044","0.0-3.0-0.131","","key","arrowleft","16.66671830985915","960","484.5","132","5","1","20","35","25","35","false"
"null","null","psychophysics","270","430050","0.0-3.0-1.131","","key","null","16.667250000000543","960","484.5","","","","","","","",""
"1306","arrowright","psychophysics","271","431359","0.0-3.0-0.132","","key","arrowright","16.66607792207793","960","484.5","133","5","-1","26","35","25","35","false"
"null","null","psychophysics","272","432361","0.0-3.0-1.132","","key","null","16.667254237288418","960","484.5","","","","","","","",""
"915.1999999880791","arrowleft","psychophysics","273","433280","0.0-3.0-0.133","","key","arrowleft","16.666709090908988","960","484.5","134","5","-1","30","15","25","35","true"
"null","null","psychophysics","274","434282","0.0-3.0-1.133","","key","null","16.666474576270943","960","484.5","","","","","","","",""
"1074.5","arrowleft","psychophysics","275","435359","0.0-3.0-0.134","","key","arrowleft","16.66790476190444","960","484.5","135","5","1","20","35","25","35","false"
"null","null","psychophysics","276","436365","0.0-3.0-1.134","","key","null","16.66739999999991","960","484.5","","","","","","","",""
"912.1000000238419","arrowleft","psychophysics","277","437280","0.0-3.0-0.135","","key","arrowleft","16.666629629630027","960","484.5","136","5","-1","25","15","25","35","true"
"null","null","psychophysics","278","438283","0.0-3.0-1.135","","key","null","16.666728813559313","960","484.5","","","","","","","",""
"1062.800000011921","arrowright","psychophysics","279","439349","0.0-3.0-0.136","","key","arrowright","16.666111111110595","960","484.5","137","5","1","30","15","25","35","true"
"null","null","psychophysics","280","440352","0.0-3.0-1.136","","key","null","16.666508474575664","960","484.5","","","","","","","",""
"935.7999999821186","arrowright","psychophysics","281","441291","0.0-3.0-0.137","","key","arrowright","16.666945454544937","960","484.5","138","5","1","24","15","25","35","true"
"null","null","psychophysics","282","442297","0.0-3.0-1.137","","key","null","16.667333333333954","960","484.5","","","","","","","",""
"1690","arrowleft","psychophysics","283","443991","0.0-3.0-0.138","","key","arrowleft","16.666839999999503","960","484.5","139","5","-1","25","35","25","35","true"
"null","null","psychophysics","284","444993","0.0-3.0-1.138","","key","null","16.66650847457665","960","484.5","","","","","","","",""
"937.7999999821186","arrowleft","psychophysics","285","445935","0.0-3.0-0.139","","key","arrowleft","16.66726785714231","960","484.5","140","6","1","20","35","25","35","false"
"null","null","psychophysics","286","446937","0.0-3.0-1.139","","key","null","16.66633898305107","960","484.5","","","","","","","",""
"3681.5999999940395"," ","html-keyboard-response","287","450619","0.0-3.0-2.139-0.139","<div style=""color: white; text-align: center; vertical-align: top; display: inline-block; width: 800px; margin: auto""><p>You have completed 50% of the trials. You are on block 6 of 10. <br>Good job! Take a break if you need to.</p><p>Press any key to continue the experiment.</p></div>","","","","","","","","","","","","",""
"1126.0999999940395","arrowright","psychophysics","288","452755","0.0-3.0-0.140","","key","arrowright","16.915955223880687","960","484.5","141","6","1","24","15","25","35","true"
"null","null","psychophysics","289","453759","0.0-3.0-1.140","","key","null","16.66662711864416","960","484.5","","","","","","","",""
"830.3000000119209","arrowleft","psychophysics","290","454591","0.0-3.0-0.141","","key","arrowleft","16.667755102040246","960","484.5","142","6","-1","26","15","25","35","true"
"null","null","psychophysics","291","455611","0.0-3.0-1.141","","key","null","16.66745000000034","960","484.5","","","","","","","",""
"1741.699999988079","arrowright","psychophysics","292","457359","0.0-3.0-0.142","","key","arrowright","16.666596153846164","960","484.5","143","6","1","25","35","25","35","true"
"null","null","psychophysics","293","458378","0.0-3.0-1.142","","key","null","16.667333333332984","960","484.5","","","","","","","",""
"1531.5","arrowleft","psychophysics","294","459916","0.0-3.0-0.143","","key","arrowleft","16.6663913043474","960","484.5","144","6","1","23","35","25","35","false"
"null","null","psychophysics","295","460920","0.0-3.0-1.143","","key","null","16.66667796610223","960","484.5","","","","","","","",""
"1636","arrowleft","psychophysics","296","462559","0.0-3.0-0.144","","key","arrowleft","16.666546391752867","960","484.5","145","6","1","26","35","25","35","false"
"null","null","psychophysics","297","463561","0.0-3.0-1.144","","key","null","16.666661016948883","960","484.5","","","","","","","",""
"847.6999999880791","arrowleft","psychophysics","298","464419","0.0-3.0-0.145","","key","arrowleft","16.666607843136745","960","484.5","146","6","-1","26","15","25","35","true"
"null","null","psychophysics","299","465428","0.0-3.0-1.145","","key","null","16.666830508474465","960","484.5","","","","","","","",""
"1530","arrowleft","psychophysics","300","466967","0.0-3.0-0.146","","key","arrowleft","16.66659782608685","960","484.5","147","6","-1","25","15","25","35","true"
"null","null","psychophysics","301","467978","0.0-3.0-1.146","","key","null","16.666559322033734","960","484.5","","","","","","","",""
"1829.5999999940395","arrowright","psychophysics","302","469813","0.0-3.0-0.147","","key","arrowright","16.666293577981552","960","484.5","148","6","1","26","35","25","35","true"
"null","null","psychophysics","303","470824","0.0-3.0-1.147","","key","null","16.667349999999473","960","484.5","","","","","","","",""
"2128.5","arrowright","psychophysics","304","472955","0.0-3.0-0.148","","key","arrowright","16.66678740157504","960","484.5","149","6","-1","20","15","25","35","false"
"null","null","psychophysics","305","473960","0.0-3.0-1.148","","key","null","16.666745762711674","960","484.5","","","","","","","",""
"1593.199999988079","arrowleft","psychophysics","306","475559","0.0-3.0-0.149","","key","arrowleft","16.66696842105226","960","484.5","150","6","-1","24","15","25","35","true"
"null","null","psychophysics","307","476578","0.0-3.0-1.149","","key","null","16.66708333333275","960","484.5","","","","","","","",""
"1854.800000011921","arrowright","psychophysics","308","478439","0.0-3.0-0.150","","key","arrowright","16.666252252252495","960","484.5","151","6","1","30","35","25","35","true"
"null","null","psychophysics","309","479444","0.0-3.0-1.150","","key","null","16.66711864406756","960","484.5","","","","","","","",""
"781.9000000059605","arrowleft","psychophysics","310","480232","0.0-3.0-0.151","","key","arrowleft","16.664382978723918","960","484.5","152","6","-1","30","15","25","35","true"
"null","null","psychophysics","311","481239","0.0-3.0-1.151","","key","null","16.666508474575664","960","484.5","","","","","","","",""
"3161.300000011921","arrowright","psychophysics","312","484403","0.0-3.0-0.152","","key","arrowright","16.66689947089944","960","484.5","153","6","1","20","15","25","35","true"
"null","null","psychophysics","313","485410","0.0-3.0-1.152","","key","null","16.667423728813016","960","484.5","","","","","","","",""
"1167.2999999821186","arrowleft","psychophysics","314","486584","0.0-3.0-0.153","","key","arrowleft","16.667299999999315","960","484.5","154","6","1","24","35","25","35","false"
"null","null","psychophysics","315","487592","0.0-3.0-1.153","","key","null","16.66654237288137","960","484.5","","","","","","","",""
"2156.9000000059605","arrowright","psychophysics","316","489751","0.0-3.0-0.154","","key","arrowright","16.666666666666668","960","484.5","155","6","-1","26","35","25","35","false"
"null","null","psychophysics","317","490761","0.0-3.0-1.154","","key","null","16.666677966101243","960","484.5","","","","","","","",""
"1393.5999999940395","arrowleft","psychophysics","318","492166","0.0-3.0-0.155","","key","arrowleft","16.666904761904984","960","484.5","156","6","1","20","15","25","35","false"
"null","null","psychophysics","319","493178","0.0-3.0-1.155","","key","null","16.66650847457665","960","484.5","","","","","","","",""
"1507.5999999940395","arrowright","psychophysics","320","494691","0.0-3.0-0.156","","key","arrowright","16.666655555555675","960","484.5","157","6","1","24","15","25","35","true"
"null","null","psychophysics","321","495695","0.0-3.0-1.156","","key","null","16.66662711864416","960","484.5","","","","","","","",""
"1351.0999999940395","arrowright","psychophysics","322","497051","0.0-3.0-0.157","","key","arrowright","16.666617283950426","960","484.5","158","6","1","23","15","25","35","true"
"null","null","psychophysics","323","498061","0.0-3.0-1.157","","key","null","16.66550847457651","960","484.5","","","","","","","",""
"1084.4000000059605","arrowleft","psychophysics","324","499151","0.0-3.0-0.158","","key","arrowleft","16.666676923076515","960","484.5","159","6","-1","26","15","25","35","true"
"null","null","psychophysics","325","500161","0.0-3.0-1.158","","key","null","16.66662711864416","960","484.5","","","","","","","",""
"1992.5","arrowleft","psychophysics","326","502159","0.0-3.0-0.159","","key","arrowleft","16.666663865546084","960","484.5","160","6","-1","24","15","25","35","true"
"null","null","psychophysics","327","503161","0.0-3.0-1.159","","key","null","16.66718644067799","960","484.5","","","","","","","",""
"2811.5","arrowleft","psychophysics","328","505983","0.0-3.0-0.160","","key","arrowleft","16.66661538461536","960","484.5","161","6","1","24","35","25","35","false"
"null","null","psychophysics","329","506994","0.0-3.0-1.160","","key","null","16.666644067796522","960","484.5","","","","","","","",""
"991","arrowright","psychophysics","330","507991","0.0-3.0-0.161","","key","arrowright","16.66733898305121","960","484.5","162","6","1","27","35","25","35","true"
"null","null","psychophysics","331","508995","0.0-3.0-1.161","","key","null","16.66588135593239","960","484.5","","","","","","","",""
"902.4000000059605","arrowleft","psychophysics","332","509903","0.0-3.0-0.162","","key","arrowleft","16.666000000000672","960","484.5","163","6","-1","27","15","25","35","true"
"null","null","psychophysics","333","510911","0.0-3.0-1.162","","key","null","16.666576271186095","960","484.5","","","","","","","",""
"2102.5999999940395","arrowleft","psychophysics","334","513019","0.0-3.0-0.163","","key","arrowleft","16.666476190475922","960","484.5","164","6","-1","24","15","25","35","true"
"null","null","psychophysics","335","514028","0.0-3.0-1.163","","key","null","16.666593220338456","960","484.5","","","","","","","",""
"1026","arrowright","psychophysics","336","515059","0.0-3.0-0.164","","key","arrowright","16.666016393443225","960","484.5","165","6","-1","20","35","25","35","false"
"null","null","psychophysics","337","516061","0.0-3.0-1.164","","key","null","16.66632203389772","960","484.5","","","","","","","",""
"895.9000000059605","arrowright","psychophysics","338","516972","0.0-3.0-0.165","","key","arrowright","16.66720370370442","960","484.5","166","6","1","26","15","25","35","true"
"null","null","psychophysics","339","517978","0.0-3.0-1.165","","key","null","16.666661016948883","960","484.5","","","","","","","",""
"919.5","arrowright","psychophysics","340","518903","0.0-3.0-0.166","","key","arrowright","16.66634545454607","960","484.5","167","6","1","30","15","25","35","true"
"null","null","psychophysics","341","519911","0.0-3.0-1.166","","key","null","16.665728813559173","960","484.5","","","","","","","",""
"918.7999999821186","arrowleft","psychophysics","342","520839","0.0-3.0-0.167","","key","arrowleft","16.666618181819054","960","484.5","168","7","1","20","35","25","35","false"
"null","null","psychophysics","343","521845","0.0-3.0-1.167","","key","null","16.666457627118582","960","484.5","","","","","","","",""
"57460.40000000596"," ","html-keyboard-response","344","579309","0.0-3.0-2.167-0.167","<div style=""color: white; text-align: center; vertical-align: top; display: inline-block; width: 800px; margin: auto""><p>You have completed 60% of the trials. You are on block 7 of 10. <br>Good job! Take a break if you need to.</p><p>Press any key to continue the experiment.</p></div>","","","","","","","","","","","","",""
"2325.0999999940395","arrowright","psychophysics","345","582651","0.0-3.0-0.168","","key","arrowright","16.666957142856802","960","484.5","169","7","1","24","15","25","35","true"
"null","null","psychophysics","346","583652","0.0-3.0-1.168","","key","null","16.667440677965377","960","484.5","","","","","","","",""
"1460.9000000059605","arrowright","psychophysics","347","585116","0.0-3.0-0.169","","key","arrowright","16.666620689655666","960","484.5","170","7","-1","25","35","25","35","false"
"null","null","psychophysics","348","586117","0.0-3.0-1.169","","key","null","16.666711864406953","960","484.5","","","","","","","",""
"927","arrowleft","psychophysics","349","587051","0.0-3.0-0.170","","key","arrowleft","16.667527272727934","960","484.5","171","7","-1","27","15","25","35","true"
"null","null","psychophysics","350","588052","0.0-3.0-1.170","","key","null","16.666847457627814","960","484.5","","","","","","","",""
"715.7999999821186","arrowright","psychophysics","351","588771","0.0-3.0-0.171","","key","arrowright","16.665547619047132","960","484.5","172","7","1","25","15","25","35","true"
"null","null","psychophysics","352","589772","0.0-3.0-1.171","","key","null","16.666711864406953","960","484.5","","","","","","","",""
"1433.9000000059605","arrowleft","psychophysics","353","591216","0.0-3.0-0.172","","key","arrowleft","16.66699999999959","960","484.5","173","7","1","20","35","25","35","false"
"null","null","psychophysics","354","592218","0.0-3.0-1.172","","key","null","16.6655932203393","960","484.5","","","","","","","",""
"1342","arrowright","psychophysics","355","593567","0.0-3.0-0.173","","key","arrowright","16.667387499999315","960","484.5","174","7","-1","24","35","25","35","false"
"null","null","psychophysics","356","594569","0.0-3.0-1.173","","key","null","16.66642372881386","960","484.5","","","","","","","",""
"795.1000000238419","arrowright","psychophysics","357","595367","0.0-3.0-0.174","","key","arrowright","16.666659574467747","960","484.5","175","7","-1","23","35","25","35","false"
"null","null","psychophysics","358","596369","0.0-3.0-1.174","","key","null","16.666644067795538","960","484.5","","","","","","","",""
"1476.199999988079","arrowright","psychophysics","359","597848","0.0-3.0-0.175","","key","arrowright","16.666636363636247","960","484.5","176","7","-1","26","35","25","35","false"
"null","null","psychophysics","360","598850","0.0-3.0-1.175","","key","null","16.66659322033944","960","484.5","","","","","","","",""
"1546.199999988079","arrowleft","psychophysics","361","600403","0.0-3.0-0.176","","key","arrowleft","16.66714130434759","960","484.5","177","7","-1","25","35","25","35","true"
"null","null","psychophysics","362","601405","0.0-3.0-1.176","","key","null","16.66672881355833","960","484.5","","","","","","","",""
"1260.199999988079","arrowleft","psychophysics","363","602668","0.0-3.0-0.177","","key","arrowleft","16.66662666666787","960","484.5","178","7","-1","27","35","25","35","true"
"null","null","psychophysics","364","603669","0.0-3.0-1.177","","key","null","16.666779661016395","960","484.5","","","","","","","",""
"1108.2999999821186","arrowright","psychophysics","365","604781","0.0-3.0-0.178","","key","arrowright","16.666227272727568","960","484.5","179","7","-1","20","15","25","35","false"
"null","null","psychophysics","366","605783","0.0-3.0-1.178","","key","null","16.66664406779751","960","484.5","","","","","","","",""
"1408.2000000178814","arrowleft","psychophysics","367","607198","0.0-3.0-0.179","","key","arrowleft","16.66623809523714","960","484.5","180","7","1","23","35","25","35","false"
"null","null","psychophysics","368","608200","0.0-3.0-1.179","","key","null","16.66733898305121","960","484.5","","","","","","","",""
"1539.5999999940395","arrowleft","psychophysics","369","609743","0.0-3.0-0.180","","key","arrowleft","16.666593406593766","960","484.5","181","7","1","23","15","25","35","false"
"null","null","psychophysics","370","610746","0.0-3.0-1.180","","key","null","16.6674666666678","960","484.5","","","","","","","",""
"5383.300000011921","arrowleft","psychophysics","371","616132","0.0-3.0-0.181","","key","arrowleft","16.666605590062105","960","484.5","182","7","1","25","35","25","35","false"
"null","null","psychophysics","372","617139","0.0-3.0-1.181","","key","null","16.66589830508377","960","484.5","","","","","","","",""
"2092.5","arrowleft","psychophysics","373","619235","0.0-3.0-0.182","","key","arrowleft","16.666775999999604","960","484.5","183","7","1","20","15","25","35","false"
"null","null","psychophysics","374","620237","0.0-3.0-1.182","","key","null","16.66664406779751","960","484.5","","","","","","","",""
"1447.2999999821186","arrowright","psychophysics","375","621687","0.0-3.0-0.183","","key","arrowright","16.666558139535145","960","484.5","184","7","1","27","15","25","35","true"
"null","null","psychophysics","376","622688","0.0-3.0-1.183","","key","null","16.66633898305107","960","484.5","","","","","","","",""
"1555.5","arrowright","psychophysics","377","624255","0.0-3.0-0.184","","key","arrowright","16.667247311827996","960","484.5","185","7","1","30","35","25","35","true"
"null","null","psychophysics","378","625257","0.0-3.0-1.184","","key","null","16.666847457627814","960","484.5","","","","","","","",""
"2531.5999999940395","arrowleft","psychophysics","379","627791","0.0-3.0-0.185","","key","arrowleft","16.66696688741683","960","484.5","186","7","-1","23","35","25","35","true"
"null","null","psychophysics","380","628793","0.0-3.0-1.185","","key","null","16.665576271187923","960","484.5","","","","","","","",""
"1047.5","arrowright","psychophysics","381","629853","0.0-3.0-0.186","","key","arrowright","16.666539682541043","960","484.5","187","7","-1","20","35","25","35","false"
"null","null","psychophysics","382","630856","0.0-3.0-1.186","","key","null","16.66720338983035","960","484.5","","","","","","","",""
"1083.7000000178814","arrowright","psychophysics","383","631943","0.0-3.0-0.187","","key","arrowright","16.666531250000844","960","484.5","188","7","1","30","35","25","35","true"
"null","null","psychophysics","384","632946","0.0-3.0-1.187","","key","null","16.667266666666062","960","484.5","","","","","","","",""
"1269.300000011921","arrowright","psychophysics","385","634219","0.0-3.0-0.188","","key","arrowright","16.66713333333377","960","484.5","189","7","-1","20","35","25","35","false"
"null","null","psychophysics","386","635221","0.0-3.0-1.188","","key","null","16.667627118644305","960","484.5","","","","","","","",""
"1011","arrowleft","psychophysics","387","636243","0.0-3.0-0.189","","key","arrowleft","16.667699999998636","960","484.5","190","7","-1","27","15","25","35","true"
"null","null","psychophysics","388","637244","0.0-3.0-1.189","","key","null","16.666847457627814","960","484.5","","","","","","","",""
"1175","arrowleft","psychophysics","389","638428","0.0-3.0-0.190","","key","arrowleft","16.666442857142204","960","484.5","191","7","1","20","35","25","35","false"
"null","null","psychophysics","390","639430","0.0-3.0-1.190","","key","null","16.66763333333462","960","484.5","","","","","","","",""
"2882.5","arrowleft","psychophysics","391","642316","0.0-3.0-0.191","","key","arrowleft","16.666645348836873","960","484.5","192","7","1","26","35","25","35","false"
"null","null","psychophysics","392","643322","0.0-3.0-1.191","","key","null","16.667745762711817","960","484.5","","","","","","","",""
"1171.7999999821186","arrowleft","psychophysics","393","644497","0.0-3.0-0.192","","key","arrowleft","16.6660285714282","960","484.5","193","7","1","24","35","25","35","false"
"null","null","psychophysics","394","645500","0.0-3.0-1.192","","key","null","16.667322033897864","960","484.5","","","","","","","",""
"1648.2000000178814","arrowleft","psychophysics","395","647151","0.0-3.0-0.193","","key","arrowleft","16.666816326530594","960","484.5","194","7","1","26","35","25","35","false"
"null","null","psychophysics","396","648152","0.0-3.0-1.193","","key","null","16.666779661016395","960","484.5","","","","","","","",""
"2784.5","arrowright","psychophysics","397","650940","0.0-3.0-0.194","","key","arrowright","16.666596385542338","960","484.5","195","7","1","24","35","25","35","true"
"null","null","psychophysics","398","651948","0.0-3.0-1.194","","key","null","16.667783333332046","960","484.5","","","","","","","",""
"1167.800000011921","arrowleft","psychophysics","399","653119","0.0-3.0-0.195","","key","arrowleft","16.666666666666668","960","484.5","196","8","-1","26","35","25","35","true"
"null","null","psychophysics","400","654121","0.0-3.0-1.195","","key","null","16.666440677967206","960","484.5","","","","","","","",""
"18953.19999998808"," ","html-keyboard-response","401","673076","0.0-3.0-2.195-0.195","<div style=""color: white; text-align: center; vertical-align: top; display: inline-block; width: 800px; margin: auto""><p>You have completed 70% of the trials. You are on block 8 of 10. <br>Good job! Take a break if you need to.</p><p>Press any key to continue the experiment.</p></div>","","","","","","","","","","","","",""
"1129.3999999761581","arrowright","psychophysics","402","675216","0.0-3.0-0.196","","key","arrowright","16.667735294117044","960","484.5","197","8","-1","23","35","25","35","false"
"null","null","psychophysics","403","676218","0.0-3.0-1.196","","key","null","16.66669491525558","960","484.5","","","","","","","",""
"1389.7999999821186","arrowright","psychophysics","404","677611","0.0-3.0-0.197","","key","arrowright","16.66686585365806","960","484.5","198","8","1","27","35","25","35","true"
"null","null","psychophysics","405","678613","0.0-3.0-1.197","","key","null","16.666850000000945","960","484.5","","","","","","","",""
"663.8000000119209","arrowright","psychophysics","406","679280","0.0-3.0-0.198","","key","arrowright","16.666666666666668","960","484.5","199","8","1","30","35","25","35","true"
"null","null","psychophysics","407","680294","0.0-3.0-1.198","","key","null","16.66737288135593","960","484.5","","","","","","","",""
"1448.800000011921","arrowleft","psychophysics","408","681747","0.0-3.0-0.199","","key","arrowleft","16.666091954022452","960","484.5","200","8","1","20","15","25","35","false"
"null","null","psychophysics","409","682749","0.0-3.0-1.199","","key","null","16.667796610167912","960","484.5","","","","","","","",""
"1035","arrowleft","psychophysics","410","683788","0.0-3.0-0.200","","key","arrowleft","16.666442622951628","960","484.5","201","8","1","23","35","25","35","false"
"null","null","psychophysics","411","684789","0.0-3.0-1.200","","key","null","16.66696610169335","960","484.5","","","","","","","",""
"954.3000000119209","arrowleft","psychophysics","412","685747","0.0-3.0-0.201","","key","arrowleft","16.666192982456106","960","484.5","202","8","-1","25","15","25","35","true"
"null","null","psychophysics","413","686755","0.0-3.0-1.201","","key","null","16.66733898305121","960","484.5","","","","","","","",""
"1893.5999999940395","arrowleft","psychophysics","414","688651","0.0-3.0-0.202","","key","arrowleft","16.666681415928874","960","484.5","203","8","-1","26","35","25","35","true"
"null","null","psychophysics","415","689653","0.0-3.0-1.202","","key","null","16.666661016948883","960","484.5","","","","","","","",""
"1766.7000000178814","arrowleft","psychophysics","416","691423","0.0-3.0-0.203","","key","arrowleft","16.666495238095965","960","484.5","204","8","1","25","35","25","35","false"
"null","null","psychophysics","417","692424","0.0-3.0-1.203","","key","null","16.666610169492788","960","484.5","","","","","","","",""
"867.9000000059605","arrowleft","psychophysics","418","693303","0.0-3.0-0.204","","key","arrowleft","16.667557692307476","960","484.5","205","8","-1","27","15","25","35","true"
"null","null","psychophysics","419","694304","0.0-3.0-1.204","","key","null","16.6667288135603","960","484.5","","","","","","","",""
"1200.1000000238419","arrowright","psychophysics","420","695507","0.0-3.0-0.205","","key","arrowright","16.667394366197314","960","484.5","206","8","1","23","15","25","35","true"
"null","null","psychophysics","421","696509","0.0-3.0-1.205","","key","null","16.66632203389772","960","484.5","","","","","","","",""
"814","arrowright","psychophysics","422","697327","0.0-3.0-0.206","","key","arrowright","16.66764583333376","960","484.5","207","8","1","30","15","25","35","true"
"null","null","psychophysics","423","698328","0.0-3.0-1.206","","key","null","16.667316666666498","960","484.5","","","","","","","",""
"986.1000000238419","arrowleft","psychophysics","424","699318","0.0-3.0-0.207","","key","arrowleft","16.66641379310348","960","484.5","208","8","1","24","15","25","35","false"
"null","null","psychophysics","425","700325","0.0-3.0-1.207","","key","null","16.667457627118722","960","484.5","","","","","","","",""
"918","arrowleft","psychophysics","426","701247","0.0-3.0-0.208","","key","arrowleft","16.667454545453868","960","484.5","209","8","-1","25","35","25","35","true"
"null","null","psychophysics","427","702251","0.0-3.0-1.208","","key","null","16.66618644067686","960","484.5","","","","","","","",""
"1037.300000011921","arrowleft","psychophysics","428","703290","0.0-3.0-0.209","","key","arrowleft","16.6666885245912","960","484.5","210","8","-1","26","35","25","35","true"
"null","null","psychophysics","429","704292","0.0-3.0-1.209","","key","null","16.666711864406953","960","484.5","","","","","","","",""
"1784.0999999940395","arrowleft","psychophysics","430","706080","0.0-3.0-0.210","","key","arrowleft","16.66697196261718","960","484.5","211","8","-1","26","35","25","35","true"
"null","null","psychophysics","431","707088","0.0-3.0-1.210","","key","null","16.667559322032886","960","484.5","","","","","","","",""
"2114.899999976158","arrowleft","psychophysics","432","709206","0.0-3.0-0.211","","key","arrowleft","16.66638095238124","960","484.5","212","8","-1","20","15","25","35","true"
"null","null","psychophysics","433","710208","0.0-3.0-1.211","","key","null","16.665677966100116","960","484.5","","","","","","","",""
"1034.300000011921","arrowleft","psychophysics","434","711247","0.0-3.0-0.212","","key","arrowleft","16.667612903225685","960","484.5","213","8","-1","30","35","25","35","true"
"null","null","psychophysics","435","712249","0.0-3.0-1.212","","key","null","16.66633898305107","960","484.5","","","","","","","",""
"2397.7999999821186","arrowleft","psychophysics","436","714650","0.0-3.0-0.213","","key","arrowleft","16.66659440559423","960","484.5","214","8","-1","20","15","25","35","true"
"null","null","psychophysics","437","715658","0.0-3.0-1.213","","key","null","16.66800000000019","960","484.5","","","","","","","",""
"3930.199999988079","arrowleft","psychophysics","438","719591","0.0-3.0-0.214","","key","arrowleft","16.666672340425308","960","484.5","215","8","1","23","15","25","35","false"
"null","null","psychophysics","439","720592","0.0-3.0-1.214","","key","null","16.666661016950858","960","484.5","","","","","","","",""
"3218","arrowleft","psychophysics","440","723815","0.0-3.0-0.215","","key","arrowleft","16.66674611398979","960","484.5","216","8","1","24","15","25","35","false"
"null","null","psychophysics","441","724823","0.0-3.0-1.215","","key","null","16.667542372881513","960","484.5","","","","","","","",""
"924.4000000059605","arrowleft","psychophysics","442","725751","0.0-3.0-0.216","","key","arrowleft","16.66756363636391","960","484.5","217","8","-1","23","15","25","35","true"
"null","null","psychophysics","443","726753","0.0-3.0-1.216","","key","null","16.666779661016395","960","484.5","","","","","","","",""
"1202.6000000238419","arrowright","psychophysics","444","727958","0.0-3.0-0.217","","key","arrowright","16.666802816901317","960","484.5","218","8","1","25","15","25","35","true"
"null","null","psychophysics","445","728960","0.0-3.0-1.217","","key","null","16.666745762711674","960","484.5","","","","","","","",""
"1914.800000011921","arrowleft","psychophysics","446","730881","0.0-3.0-0.218","","key","arrowleft","16.666895652174667","960","484.5","219","8","-1","25","35","25","35","true"
"null","null","psychophysics","447","731888","0.0-3.0-1.218","","key","null","16.667322033897864","960","484.5","","","","","","","",""
"4207.300000011921","arrowleft","psychophysics","448","736099","0.0-3.0-0.219","","key","arrowleft","16.666825396825544","960","484.5","220","8","1","26","35","25","35","false"
"null","null","psychophysics","449","737101","0.0-3.0-1.219","","key","null","16.666491525423304","960","484.5","","","","","","","",""
"924.5","arrowright","psychophysics","450","738034","0.0-3.0-0.220","","key","arrowright","16.66659999999895","960","484.5","221","8","-1","20","35","25","35","false"
"null","null","psychophysics","451","739036","0.0-3.0-1.220","","key","null","16.666474576271927","960","484.5","","","","","","","",""
"1487.2999999821186","arrowleft","psychophysics","452","740526","0.0-3.0-0.221","","key","arrowleft","16.666875000000633","960","484.5","222","8","-1","23","35","25","35","true"
"null","null","psychophysics","453","741529","0.0-3.0-1.221","","key","null","16.667300000000978","960","484.5","","","","","","","",""
"850.5","arrowright","psychophysics","454","742383","0.0-3.0-0.222","","key","arrowright","16.666780000000728","960","484.5","223","8","1","26","15","25","35","true"
"null","null","psychophysics","455","743384","0.0-3.0-1.222","","key","null","16.666745762711674","960","484.5","","","","","","","",""
"725.5","arrowleft","psychophysics","456","744118","0.0-3.0-0.223","","key","arrowleft","16.667697674416136","960","484.5","224","9","1","20","15","25","35","false"
"null","null","psychophysics","457","745120","0.0-3.0-1.223","","key","null","16.666559322032747","960","484.5","","","","","","","",""
"49446"," ","html-keyboard-response","458","794567","0.0-3.0-2.223-0.223","<div style=""color: white; text-align: center; vertical-align: top; display: inline-block; width: 800px; margin: auto""><p>You have completed 80% of the trials. You are on block 9 of 10. <br>Good job! Take a break if you need to.</p><p>Press any key to continue the experiment.</p></div>","","","","","","","","","","","","",""
"3594","arrowleft","psychophysics","459","799186","0.0-3.0-0.224","","key","arrowleft","16.66703703703738","960","484.5","225","9","1","23","35","25","35","false"
"null","null","psychophysics","460","800188","0.0-3.0-1.224","","key","null","16.66659322033944","960","484.5","","","","","","","",""
"595.2999999821186","arrowright","psychophysics","461","800786","0.0-3.0-0.225","","key","arrowright","16.666571428573558","960","484.5","226","9","1","27","15","25","35","true"
"null","null","psychophysics","462","801787","0.0-3.0-1.225","","key","null","16.66637288135579","960","484.5","","","","","","","",""
"863.2999999821186","arrowleft","psychophysics","463","802666","0.0-3.0-0.226","","key","arrowleft","16.66773076922982","960","484.5","227","9","-1","27","35","25","35","true"
"null","null","psychophysics","464","803668","0.0-3.0-1.226","","key","null","16.666644067795538","960","484.5","","","","","","","",""
"1042.0999999940395","arrowleft","psychophysics","465","804712","0.0-3.0-0.227","","key","arrowleft","16.66599999999887","960","484.5","228","9","1","20","15","25","35","false"
"null","null","psychophysics","466","805715","0.0-3.0-1.227","","key","null","16.65946666666617","960","484.5","","","","","","","",""
"1047.9000000059605","arrowleft","psychophysics","467","806766","0.0-3.0-0.228","","key","arrowleft","16.66667741935535","960","484.5","229","9","-1","27","35","25","35","true"
"null","null","psychophysics","468","807768","0.0-3.0-1.228","","key","null","16.667101694916184","960","484.5","","","","","","","",""
"2179.4000000059605","arrowleft","psychophysics","469","809950","0.0-3.0-0.229","","key","arrowleft","16.666646153846074","960","484.5","230","9","1","25","35","25","35","false"
"null","null","psychophysics","470","810959","0.0-3.0-1.229","","key","null","16.66671186440498","960","484.5","","","","","","","",""
"782.6999999880791","arrowleft","psychophysics","471","811747","0.0-3.0-0.230","","key","arrowleft","16.66774468085025","960","484.5","231","9","-1","23","15","25","35","true"
"null","null","psychophysics","472","812749","0.0-3.0-1.230","","key","null","16.66667796610223","960","484.5","","","","","","","",""
"722.1999999880791","arrowright","psychophysics","473","813474","0.0-3.0-0.231","","key","arrowright","16.66709523809342","960","484.5","232","9","1","23","15","25","35","true"
"null","null","psychophysics","474","814475","0.0-3.0-1.231","","key","null","16.667542372881513","960","484.5","","","","","","","",""
"1368.9000000059605","arrowright","psychophysics","475","815854","0.0-3.0-0.232","","key","arrowright","16.66729268292675","960","484.5","233","9","-1","20","15","25","35","false"
"null","null","psychophysics","476","816856","0.0-3.0-1.232","","key","null","16.66703389830477","960","484.5","","","","","","","",""
"3354","arrowleft","psychophysics","477","820222","0.0-3.0-0.233","","key","arrowleft","16.66684079602006","960","484.5","234","9","1","20","15","25","35","false"
"null","null","psychophysics","478","821223","0.0-3.0-1.233","","key","null","16.666372881357763","960","484.5","","","","","","","",""
"879.8000000119209","arrowleft","psychophysics","479","822106","0.0-3.0-0.234","","key","arrowleft","16.66665384615324","960","484.5","235","9","-1","25","15","25","35","true"
"null","null","psychophysics","480","823108","0.0-3.0-1.234","","key","null","16.666898305083908","960","484.5","","","","","","","",""
"746.4000000059605","arrowright","psychophysics","481","823866","0.0-3.0-0.235","","key","arrowright","16.667377777777922","960","484.5","236","9","1","26","15","25","35","true"
"null","null","psychophysics","482","824868","0.0-3.0-1.235","","key","null","16.665999999999904","960","484.5","","","","","","","",""
"915.7000000178814","arrowright","psychophysics","483","825786","0.0-3.0-0.236","","key","arrowright","16.66724074073998","960","484.5","237","9","1","23","15","25","35","true"
"null","null","psychophysics","484","826788","0.0-3.0-1.236","","key","null","16.66655932203472","960","484.5","","","","","","","",""
"912.5999999940395","arrowleft","psychophysics","485","827702","0.0-3.0-0.237","","key","arrowleft","16.666518518520107","960","484.5","238","9","-1","24","15","25","35","true"
"null","null","psychophysics","486","828704","0.0-3.0-1.237","","key","null","16.666983050848675","960","484.5","","","","","","","",""
"626.7999999821186","arrowright","psychophysics","487","829334","0.0-3.0-0.238","","key","arrowright","16.66637837837727","960","484.5","239","9","1","30","15","25","35","true"
"null","null","psychophysics","488","830336","0.0-3.0-1.238","","key","null","16.66701694915142","960","484.5","","","","","","","",""
"650.2000000178814","arrowright","psychophysics","489","830998","0.0-3.0-0.239","","key","arrowright","16.66815384615583","960","484.5","240","9","1","30","15","25","35","true"
"null","null","psychophysics","490","832000","0.0-3.0-1.239","","key","null","16.666745762711674","960","484.5","","","","","","","",""
"678.5","arrowleft","psychophysics","491","832682","0.0-3.0-0.240","","key","arrowleft","16.665625","960","484.5","241","9","-1","30","35","25","35","true"
"null","null","psychophysics","492","833684","0.0-3.0-1.240","","key","null","16.66632203389772","960","484.5","","","","","","","",""
"967.2000000178814","arrowleft","psychophysics","493","834654","0.0-3.0-0.241","","key","arrowleft","16.665964912282092","960","484.5","242","9","-1","30","15","25","35","true"
"null","null","psychophysics","494","835656","0.0-3.0-1.241","","key","null","16.666898305085883","960","484.5","","","","","","","",""
"1036.2999999821186","arrowleft","psychophysics","495","836695","0.0-3.0-0.242","","key","arrowleft","16.666360655738437","960","484.5","243","9","-1","30","35","25","35","true"
"null","null","psychophysics","496","837704","0.0-3.0-1.242","","key","null","16.66628333333453","960","484.5","","","","","","","",""
"1011.5","arrowright","psychophysics","497","838718","0.0-3.0-0.243","","key","arrowright","16.666616666666233","960","484.5","244","9","1","27","15","25","35","true"
"null","null","psychophysics","498","839720","0.0-3.0-1.243","","key","null","16.666949152541978","960","484.5","","","","","","","",""
"799","arrowleft","psychophysics","499","840522","0.0-3.0-0.244","","key","arrowleft","16.66670212766126","960","484.5","245","9","1","20","35","25","35","false"
"null","null","psychophysics","500","841529","0.0-3.0-1.244","","key","null","16.66736666666499","960","484.5","","","","","","","",""
"1017.1999999880791","arrowright","psychophysics","501","842550","0.0-3.0-0.245","","key","arrowright","16.66683333333349","960","484.5","246","9","-1","24","35","25","35","false"
"null","null","psychophysics","502","843558","0.0-3.0-1.245","","key","null","16.66586440678102","960","484.5","","","","","","","",""
"841.8999999761581","arrowright","psychophysics","503","844414","0.0-3.0-0.246","","key","arrowright","16.66719607843141","960","484.5","247","9","1","25","15","25","35","true"
"null","null","psychophysics","504","845417","0.0-3.0-1.246","","key","null","16.667220338983697","960","484.5","","","","","","","",""
"781.8000000119209","arrowright","psychophysics","505","846202","0.0-3.0-0.247","","key","arrowright","16.666434782607805","960","484.5","248","9","1","27","15","25","35","true"
"null","null","psychophysics","506","847204","0.0-3.0-1.247","","key","null","16.666881355930563","960","484.5","","","","","","","",""
"1160.5","arrowleft","psychophysics","507","848368","0.0-3.0-0.248","","key","arrowleft","16.66636231884131","960","484.5","249","9","-1","24","35","25","35","true"
"null","null","psychophysics","508","849370","0.0-3.0-1.248","","key","null","16.66664406779751","960","484.5","","","","","","","",""
"769.6999999880791","arrowright","psychophysics","509","850143","0.0-3.0-0.249","","key","arrowright","16.665866666667473","960","484.5","250","9","1","30","35","25","35","true"
"null","null","psychophysics","510","851152","0.0-3.0-1.249","","key","null","16.66754999999927","960","484.5","","","","","","","",""
"698.4000000059605","arrowleft","psychophysics","511","851854","0.0-3.0-0.250","","key","arrowleft","16.666804878049668","960","484.5","251","9","-1","30","35","25","35","true"
"null","null","psychophysics","512","852856","0.0-3.0-1.250","","key","null","16.666966101695326","960","484.5","","","","","","","",""
"856","arrowright","psychophysics","513","853715","0.0-3.0-0.251","","key","arrowright","16.66656862745089","960","484.5","252","10","1","30","35","25","35","true"
"null","null","psychophysics","514","854717","0.0-3.0-1.251","","key","null","16.66554237288123","960","484.5","","","","","","","",""
"7889.9000000059605"," ","html-keyboard-response","515","862612","0.0-3.0-2.251-0.251","<div style=""color: white; text-align: center; vertical-align: top; display: inline-block; width: 800px; margin: auto""><p>You have completed 90% of the trials. You are on block 10 of 10. <br>Good job! Take a break if you need to.</p><p>Press any key to continue the experiment.</p></div>","","","","","","","","","","","","",""
"2239.699999988079","arrowleft","psychophysics","516","865875","0.0-3.0-0.252","","key","arrowleft","16.667358208955058","960","484.5","253","10","-1","25","35","25","35","true"
"null","null","psychophysics","517","866877","0.0-3.0-1.252","","key","null","16.666661016948883","960","484.5","","","","","","","",""
"673.5","arrowright","psychophysics","518","867555","0.0-3.0-0.253","","key","arrowright","16.666300000000046","960","484.5","254","10","1","26","15","25","35","true"
"null","null","psychophysics","519","868557","0.0-3.0-1.253","","key","null","16.66650847457665","960","484.5","","","","","","","",""
"676.0999999940395","arrowleft","psychophysics","520","869235","0.0-3.0-0.254","","key","arrowleft","16.66702499999956","960","484.5","255","10","-1","25","15","25","35","true"
"null","null","psychophysics","521","870243","0.0-3.0-1.254","","key","null","16.666152542374114","960","484.5","","","","","","","",""
"820.6999999880791","arrowright","psychophysics","522","871068","0.0-3.0-0.255","","key","arrowright","16.667265306122374","960","484.5","256","10","1","25","15","25","35","true"
"null","null","psychophysics","523","872070","0.0-3.0-1.255","","key","null","16.66622033898158","960","484.5","","","","","","","",""
"674.7000000178814","arrowright","psychophysics","524","872748","0.0-3.0-0.256","","key","arrowright","16.666675000000396","960","484.5","257","10","1","27","15","25","35","true"
"null","null","psychophysics","525","873751","0.0-3.0-1.256","","key","null","16.66664406779751","960","484.5","","","","","","","",""
"1793.5","arrowright","psychophysics","526","875547","0.0-3.0-0.257","","key","arrowright","16.66672897196231","960","484.5","258","10","1","27","35","25","35","true"
"null","null","psychophysics","527","876551","0.0-3.0-1.257","","key","null","16.66659322033944","960","484.5","","","","","","","",""
"625.8000000119209","arrowright","psychophysics","528","877187","0.0-3.0-0.258","","key","arrowright","16.66383783783877","960","484.5","259","10","1","30","15","25","35","true"
"null","null","psychophysics","529","878188","0.0-3.0-1.258","","key","null","16.666305084744373","960","484.5","","","","","","","",""
"1805.300000011921","arrowright","psychophysics","530","879996","0.0-3.0-0.259","","key","arrowright","16.66638888888863","960","484.5","260","10","-1","23","35","25","35","false"
"null","null","psychophysics","531","880999","0.0-3.0-1.259","","key","null","16.66684745762584","960","484.5","","","","","","","",""
"684.5999999940395","arrowleft","psychophysics","532","881687","0.0-3.0-0.260","","key","arrowleft","16.66674999999814","960","484.5","261","10","-1","25","15","25","35","true"
"null","null","psychophysics","533","882688","0.0-3.0-1.260","","key","null","16.665864406779047","960","484.5","","","","","","","",""
"2605.5","arrowleft","psychophysics","534","885297","0.0-3.0-0.261","","key","arrowleft","16.66658974358982","960","484.5","262","10","-1","25","35","25","35","true"
"null","null","psychophysics","535","886306","0.0-3.0-1.261","","key","null","16.666779661016395","960","484.5","","","","","","","",""
"1014.5999999940395","arrowleft","psychophysics","536","887323","0.0-3.0-0.262","","key","arrowleft","16.667333333333954","960","484.5","263","10","1","20","35","25","35","false"
"null","null","psychophysics","537","888325","0.0-3.0-1.262","","key","null","16.666762711865022","960","484.5","","","","","","","",""
"747.3000000119209","arrowright","psychophysics","538","889075","0.0-3.0-0.263","","key","arrowright","16.667999999999832","960","484.5","264","10","-1","23","35","25","35","false"
"null","null","psychophysics","539","890076","0.0-3.0-1.263","","key","null","16.666813559323092","960","484.5","","","","","","","",""
"590.5999999940395","arrowleft","psychophysics","540","890671","0.0-3.0-0.264","","key","arrowleft","16.66771428571415","960","484.5","265","10","-1","30","35","25","35","true"
"null","null","psychophysics","541","891673","0.0-3.0-1.264","","key","null","16.667322033897864","960","484.5","","","","","","","",""
"547.0999999940395","arrowright","psychophysics","542","892231","0.0-3.0-0.265","","key","arrowright","16.66866666666641","960","484.5","266","10","-1","24","35","25","35","false"
"null","null","psychophysics","543","893234","0.0-3.0-1.265","","key","null","16.666661016948883","960","484.5","","","","","","","",""
"1533.699999988079","arrowright","psychophysics","544","894771","0.0-3.0-0.266","","key","arrowright","16.666230769230534","960","484.5","267","10","1","23","15","25","35","true"
"null","null","psychophysics","545","895773","0.0-3.0-1.266","","key","null","16.666576271186095","960","484.5","","","","","","","",""
"1184.1000000238419","arrowright","psychophysics","546","896959","0.0-3.0-0.267","","key","arrowright","16.666471428572134","960","484.5","268","10","1","26","35","25","35","true"
"null","null","psychophysics","547","897961","0.0-3.0-1.267","","key","null","16.667237288135073","960","484.5","","","","","","","",""
"642.7000000178814","arrowleft","psychophysics","548","898607","0.0-3.0-0.268","","key","arrowleft","16.66765789473797","960","484.5","269","10","-1","27","15","25","35","true"
"null","null","psychophysics","549","899616","0.0-3.0-1.268","","key","null","16.66736666666693","960","484.5","","","","","","","",""
"963.0999999940395","arrowleft","psychophysics","550","900583","0.0-3.0-0.269","","key","arrowleft","16.667385964911727","960","484.5","270","10","1","23","35","25","35","false"
"null","null","psychophysics","551","901590","0.0-3.0-1.269","","key","null","16.666135593220766","960","484.5","","","","","","","",""
"2146.2999999821186","arrowleft","psychophysics","552","903739","0.0-3.0-0.270","","key","arrowleft","16.66674218749995","960","484.5","271","10","1","26","35","25","35","false"
"null","null","psychophysics","553","904740","0.0-3.0-1.270","","key","null","16.666406779660512","960","484.5","","","","","","","",""
"879.5","arrowright","psychophysics","554","905623","0.0-3.0-0.271","","key","arrowright","16.666576923077137","960","484.5","272","10","1","27","35","25","35","true"
"null","null","psychophysics","555","906632","0.0-3.0-1.271","","key","null","16.667333333333954","960","484.5","","","","","","","",""
"1169.2000000178814","arrowright","psychophysics","556","907804","0.0-3.0-0.272","","key","arrowright","16.667043478260208","960","484.5","273","10","1","27","35","25","35","true"
"null","null","psychophysics","557","908806","0.0-3.0-1.272","","key","null","16.666644067795538","960","484.5","","","","","","","",""
"1138.2000000178814","arrowleft","psychophysics","558","909947","0.0-3.0-0.273","","key","arrowleft","16.66694117646993","960","484.5","274","10","1","20","15","25","35","false"
"null","null","psychophysics","559","910950","0.0-3.0-1.273","","key","null","16.666525423728025","960","484.5","","","","","","","",""
"1097.4000000059605","arrowright","psychophysics","560","912051","0.0-3.0-0.274","","key","arrowright","16.666600000000415","960","484.5","275","10","1","24","15","25","35","true"
"null","null","psychophysics","561","913053","0.0-3.0-1.274","","key","null","16.666864406779187","960","484.5","","","","","","","",""
"790.4000000059605","arrowleft","psychophysics","562","913855","0.0-3.0-0.275","","key","arrowleft","16.666553191488926","960","484.5","276","10","-1","26","15","25","35","true"
"null","null","psychophysics","563","914856","0.0-3.0-1.275","","key","null","16.666661016948883","960","484.5","","","","","","","",""
"851","arrowleft","psychophysics","564","915710","0.0-3.0-0.276","","key","arrowleft","16.666740000001155","960","484.5","277","10","1","25","35","25","35","false"
"null","null","psychophysics","565","916712","0.0-3.0-1.276","","key","null","16.666416666666432","960","484.5","","","","","","","",""
"1085.5999999940395","arrowleft","psychophysics","566","917802","0.0-3.0-0.277","","key","arrowleft","16.666593749998356","960","484.5","278","10","-1","27","35","25","35","true"
"null","null","psychophysics","567","918803","0.0-3.0-1.277","","key","null","16.66664406779751","960","484.5","","","","","","","",""
"2379.7000000178814","arrowleft","psychophysics","568","921186","0.0-3.0-0.278","","key","arrowleft","16.66673239436604","960","484.5","279","10","-1","23","15","25","35","true"
"null","null","psychophysics","569","922195","0.0-3.0-1.278","","key","null","16.667333333332014","960","484.5","","","","","","","",""
"2267.2999999821186","arrowleft","psychophysics","570","924466","0.0-3.0-0.279","","key","arrowleft","16.66665185185201","960","484.5","280","11","1","23","35","25","35","false"
"null","null","psychophysics","571","925468","0.0-3.0-1.279","","key","null","16.666186440678835","960","484.5","","","","","","","",""
