"rt","response","trial_type","trial_index","time_elapsed","internal_node_id","stimulus","response_type","key_press","avg_frame_time","center_x","center_y","trial","block","test_pos","test_inner_radius","test_outer_radius","ref_inner_radius","ref_outer_radius","test_bigger"
"49217.89999999851","{""p_id"":""9275"",""age"":""19"",""handedness"":""right"",""sex"":""female"",""other_sex"":""""}","survey-html-form","0","49222","0.0-0.0","","","","","","","","","","","","","",""
"62270.60000000149","enter","html-keyboard-response","1","111498","0.0-1.0","<p style=""color: white"">Welcome to the Size Judgment Experiment. <br>There will be 10 blocks in this experiment. <br>There will be 28 trials in each block. <br>You will be given a chance to take a break between blocks. <br>Press any key to start the experiment.</p>","","","","","","","","","","","","",""
"104196.5","enter","psychophysics","2","215719","0.0-2.0","","key","enter","16.70131746794872","720","380.5","","","","","","","",""
"29607","arrowright","psychophysics","3","245347","0.0-3.0-0.0","","key","arrowright","16.699005640157925","720","380.5","1","1","1","27","15","25","35","true"
"null","null","psychophysics","4","246353","0.0-3.0-1.0","","key","null","16.699152542372882","720","380.5","","","","","","","",""
"9110.099999997765","arrowright","psychophysics","5","255478","0.0-3.0-0.1","","key","arrowright","16.698992673992663","720","380.5","2","1","-1","25","15","25","35","false"
"null","null","psychophysics","6","256487","0.0-3.0-1.1","","key","null","16.699101694915306","720","380.5","","","","","","","",""
"3984.5","arrowright","psychophysics","7","260488","0.0-3.0-0.2","","key","arrowright","16.699058577405907","720","380.5","3","1","-1","20","35","25","35","false"
"null","null","psychophysics","8","261498","0.0-3.0-1.2","","key","null","16.699033898304876","720","380.5","","","","","","","",""
"15043.20000000298","arrowright","psychophysics","9","276555","0.0-3.0-0.3","","key","arrowright","16.698980022197578","720","380.5","4","1","-1","23","35","25","35","false"
"null","null","psychophysics","10","277562","0.0-3.0-1.3","","key","null","16.69884745762644","720","380.5","","","","","","","",""
"5323.300000000745","arrowleft","psychophysics","11","282898","0.0-3.0-0.4","","key","arrowleft","16.699034482758524","720","380.5","5","1","-1","30","35","25","35","true"
"null","null","psychophysics","12","283904","0.0-3.0-1.4","","key","null","16.699271186440395","720","380.5","","","","","","","",""
"10918.199999999255","arrowright","psychophysics","13","294837","0.0-3.0-0.5","","key","arrowright","16.698981651376087","720","380.5","6","1","1","24","35","25","35","true"
"null","null","psychophysics","14","295845","0.0-3.0-1.5","","key","null","16.698864406779787","720","380.5","","","","","","","",""
"1655.5","arrowright","psychophysics","15","297513","0.0-3.0-0.6","","key","arrowright","16.698898989898904","720","380.5","7","1","-1","20","35","25","35","false"
"null","null","psychophysics","16","298519","0.0-3.0-1.6","","key","null","16.699118644067173","720","380.5","","","","","","","",""
"931.8000000007451","arrowleft","psychophysics","17","299463","0.0-3.0-0.7","","key","arrowleft","16.69907142857223","720","380.5","8","1","-1","30","15","25","35","true"
"null","null","psychophysics","18","300488","0.0-3.0-1.7","","key","null","16.699169491525243","720","380.5","","","","","","","",""
"1353.9000000022352","arrowright","psychophysics","19","301858","0.0-3.0-0.8","","key","arrowright","16.905061728395033","720","380.5","9","1","1","30","15","25","35","true"
"null","null","psychophysics","20","302869","0.0-3.0-1.8","","key","null","16.699000000000037","720","380.5","","","","","","","",""
"3489","arrowright","psychophysics","21","306362","0.0-3.0-0.9","","key","arrowright","16.69909615384593","720","380.5","10","1","1","25","35","25","35","true"
"null","null","psychophysics","22","307367","0.0-3.0-1.9","","key","null","16.69891525423687","720","380.5","","","","","","","",""
"1558.7000000029802","arrowright","psychophysics","23","308938","0.0-3.0-0.10","","key","arrowright","16.698795698924236","720","380.5","11","1","1","23","15","25","35","true"
"null","null","psychophysics","24","309941","0.0-3.0-1.10","","key","null","16.698762711864635","720","380.5","","","","","","","",""
"2217.10000000149","arrowleft","psychophysics","25","312171","0.0-3.0-0.11","","key","arrowleft","16.69895488721812","720","380.5","12","1","-1","30","35","25","35","true"
"null","null","psychophysics","26","313181","0.0-3.0-1.11","","key","null","16.698694915254205","720","380.5","","","","","","","",""
"3224.89999999851","arrowright","psychophysics","27","316418","0.0-3.0-0.12","","key","arrowright","16.698958549222674","720","380.5","13","1","-1","26","35","25","35","false"
"null","null","psychophysics","28","317420","0.0-3.0-1.12","","key","null","16.699152542372882","720","380.5","","","","","","","",""
"11519.5","arrowright","psychophysics","29","328953","0.0-3.0-0.13","","key","arrowright","16.698973913043503","720","380.5","14","1","1","24","15","25","35","true"
"null","null","psychophysics","30","329963","0.0-3.0-1.13","","key","null","16.69911864406816","720","380.5","","","","","","","",""
"5438.89999999851","arrowright","psychophysics","31","335415","0.0-3.0-0.14","","key","arrowright","16.699000000000034","720","380.5","15","1","1","23","15","25","35","true"
"null","null","psychophysics","32","336422","0.0-3.0-1.14","","key","null","16.698576271185708","720","380.5","","","","","","","",""
"13135.400000002235","arrowleft","psychophysics","33","349563","0.0-3.0-0.15","","key","arrowleft","16.699016539440237","720","380.5","16","1","-1","25","35","25","35","true"
"null","null","psychophysics","34","350570","0.0-3.0-1.15","","key","null","16.698627118643774","720","380.5","","","","","","","",""
"7075.89999999851","arrowright","psychophysics","35","357659","0.0-3.0-0.16","","key","arrowright","16.69899056603781","720","380.5","17","1","1","23","15","25","35","true"
"null","null","psychophysics","36","358669","0.0-3.0-1.16","","key","null","16.699084745762452","720","380.5","","","","","","","",""
"2869.39999999851","arrowleft","psychophysics","37","361550","0.0-3.0-0.17","","key","arrowleft","16.699017441860633","720","380.5","18","1","-1","27","15","25","35","true"
"null","null","psychophysics","38","362560","0.0-3.0-1.17","","key","null","16.699271186440395","720","380.5","","","","","","","",""
"1437.800000000745","arrowleft","psychophysics","39","364010","0.0-3.0-0.18","","key","arrowleft","16.69909302325551","720","380.5","19","1","-1","26","35","25","35","true"
"null","null","psychophysics","40","365022","0.0-3.0-1.18","","key","null","16.698783333333754","720","380.5","","","","","","","",""
"4294.400000002235","arrowleft","psychophysics","41","369322","0.0-3.0-0.19","","key","arrowleft","16.69898437500001","720","380.5","20","1","1","20","15","25","35","false"
"null","null","psychophysics","42","370331","0.0-3.0-1.19","","key","null","16.699299999999734","720","380.5","","","","","","","",""
"29426.099999997765","arrowright","psychophysics","43","399762","0.0-3.0-0.20","","key","arrowright","16.69899375354913","720","380.5","21","1","1","23","15","25","35","true"
"null","null","psychophysics","44","400777","0.0-3.0-1.20","","key","null","16.698866666667165","720","380.5","","","","","","","",""
"4524.60000000149","arrowleft","psychophysics","45","405306","0.0-3.0-0.21","","key","arrowleft","16.69899999999993","720","380.5","22","1","1","23","35","25","35","false"
"null","null","psychophysics","46","406312","0.0-3.0-1.21","","key","null","16.698932203390218","720","380.5","","","","","","","",""
"11520.79999999702","arrowright","psychophysics","47","417843","0.0-3.0-0.22","","key","arrowright","16.698979680696674","720","380.5","23","1","1","26","35","25","35","true"
"null","null","psychophysics","48","418852","0.0-3.0-1.22","","key","null","16.699099999999937","720","380.5","","","","","","","",""
"1181.699999999255","arrowright","psychophysics","49","420046","0.0-3.0-0.23","","key","arrowright","16.69901408450711","720","380.5","24","1","1","30","15","25","35","true"
"null","null","psychophysics","50","421056","0.0-3.0-1.23","","key","null","16.698864406779787","720","380.5","","","","","","","",""
"2005.2000000029802","arrowright","psychophysics","51","423073","0.0-3.0-0.24","","key","arrowright","16.698808333333485","720","380.5","25","1","1","27","15","25","35","true"
"null","null","psychophysics","52","424078","0.0-3.0-1.24","","key","null","16.69906779661009","720","380.5","","","","","","","",""
"2532.300000000745","arrowleft","psychophysics","53","426626","0.0-3.0-0.25","","key","arrowleft","16.698881578947628","720","380.5","26","1","1","24","15","25","35","false"
"null","null","psychophysics","54","427629","0.0-3.0-1.25","","key","null","16.698830508475066","720","380.5","","","","","","","",""
"6056","arrowright","psychophysics","55","433689","0.0-3.0-0.26","","key","arrowright","16.698950276242986","720","380.5","27","1","-1","24","35","25","35","false"
"null","null","psychophysics","56","434699","0.0-3.0-1.26","","key","null","16.69927118644138","720","380.5","","","","","","","",""
"896.8999999985099","arrowright","psychophysics","57","435609","0.0-3.0-0.27","","key","arrowright","16.698981481481397","720","380.5","28","2","1","30","35","25","35","true"
"null","null","psychophysics","58","436613","0.0-3.0-1.27","","key","null","16.699237288135674","720","380.5","","","","","","","",""
"113483.40000000224","enter","html-keyboard-response","59","550098","0.0-3.0-2.27-0.27","<div style=""color: white; text-align: center; vertical-align: top; display: inline-block; width: 800px; margin: auto""><p>You have completed 10% of the trials. You are on block 2 of 10. <br>Good job! Take a break if you need to.</p><p>Press any key to continue the experiment.</p></div>","","","","","","","","","","","","",""
"10054.300000000745","arrowright","psychophysics","60","561186","0.0-3.0-0.28","","key","arrowright","16.719099667773968","720","380.5","29","2","1","26","35","25","35","true"
"null","null","psychophysics","61","562196","0.0-3.0-1.28","","key","null","16.699152542372882","720","380.5","","","","","","","",""
"1862.9000000022352","arrowright","psychophysics","62","564074","0.0-3.0-0.29","","key","arrowright","16.698901785714302","720","380.5","30","2","-1","23","15","25","35","false"
"null","null","psychophysics","63","565085","0.0-3.0-1.29","","key","null","16.698796610170344","720","380.5","","","","","","","",""
"5323","arrowleft","psychophysics","64","570419","0.0-3.0-0.30","","key","arrowleft","16.699062695924916","720","380.5","31","2","-1","24","35","25","35","true"
"null","null","psychophysics","65","571431","0.0-3.0-1.30","","key","null","16.699406779661253","720","380.5","","","","","","","",""
"998.8999999985099","arrowleft","psychophysics","66","572441","0.0-3.0-0.31","","key","arrowleft","16.699166666665892","720","380.5","32","2","1","20","35","25","35","false"
"null","null","psychophysics","67","573443","0.0-3.0-1.31","","key","null","16.698711864407553","720","380.5","","","","","","","",""
"1381.7999999970198","arrowright","psychophysics","68","574829","0.0-3.0-0.32","","key","arrowright","16.698963414633464","720","380.5","33","2","1","26","15","25","35","true"
"null","null","psychophysics","69","575833","0.0-3.0-1.32","","key","null","16.6989830508473","720","380.5","","","","","","","",""
"1149.699999999255","arrowleft","psychophysics","70","577002","0.0-3.0-0.33","","key","arrowleft","16.69875362318893","720","380.5","34","2","-1","26","15","25","35","true"
"null","null","psychophysics","71","578010","0.0-3.0-1.33","","key","null","16.699000000000648","720","380.5","","","","","","","",""
"3059.2000000029802","arrowright","psychophysics","72","581081","0.0-3.0-0.34","","key","arrowright","16.69901092896172","720","380.5","35","2","1","23","15","25","35","true"
"null","null","psychophysics","73","582085","0.0-3.0-1.34","","key","null","16.699016949153993","720","380.5","","","","","","","",""
"1226.8999999985099","arrowleft","psychophysics","74","583328","0.0-3.0-0.35","","key","arrowleft","16.69883783783833","720","380.5","36","2","-1","30","35","25","35","true"
"null","null","psychophysics","75","584337","0.0-3.0-1.35","","key","null","16.699000000000648","720","380.5","","","","","","","",""
"665.6000000014901","arrowright","psychophysics","76","585015","0.0-3.0-0.36","","key","arrowright","16.699650000000837","720","380.5","37","2","1","30","35","25","35","true"
"null","null","psychophysics","77","586026","0.0-3.0-1.36","","key","null","16.699457627119322","720","380.5","","","","","","","",""
"715","arrowright","psychophysics","78","586752","0.0-3.0-0.37","","key","arrowright","16.698581395348597","720","380.5","38","2","1","26","35","25","35","true"
"null","null","psychophysics","79","587762","0.0-3.0-1.37","","key","null","16.698728813558926","720","380.5","","","","","","","",""
"1136.6000000014901","arrowleft","psychophysics","80","588914","0.0-3.0-0.38","","key","arrowleft","16.69883823529509","720","380.5","39","2","-1","24","15","25","35","true"
"null","null","psychophysics","81","589923","0.0-3.0-1.38","","key","null","16.69926666666676","720","380.5","","","","","","","",""
"12371.300000000745","arrowright","psychophysics","82","602299","0.0-3.0-0.39","","key","arrowright","16.698998648648598","720","380.5","40","2","1","30","15","25","35","true"
"null","null","psychophysics","83","603307","0.0-3.0-1.39","","key","null","16.699186440677604","720","380.5","","","","","","","",""
"1033.199999999255","arrowleft","psychophysics","84","604352","0.0-3.0-0.40","","key","arrowleft","16.698951612902626","720","380.5","41","2","-1","27","35","25","35","true"
"null","null","psychophysics","85","605357","0.0-3.0-1.40","","key","null","16.69889830508451","720","380.5","","","","","","","",""
"845.8000000007451","arrowleft","psychophysics","86","606206","0.0-3.0-0.41","","key","arrowleft","16.69874000000069","720","380.5","42","2","-1","23","15","25","35","true"
"null","null","psychophysics","87","607217","0.0-3.0-1.41","","key","null","16.698813559321717","720","380.5","","","","","","","",""
"1269.300000000745","arrowright","psychophysics","88","608497","0.0-3.0-0.42","","key","arrowright","16.699105263157673","720","380.5","43","2","1","26","35","25","35","true"
"null","null","psychophysics","89","609505","0.0-3.0-1.42","","key","null","16.698881355933135","720","380.5","","","","","","","",""
"597.1000000014901","arrowleft","psychophysics","90","610114","0.0-3.0-0.43","","key","arrowleft","16.69905555555791","720","380.5","44","2","-1","25","15","25","35","true"
"null","null","psychophysics","91","611124","0.0-3.0-1.43","","key","null","16.699186440677604","720","380.5","","","","","","","",""
"785.8999999985099","arrowleft","psychophysics","92","611921","0.0-3.0-0.44","","key","arrowleft","16.699382978724316","720","380.5","45","2","-1","26","15","25","35","true"
"null","null","psychophysics","93","612928","0.0-3.0-1.44","","key","null","16.698881355933135","720","380.5","","","","","","","",""
"698.2000000029802","arrowright","psychophysics","94","613637","0.0-3.0-0.45","","key","arrowright","16.69880952381174","720","380.5","46","2","1","23","15","25","35","true"
"null","null","psychophysics","95","614643","0.0-3.0-1.45","","key","null","16.69906779661009","720","380.5","","","","","","","",""
"564.3999999985099","arrowright","psychophysics","96","615226","0.0-3.0-0.46","","key","arrowright","16.699323529408396","720","380.5","47","2","1","30","15","25","35","true"
"null","null","psychophysics","97","616234","0.0-3.0-1.46","","key","null","16.698864406779787","720","380.5","","","","","","","",""
"2067.699999999255","arrowleft","psychophysics","98","618313","0.0-3.0-0.47","","key","arrowleft","16.698951612902626","720","380.5","48","2","1","23","35","25","35","false"
"null","null","psychophysics","99","619323","0.0-3.0-1.47","","key","null","16.698576271186692","720","380.5","","","","","","","",""
"652.0999999977648","arrowright","psychophysics","100","619985","0.0-3.0-0.48","","key","arrowright","16.699076923079048","720","380.5","49","2","1","26","15","25","35","true"
"null","null","psychophysics","101","620993","0.0-3.0-1.48","","key","null","16.699101694914813","720","380.5","","","","","","","",""
"944.6000000014901","arrowleft","psychophysics","102","621954","0.0-3.0-0.49","","key","arrowleft","16.698771929823828","720","380.5","50","2","-1","26","35","25","35","true"
"null","null","psychophysics","103","622964","0.0-3.0-1.49","","key","null","16.699084745761464","720","380.5","","","","","","","",""
"731.0999999977648","arrowleft","psychophysics","104","623706","0.0-3.0-0.50","","key","arrowleft","16.69913636363609","720","380.5","51","2","-1","24","15","25","35","true"
"null","null","psychophysics","105","624711","0.0-3.0-1.50","","key","null","16.698779661016996","720","380.5","","","","","","","",""
"694.3000000007451","arrowleft","psychophysics","106","625409","0.0-3.0-0.51","","key","arrowleft","16.698390243904345","720","380.5","52","2","-1","20","15","25","35","true"
"null","null","psychophysics","107","626419","0.0-3.0-1.51","","key","null","16.69893220338923","720","380.5","","","","","","","",""
"1564.8999999985099","arrowleft","psychophysics","108","628001","0.0-3.0-0.52","","key","arrowleft","16.699021276595577","720","380.5","53","2","-1","27","15","25","35","true"
"null","null","psychophysics","109","629007","0.0-3.0-1.52","","key","null","16.698881355933135","720","380.5","","","","","","","",""
"1515.9000000022352","arrowleft","psychophysics","110","630535","0.0-3.0-0.53","","key","arrowleft","16.698824175824104","720","380.5","54","2","-1","30","15","25","35","true"
"null","null","psychophysics","111","631540","0.0-3.0-1.53","","key","null","16.698610169491413","720","380.5","","","","","","","",""
"978.9000000022352","arrowright","psychophysics","112","632522","0.0-3.0-0.54","","key","arrowright","16.699017241378396","720","380.5","55","2","-1","25","35","25","35","false"
"null","null","psychophysics","113","633529","0.0-3.0-1.54","","key","null","16.699135593219534","720","380.5","","","","","","","",""
"3516.89999999851","arrowleft","psychophysics","114","637049","0.0-3.0-0.55","","key","arrowleft","16.698885714286007","720","380.5","56","3","1","25","35","25","35","false"
"null","null","psychophysics","115","638055","0.0-3.0-1.55","","key","null","16.698796610168372","720","380.5","","","","","","","",""
"3532.89999999851","enter","html-keyboard-response","116","641594","0.0-3.0-2.55-0.55","<div style=""color: white; text-align: center; vertical-align: top; display: inline-block; width: 800px; margin: auto""><p>You have completed 20% of the trials. You are on block 3 of 10. <br>Good job! Take a break if you need to.</p><p>Press any key to continue the experiment.</p></div>","","","","","","","","","","","","",""
"924.9000000022352","arrowright","psychophysics","117","643545","0.0-3.0-0.56","","key","arrowright","16.7364107142847","720","380.5","57","3","-1","26","35","25","35","false"
"null","null","psychophysics","118","644553","0.0-3.0-1.56","","key","null","16.699186440679576","720","380.5","","","","","","","",""
"766","arrowleft","psychophysics","119","645331","0.0-3.0-0.57","","key","arrowleft","16.698826086955428","720","380.5","58","3","-1","25","15","25","35","true"
"null","null","psychophysics","120","646338","0.0-3.0-1.57","","key","null","16.699000000000648","720","380.5","","","","","","","",""
"866.8999999985099","arrowright","psychophysics","121","647210","0.0-3.0-0.58","","key","arrowright","16.69898039215774","720","380.5","59","3","1","30","15","25","35","true"
"null","null","psychophysics","122","648220","0.0-3.0-1.58","","key","null","16.698666666667364","720","380.5","","","","","","","",""
"865.3999999985099","arrowleft","psychophysics","123","649090","0.0-3.0-0.59","","key","arrowleft","16.698705882352193","720","380.5","60","3","-1","24","15","25","35","true"
"null","null","psychophysics","124","650099","0.0-3.0-1.59","","key","null","16.699186440677604","720","380.5","","","","","","","",""
"2349.699999999255","arrowright","psychophysics","125","652462","0.0-3.0-0.60","","key","arrowright","16.698858156028297","720","380.5","61","3","1","27","35","25","35","true"
"null","null","psychophysics","126","653471","0.0-3.0-1.60","","key","null","16.698813559321717","720","380.5","","","","","","","",""
"766.5999999977648","arrowleft","psychophysics","127","654249","0.0-3.0-0.61","","key","arrowleft","16.69923913043306","720","380.5","62","3","-1","30","15","25","35","true"
"null","null","psychophysics","128","655259","0.0-3.0-1.61","","key","null","16.699169491524255","720","380.5","","","","","","","",""
"923.8999999985099","arrowright","psychophysics","129","656203","0.0-3.0-0.62","","key","arrowright","16.69905357142852","720","380.5","63","3","1","25","15","25","35","true"
"null","null","psychophysics","130","657213","0.0-3.0-1.62","","key","null","16.698864406779787","720","380.5","","","","","","","",""
"2185.800000000745","arrowright","psychophysics","131","659410","0.0-3.0-0.63","","key","arrowright","16.698992366411986","720","380.5","64","3","1","25","35","25","35","true"
"null","null","psychophysics","132","660419","0.0-3.0-1.63","","key","null","16.698864406779787","720","380.5","","","","","","","",""
"2036","arrowright","psychophysics","133","662466","0.0-3.0-0.64","","key","arrowright","16.699016393442854","720","380.5","65","3","-1","25","35","25","35","false"
"null","null","psychophysics","134","663475","0.0-3.0-1.64","","key","null","16.698728813558926","720","380.5","","","","","","","",""
"755.6999999992549","arrowright","psychophysics","135","664241","0.0-3.0-0.65","","key","arrowright","16.698844444443885","720","380.5","66","3","1","24","15","25","35","true"
"null","null","psychophysics","136","665245","0.0-3.0-1.65","","key","null","16.6989830508473","720","380.5","","","","","","","",""
"618.3000000007451","arrowleft","psychophysics","137","665875","0.0-3.0-0.66","","key","arrowleft","16.698837837836756","720","380.5","67","3","-1","26","15","25","35","true"
"null","null","psychophysics","138","666882","0.0-3.0-1.66","","key","null","16.699000000000648","720","380.5","","","","","","","",""
"1399.6000000014901","arrowleft","psychophysics","139","668293","0.0-3.0-0.67","","key","arrowleft","16.699142857142892","720","380.5","68","3","-1","24","15","25","35","true"
"null","null","psychophysics","140","669303","0.0-3.0-1.67","","key","null","16.699152542372882","720","380.5","","","","","","","",""
"967.8000000007451","arrowright","psychophysics","141","670282","0.0-3.0-0.68","","key","arrowright","16.699034482758524","720","380.5","69","3","1","26","15","25","35","true"
"null","null","psychophysics","142","671291","0.0-3.0-1.68","","key","null","16.69894915254258","720","380.5","","","","","","","",""
"2232.7999999970198","arrowright","psychophysics","143","673535","0.0-3.0-0.69","","key","arrowright","16.69905223880561","720","380.5","70","3","1","30","35","25","35","true"
"null","null","psychophysics","144","674546","0.0-3.0-1.69","","key","null","16.69945762711735","720","380.5","","","","","","","",""
"2429","arrowright","psychophysics","145","676993","0.0-3.0-0.70","","key","arrowright","16.698856164383933","720","380.5","71","3","-1","26","35","25","35","false"
"null","null","psychophysics","146","677998","0.0-3.0-1.70","","key","null","16.69893220338923","720","380.5","","","","","","","",""
"935.7999999970198","arrowright","psychophysics","147","678938","0.0-3.0-0.71","","key","arrowright","16.699290909091097","720","380.5","72","3","1","26","15","25","35","true"
"null","null","psychophysics","148","679940","0.0-3.0-1.71","","key","null","16.698796610168372","720","380.5","","","","","","","",""
"1769.4000000022352","arrowleft","psychophysics","149","681722","0.0-3.0-0.72","","key","arrowleft","16.699084905660403","720","380.5","73","3","1","23","15","25","35","false"
"null","null","psychophysics","150","682729","0.0-3.0-1.72","","key","null","16.69903389830537","720","380.5","","","","","","","",""
"1556","arrowleft","psychophysics","151","684297","0.0-3.0-0.73","","key","arrowleft","16.699021505375935","720","380.5","74","3","1","25","35","25","35","false"
"null","null","psychophysics","152","685301","0.0-3.0-1.73","","key","null","16.69889830508451","720","380.5","","","","","","","",""
"1985.7999999970198","arrowleft","psychophysics","153","687298","0.0-3.0-0.74","","key","arrowleft","16.69892436974807","720","380.5","75","3","-1","25","35","25","35","true"
"null","null","psychophysics","154","688307","0.0-3.0-1.74","","key","null","16.698796610168372","720","380.5","","","","","","","",""
"803.1999999992549","arrowleft","psychophysics","155","689121","0.0-3.0-0.75","","key","arrowleft","16.698729166666453","720","380.5","76","3","-1","26","15","25","35","true"
"null","null","psychophysics","156","690127","0.0-3.0-1.75","","key","null","16.69867796610283","720","380.5","","","","","","","",""
"1031.5","arrowleft","psychophysics","157","691170","0.0-3.0-0.76","","key","arrowleft","16.698838709677087","720","380.5","77","3","1","20","15","25","35","false"
"null","null","psychophysics","158","692174","0.0-3.0-1.76","","key","null","16.69888135593116","720","380.5","","","","","","","",""
"1384.7000000029802","arrowright","psychophysics","159","693562","0.0-3.0-0.77","","key","arrowright","16.699012195122165","720","380.5","78","3","1","20","35","25","35","true"
"null","null","psychophysics","160","694576","0.0-3.0-1.77","","key","null","16.699166666667832","720","380.5","","","","","","","",""
"1232.800000000745","arrowleft","psychophysics","161","695813","0.0-3.0-0.78","","key","arrowleft","16.69915068493231","720","380.5","79","3","1","20","35","25","35","false"
"null","null","psychophysics","162","696823","0.0-3.0-1.78","","key","null","16.698999999998673","720","380.5","","","","","","","",""
"783.2000000029802","arrowright","psychophysics","163","697618","0.0-3.0-0.79","","key","arrowright","16.699282608695995","720","380.5","80","3","-1","25","35","25","35","false"
"null","null","psychophysics","164","698627","0.0-3.0-1.79","","key","null","16.699066666665022","720","380.5","","","","","","","",""
"2170.800000000745","arrowleft","psychophysics","165","700809","0.0-3.0-0.80","","key","arrowleft","16.698884615384472","720","380.5","81","3","-1","27","35","25","35","true"
"null","null","psychophysics","166","701823","0.0-3.0-1.80","","key","null","16.699016666666527","720","380.5","","","","","","","",""
"3654.60000000149","arrowleft","psychophysics","167","705482","0.0-3.0-0.81","","key","arrowleft","16.69905045871578","720","380.5","82","3","1","23","35","25","35","false"
"null","null","psychophysics","168","706486","0.0-3.0-1.81","","key","null","16.699118644066186","720","380.5","","","","","","","",""
"1331.5","arrowright","psychophysics","169","707836","0.0-3.0-0.82","","key","arrowright","16.699112500000048","720","380.5","83","3","1","24","35","25","35","true"
"null","null","psychophysics","170","708838","0.0-3.0-1.82","","key","null","16.698779661016996","720","380.5","","","","","","","",""
"1302.300000000745","arrowright","psychophysics","171","710145","0.0-3.0-0.83","","key","arrowright","16.699181818182566","720","380.5","84","4","1","23","35","25","35","true"
"null","null","psychophysics","172","711151","0.0-3.0-1.83","","key","null","16.699237288135674","720","380.5","","","","","","","",""
"6160.60000000149","enter","html-keyboard-response","173","717314","0.0-3.0-2.83-0.83","<div style=""color: white; text-align: center; vertical-align: top; display: inline-block; width: 800px; margin: auto""><p>You have completed 30% of the trials. You are on block 4 of 10. <br>Good job! Take a break if you need to.</p><p>Press any key to continue the experiment.</p></div>","","","","","","","","","","","","",""
"1763.199999999255","arrowright","psychophysics","174","720113","0.0-3.0-0.84","","key","arrowright","16.73724528301819","720","380.5","85","4","1","24","15","25","35","true"
"null","null","psychophysics","175","721118","0.0-3.0-1.84","","key","null","16.69933898305181","720","380.5","","","","","","","",""
"1551.699999999255","arrowright","psychophysics","176","722682","0.0-3.0-0.85","","key","arrowright","16.698870967741886","720","380.5","86","4","1","26","35","25","35","true"
"null","null","psychophysics","177","723692","0.0-3.0-1.85","","key","null","16.699440677965974","720","380.5","","","","","","","",""
"2771.5","arrowright","psychophysics","178","726482","0.0-3.0-0.86","","key","arrowright","16.69903614457854","720","380.5","87","4","1","30","35","25","35","true"
"null","null","psychophysics","179","727489","0.0-3.0-1.86","","key","null","16.699083333332478","720","380.5","","","","","","","",""
"1600.5","arrowleft","psychophysics","180","729094","0.0-3.0-0.87","","key","arrowleft","16.699031578947938","720","380.5","88","4","1","26","35","25","35","false"
"null","null","psychophysics","181","730100","0.0-3.0-1.87","","key","null","16.699305084745117","720","380.5","","","","","","","",""
"2169.5","arrowright","psychophysics","182","732289","0.0-3.0-0.88","","key","arrowright","16.699023076923243","720","380.5","89","4","1","27","15","25","35","true"
"null","null","psychophysics","183","733294","0.0-3.0-1.88","","key","null","16.698491525423904","720","380.5","","","","","","","",""
"6544.199999999255","arrowright","psychophysics","184","739848","0.0-3.0-0.89","","key","arrowright","16.69900000000008","720","380.5","90","4","1","27","15","25","35","true"
"null","null","psychophysics","185","740858","0.0-3.0-1.89","","key","null","16.69903389830537","720","380.5","","","","","","","",""
"664","arrowleft","psychophysics","186","741534","0.0-3.0-0.90","","key","arrowleft","16.69897499999788","720","380.5","91","4","-1","30","35","25","35","true"
"null","null","psychophysics","187","742539","0.0-3.0-1.90","","key","null","16.699033898303394","720","380.5","","","","","","","",""
"645","arrowright","psychophysics","188","743187","0.0-3.0-0.91","","key","arrowright","16.699315789474273","720","380.5","92","4","1","30","15","25","35","true"
"null","null","psychophysics","189","744193","0.0-3.0-1.91","","key","null","16.699355932203186","720","380.5","","","","","","","",""
"1329","arrowleft","psychophysics","190","745525","0.0-3.0-0.92","","key","arrowleft","16.699177215189696","720","380.5","93","4","1","27","35","25","35","false"
"null","null","psychophysics","191","746536","0.0-3.0-1.92","","key","null","16.698711864407553","720","380.5","","","","","","","",""
"989.6000000014901","arrowleft","psychophysics","192","747538","0.0-3.0-0.93","","key","arrowleft","16.69901694915202","720","380.5","94","4","-1","24","15","25","35","true"
"null","null","psychophysics","193","748540","0.0-3.0-1.93","","key","null","16.69891525423588","720","380.5","","","","","","","",""
"930.7000000029802","arrowright","psychophysics","194","749483","0.0-3.0-0.94","","key","arrowright","16.698839285712374","720","380.5","95","4","1","26","35","25","35","true"
"null","null","psychophysics","195","750494","0.0-3.0-1.94","","key","null","16.699186440679576","720","380.5","","","","","","","",""
"614","arrowright","psychophysics","196","751120","0.0-3.0-0.95","","key","arrowright","16.698864864865065","720","380.5","96","4","1","30","35","25","35","true"
"null","null","psychophysics","197","752130","0.0-3.0-1.95","","key","null","16.699271186440395","720","380.5","","","","","","","",""
"3002.300000000745","arrowleft","psychophysics","198","755144","0.0-3.0-0.96","","key","arrowleft","16.69898333333355","720","380.5","97","4","1","20","15","25","35","false"
"null","null","psychophysics","199","756155","0.0-3.0-1.96","","key","null","16.699237288135674","720","380.5","","","","","","","",""
"715.1999999992549","arrowright","psychophysics","200","756881","0.0-3.0-0.97","","key","arrowright","16.698558139533542","720","380.5","98","4","1","26","35","25","35","true"
"null","null","psychophysics","201","757892","0.0-3.0-1.97","","key","null","16.69893220338923","720","380.5","","","","","","","",""
"5627.199999999255","arrowleft","psychophysics","202","763530","0.0-3.0-0.98","","key","arrowleft","16.69893768545999","720","380.5","99","4","1","20","15","25","35","false"
"null","null","psychophysics","203","764538","0.0-3.0-1.98","","key","null","16.698796610170344","720","380.5","","","","","","","",""
"1132.199999999255","arrowleft","psychophysics","204","765681","0.0-3.0-0.99","","key","arrowleft","16.698823529410326","720","380.5","100","4","1","20","35","25","35","false"
"null","null","psychophysics","205","766686","0.0-3.0-1.99","","key","null","16.69845762711918","720","380.5","","","","","","","",""
"895.8000000007451","arrowleft","psychophysics","206","767586","0.0-3.0-0.100","","key","arrowleft","16.699018867925812","720","380.5","101","4","-1","30","15","25","35","true"
"null","null","psychophysics","207","768592","0.0-3.0-1.100","","key","null","16.698813559321717","720","380.5","","","","","","","",""
"739.8000000007451","arrowright","psychophysics","208","769345","0.0-3.0-0.101","","key","arrowright","16.698886363637442","720","380.5","102","4","-1","23","35","25","35","false"
"null","null","psychophysics","209","770355","0.0-3.0-1.101","","key","null","16.698933333335056","720","380.5","","","","","","","",""
"1216.300000000745","arrowright","psychophysics","210","771576","0.0-3.0-0.102","","key","arrowright","16.699124999999185","720","380.5","103","4","1","27","35","25","35","true"
"null","null","psychophysics","211","772579","0.0-3.0-1.102","","key","null","16.69908474576344","720","380.5","","","","","","","",""
"2484.2000000029802","arrowright","psychophysics","212","775067","0.0-3.0-0.103","","key","arrowright","16.699027027027064","720","380.5","104","4","1","26","15","25","35","true"
"null","null","psychophysics","213","776078","0.0-3.0-1.103","","key","null","16.699203389828977","720","380.5","","","","","","","",""
"1131","arrowleft","psychophysics","214","777220","0.0-3.0-0.104","","key","arrowleft","16.699000000000098","720","380.5","105","4","-1","27","15","25","35","true"
"null","null","psychophysics","215","778231","0.0-3.0-1.104","","key","null","16.699135593219534","720","380.5","","","","","","","",""
"1014.7999999970198","arrowleft","psychophysics","216","779258","0.0-3.0-0.105","","key","arrowleft","16.699032786886253","720","380.5","106","4","-1","27","15","25","35","true"
"null","null","psychophysics","217","780268","0.0-3.0-1.105","","key","null","16.698728813558926","720","380.5","","","","","","","",""
"1857.6000000014901","arrowleft","psychophysics","218","782138","0.0-3.0-0.106","","key","arrowleft","16.698855855856678","720","380.5","107","4","1","23","15","25","35","false"
"null","null","psychophysics","219","783148","0.0-3.0-1.106","","key","null","16.69936666666569","720","380.5","","","","","","","",""
"689.5","arrowright","psychophysics","220","783842","0.0-3.0-0.107","","key","arrowright","16.69897499999788","720","380.5","108","4","1","30","15","25","35","true"
"null","null","psychophysics","221","784851","0.0-3.0-1.107","","key","null","16.698916666665657","720","380.5","","","","","","","",""
"882.8000000007451","arrowleft","psychophysics","222","785738","0.0-3.0-0.108","","key","arrowleft","16.698749999999283","720","380.5","109","4","-1","30","35","25","35","true"
"null","null","psychophysics","223","786741","0.0-3.0-1.108","","key","null","16.69862711864279","720","380.5","","","","","","","",""
"1162.7999999970198","arrowright","psychophysics","224","787908","0.0-3.0-0.109","","key","arrowright","16.699188405796345","720","380.5","110","4","1","30","35","25","35","true"
"null","null","psychophysics","225","788918","0.0-3.0-1.109","","key","null","16.699033898303394","720","380.5","","","","","","","",""
"2743.599999997765","arrowleft","psychophysics","226","791674","0.0-3.0-0.110","","key","arrowleft","16.698951219512352","720","380.5","111","4","-1","25","15","25","35","true"
"null","null","psychophysics","227","792683","0.0-3.0-1.110","","key","null","16.699200000000808","720","380.5","","","","","","","",""
"602.8000000007451","arrowright","psychophysics","228","793290","0.0-3.0-0.111","","key","arrowright","16.699228571428517","720","380.5","112","5","1","24","15","25","35","true"
"null","null","psychophysics","229","794295","0.0-3.0-1.111","","key","null","16.698779661016996","720","380.5","","","","","","","",""
"1301.6000000014901","arrowright","html-keyboard-response","230","795604","0.0-3.0-2.111-0.111","<div style=""color: white; text-align: center; vertical-align: top; display: inline-block; width: 800px; margin: auto""><p>You have completed 40% of the trials. You are on block 5 of 10. <br>Good job! Take a break if you need to.</p><p>Press any key to continue the experiment.</p></div>","","","","","","","","","","","","",""
"744.1999999992549","arrowright","psychophysics","231","797379","0.0-3.0-0.112","","key","arrowright","16.79664444444546","720","380.5","113","5","-1","23","35","25","35","false"
"null","null","psychophysics","232","798387","0.0-3.0-1.112","","key","null","16.698694915254205","720","380.5","","","","","","","",""
"1988.1000000014901","arrowright","psychophysics","233","800386","0.0-3.0-0.113","","key","arrowright","16.699184873949406","720","380.5","114","5","-1","24","35","25","35","false"
"null","null","psychophysics","234","801400","0.0-3.0-1.113","","key","null","16.69898333333355","720","380.5","","","","","","","",""
"731.8000000007451","arrowleft","psychophysics","235","802136","0.0-3.0-0.114","","key","arrowleft","16.69881395348835","720","380.5","115","5","-1","30","35","25","35","true"
"null","null","psychophysics","236","803138","0.0-3.0-1.114","","key","null","16.698728813558926","720","380.5","","","","","","","",""
"635.9000000022352","arrowright","psychophysics","237","803778","0.0-3.0-0.115","","key","arrowright","16.699486486487896","720","380.5","116","5","1","30","15","25","35","true"
"null","null","psychophysics","238","804783","0.0-3.0-1.115","","key","null","16.698762711863647","720","380.5","","","","","","","",""
"1333.5999999977648","arrowright","psychophysics","239","806128","0.0-3.0-0.116","","key","arrowright","16.698874999998953","720","380.5","117","5","1","23","15","25","35","true"
"null","null","psychophysics","240","807138","0.0-3.0-1.116","","key","null","16.69906779661009","720","380.5","","","","","","","",""
"4270.5","arrowleft","psychophysics","241","811420","0.0-3.0-0.117","","key","arrowleft","16.6990039062498","720","380.5","118","5","-1","26","15","25","35","true"
"null","null","psychophysics","242","812429","0.0-3.0-1.117","","key","null","16.69889830508451","720","380.5","","","","","","","",""
"4554.300000000745","arrowleft","psychophysics","243","817002","0.0-3.0-0.118","","key","arrowleft","16.698941391941343","720","380.5","119","5","-1","26","15","25","35","true"
"null","null","psychophysics","244","818008","0.0-3.0-1.118","","key","null","16.69942372881263","720","380.5","","","","","","","",""
"711.8000000007451","arrowleft","psychophysics","245","818738","0.0-3.0-0.119","","key","arrowleft","16.699581395347366","720","380.5","120","5","-1","20","35","25","35","true"
"null","null","psychophysics","246","819745","0.0-3.0-1.119","","key","null","16.699101694914813","720","380.5","","","","","","","",""
"6444.900000002235","arrowright","psychophysics","247","826202","0.0-3.0-0.120","","key","arrowright","16.698981865285052","720","380.5","121","5","-1","20","15","25","35","false"
"null","null","psychophysics","248","827217","0.0-3.0-1.120","","key","null","16.698866666667165","720","380.5","","","","","","","",""
"717.3000000007451","arrowright","psychophysics","249","827939","0.0-3.0-0.121","","key","arrowright","16.69902380952512","720","380.5","122","5","-1","24","35","25","35","false"
"null","null","psychophysics","250","828946","0.0-3.0-1.121","","key","null","16.69889830508451","720","380.5","","","","","","","",""
"2724","arrowright","psychophysics","251","831682","0.0-3.0-0.122","","key","arrowright","16.69901226993873","720","380.5","123","5","1","23","35","25","35","true"
"null","null","psychophysics","252","832687","0.0-3.0-1.122","","key","null","16.699220338984297","720","380.5","","","","","","","",""
"724.0999999977648","arrowright","psychophysics","253","833430","0.0-3.0-0.123","","key","arrowright","16.699386363634733","720","380.5","124","5","1","25","15","25","35","true"
"null","null","psychophysics","254","834440","0.0-3.0-1.123","","key","null","16.698864406779787","720","380.5","","","","","","","",""
"1183","arrowright","psychophysics","255","835634","0.0-3.0-0.124","","key","arrowright","16.699267605634432","720","380.5","125","5","-1","20","15","25","35","false"
"null","null","psychophysics","256","836664","0.0-3.0-1.124","","key","null","16.699203389830952","720","380.5","","","","","","","",""
"862","arrowleft","psychophysics","257","837537","0.0-3.0-0.125","","key","arrowleft","17.020230769231254","720","380.5","126","5","1","20","35","25","35","false"
"null","null","psychophysics","258","838546","0.0-3.0-1.125","","key","null","16.699288135591768","720","380.5","","","","","","","",""
"842","arrowleft","psychophysics","259","839407","0.0-3.0-0.126","","key","arrowleft","16.699098039215304","720","380.5","127","5","1","24","35","25","35","false"
"null","null","psychophysics","260","840419","0.0-3.0-1.126","","key","null","16.69867796610086","720","380.5","","","","","","","",""
"1316.2999999970198","arrowright","psychophysics","261","841746","0.0-3.0-0.127","","key","arrowright","16.6987974683539","720","380.5","128","5","-1","27","35","25","35","false"
"null","null","psychophysics","262","842751","0.0-3.0-1.127","","key","null","16.69889830508451","720","380.5","","","","","","","",""
"694.5999999977648","arrowleft","psychophysics","263","843449","0.0-3.0-0.128","","key","arrowleft","16.698804878047667","720","380.5","129","5","-1","30","15","25","35","true"
"null","null","psychophysics","264","844460","0.0-3.0-1.128","","key","null","16.698881355933135","720","380.5","","","","","","","",""
"624.8999999985099","arrowright","psychophysics","265","845102","0.0-3.0-0.129","","key","arrowright","16.699131578945334","720","380.5","130","5","1","25","15","25","35","true"
"null","null","psychophysics","266","846113","0.0-3.0-1.129","","key","null","16.69889830508451","720","380.5","","","","","","","",""
"1214.9000000022352","arrowright","psychophysics","267","847339","0.0-3.0-0.130","","key","arrowright","16.69923287671225","720","380.5","131","5","-1","20","15","25","35","false"
"null","null","psychophysics","268","848341","0.0-3.0-1.130","","key","null","16.698966101695927","720","380.5","","","","","","","",""
"3392.699999999255","arrowright","psychophysics","269","851738","0.0-3.0-0.131","","key","arrowright","16.698891089108802","720","380.5","132","5","1","25","15","25","35","true"
"null","null","psychophysics","270","852750","0.0-3.0-1.131","","key","null","16.699016666666527","720","380.5","","","","","","","",""
"1824","arrowright","psychophysics","271","854578","0.0-3.0-0.132","","key","arrowright","16.699157407407053","720","380.5","133","5","1","24","15","25","35","true"
"null","null","psychophysics","272","855588","0.0-3.0-1.132","","key","null","16.698850000001645","720","380.5","","","","","","","",""
"850.1000000014901","arrowleft","psychophysics","273","856442","0.0-3.0-0.133","","key","arrowleft","16.699520000000483","720","380.5","134","5","-1","27","35","25","35","true"
"null","null","psychophysics","274","857451","0.0-3.0-1.133","","key","null","16.699000000000648","720","380.5","","","","","","","",""
"592.3999999985099","arrowright","psychophysics","275","858061","0.0-3.0-0.134","","key","arrowright","16.699027777778813","720","380.5","135","5","1","30","15","25","35","true"
"null","null","psychophysics","276","859064","0.0-3.0-1.134","","key","null","16.6989830508473","720","380.5","","","","","","","",""
"1918.300000000745","arrowleft","psychophysics","277","860986","0.0-3.0-0.135","","key","arrowleft","16.698991228070664","720","380.5","136","5","-1","27","35","25","35","true"
"null","null","psychophysics","278","861994","0.0-3.0-1.135","","key","null","16.699406779661253","720","380.5","","","","","","","",""
"749.3999999985099","arrowright","psychophysics","279","862755","0.0-3.0-0.136","","key","arrowright","16.699222222221497","720","380.5","137","5","-1","20","35","25","35","false"
"null","null","psychophysics","280","863758","0.0-3.0-1.136","","key","null","16.698762711863647","720","380.5","","","","","","","",""
"3920.10000000149","arrowleft","psychophysics","281","867699","0.0-3.0-0.137","","key","arrowleft","16.699051063829796","720","380.5","138","5","1","26","15","25","35","false"
"null","null","psychophysics","282","868707","0.0-3.0-1.137","","key","null","16.69893220338923","720","380.5","","","","","","","",""
"7109.60000000149","arrowleft","psychophysics","283","875829","0.0-3.0-0.138","","key","arrowleft","16.698974178403837","720","380.5","139","5","1","20","15","25","35","false"
"null","null","psychophysics","284","876839","0.0-3.0-1.138","","key","null","16.69928813559374","720","380.5","","","","","","","",""
"5175.699999999255","arrowright","psychophysics","285","882027","0.0-3.0-0.139","","key","arrowright","16.698980645161317","720","380.5","140","6","1","27","15","25","35","true"
"null","null","psychophysics","286","883041","0.0-3.0-1.139","","key","null","16.69888333333268","720","380.5","","","","","","","",""
"24519.800000000745"," ","html-keyboard-response","287","907564","0.0-3.0-2.139-0.139","<div style=""color: white; text-align: center; vertical-align: top; display: inline-block; width: 800px; margin: auto""><p>You have completed 50% of the trials. You are on block 6 of 10. <br>Good job! Take a break if you need to.</p><p>Press any key to continue the experiment.</p></div>","","","","","","","","","","","","",""
"1580.6000000014901","arrowleft","psychophysics","288","910179","0.0-3.0-0.140","","key","arrowleft","16.957595744681733","720","380.5","141","6","-1","25","15","25","35","true"
"null","null","psychophysics","289","911182","0.0-3.0-1.140","","key","null","16.699203389830952","720","380.5","","","","","","","",""
"2104.699999999255","arrowright","psychophysics","290","913290","0.0-3.0-0.141","","key","arrowright","16.698919999999926","720","380.5","142","6","-1","26","35","25","35","false"
"null","null","psychophysics","291","914301","0.0-3.0-1.141","","key","null","16.698766666666295","720","380.5","","","","","","","",""
"721","arrowright","psychophysics","292","915026","0.0-3.0-0.142","","key","arrowright","16.69871428571475","720","380.5","143","6","1","24","35","25","35","true"
"null","null","psychophysics","293","916031","0.0-3.0-1.142","","key","null","16.699271186440395","720","380.5","","","","","","","",""
"551.3000000007451","arrowright","psychophysics","294","916594","0.0-3.0-0.143","","key","arrowright","16.698878787877742","720","380.5","144","6","1","26","15","25","35","true"
"null","null","psychophysics","295","917601","0.0-3.0-1.143","","key","null","16.699305084745117","720","380.5","","","","","","","",""
"1899.5","arrowleft","psychophysics","296","919513","0.0-3.0-0.144","","key","arrowleft","16.69904385964905","720","380.5","145","6","-1","26","35","25","35","true"
"null","null","psychophysics","297","920530","0.0-3.0-1.144","","key","null","16.699016666666527","720","380.5","","","","","","","",""
"1199.1000000014901","arrowleft","psychophysics","298","921735","0.0-3.0-0.145","","key","arrowleft","16.699112676056167","720","380.5","146","6","-1","25","15","25","35","true"
"null","null","psychophysics","299","922739","0.0-3.0-1.145","","key","null","16.69884745762644","720","380.5","","","","","","","",""
"1018.8999999985099","arrowright","psychophysics","300","923762","0.0-3.0-0.146","","key","arrowright","16.699166666667832","720","380.5","147","6","-1","24","35","25","35","false"
"null","null","psychophysics","301","924772","0.0-3.0-1.146","","key","null","16.69896666666609","720","380.5","","","","","","","",""
"585.3000000007451","arrowright","psychophysics","302","925361","0.0-3.0-0.147","","key","arrowright","16.69882352941204","720","380.5","148","6","1","25","15","25","35","true"
"null","null","psychophysics","303","926374","0.0-3.0-1.147","","key","null","16.69888333333268","720","380.5","","","","","","","",""
"615.5","arrowleft","psychophysics","304","926994","0.0-3.0-0.148","","key","arrowleft","16.699138888888733","720","380.5","149","6","1","24","35","25","35","false"
"null","null","psychophysics","305","927999","0.0-3.0-1.148","","key","null","16.69888135593116","720","380.5","","","","","","","",""
"1512.4000000022352","arrowright","psychophysics","306","929515","0.0-3.0-0.149","","key","arrowright","16.69917777777753","720","380.5","150","6","-1","24","35","25","35","false"
"null","null","psychophysics","307","930523","0.0-3.0-1.149","","key","null","16.69884745762644","720","380.5","","","","","","","",""
"2703.2999999970198","arrowright","psychophysics","308","933239","0.0-3.0-0.150","","key","arrowright","16.699012345678955","720","380.5","151","6","1","23","35","25","35","true"
"null","null","psychophysics","309","934250","0.0-3.0-1.150","","key","null","16.69867796610086","720","380.5","","","","","","","",""
"636","arrowleft","psychophysics","310","934898","0.0-3.0-0.151","","key","arrowleft","16.699052631579292","720","380.5","152","6","1","25","35","25","35","false"
"null","null","psychophysics","311","935900","0.0-3.0-1.151","","key","null","16.698576271186692","720","380.5","","","","","","","",""
"665.1999999992549","arrowright","psychophysics","312","936579","0.0-3.0-0.152","","key","arrowright","16.699400000000605","720","380.5","153","6","1","27","15","25","35","true"
"null","null","psychophysics","313","937590","0.0-3.0-1.152","","key","null","16.69891525423588","720","380.5","","","","","","","",""
"814","arrowright","psychophysics","314","938416","0.0-3.0-0.153","","key","arrowright","16.698714285713564","720","380.5","154","6","-1","25","35","25","35","false"
"null","null","psychophysics","315","939424","0.0-3.0-1.153","","key","null","16.699305084745117","720","380.5","","","","","","","",""
"764.3000000007451","arrowright","psychophysics","316","940209","0.0-3.0-0.154","","key","arrowright","16.69867391304528","720","380.5","155","6","1","27","35","25","35","true"
"null","null","psychophysics","317","941213","0.0-3.0-1.154","","key","null","16.699220338982325","720","380.5","","","","","","","",""
"3604.099999997765","arrowleft","psychophysics","318","944828","0.0-3.0-0.155","","key","arrowleft","16.698902777777725","720","380.5","156","6","1","20","15","25","35","false"
"null","null","psychophysics","319","945839","0.0-3.0-1.155","","key","null","16.699033898303394","720","380.5","","","","","","","",""
"677.6999999992549","arrowleft","psychophysics","320","946537","0.0-3.0-0.156","","key","arrowleft","16.699097560974202","720","380.5","157","6","-1","27","15","25","35","true"
"null","null","psychophysics","321","947540","0.0-3.0-1.156","","key","null","16.69894915254258","720","380.5","","","","","","","",""
"1072.7999999970198","arrowleft","psychophysics","322","948625","0.0-3.0-0.157","","key","arrowleft","16.69904687500093","720","380.5","158","6","1","23","35","25","35","false"
"null","null","psychophysics","323","949629","0.0-3.0-1.157","","key","null","16.698830508475066","720","380.5","","","","","","","",""
"3440","arrowleft","psychophysics","324","953081","0.0-3.0-0.158","","key","arrowleft","16.699072815533796","720","380.5","159","6","-1","24","15","25","35","true"
"null","null","psychophysics","325","954096","0.0-3.0-1.158","","key","null","16.698950000000575","720","380.5","","","","","","","",""
"4053.7999999970198","arrowright","psychophysics","326","958154","0.0-3.0-0.159","","key","arrowright","16.699008264462943","720","380.5","160","6","-1","23","15","25","35","false"
"null","null","psychophysics","327","959157","0.0-3.0-1.159","","key","null","16.698966101695927","720","380.5","","","","","","","",""
"1903.6000000014901","arrowright","psychophysics","328","961081","0.0-3.0-0.160","","key","arrowright","16.698842105262692","720","380.5","161","6","-1","24","15","25","35","false"
"null","null","psychophysics","329","962087","0.0-3.0-1.160","","key","null","16.69928813559374","720","380.5","","","","","","","",""
"2358.800000000745","arrowleft","psychophysics","330","964458","0.0-3.0-0.161","","key","arrowleft","16.69900000000006","720","380.5","162","6","-1","27","15","25","35","true"
"null","null","psychophysics","331","965460","0.0-3.0-1.161","","key","null","16.69937288135456","720","380.5","","","","","","","",""
"1834.5","arrowright","psychophysics","332","967314","0.0-3.0-0.162","","key","arrowright","16.699163636364126","720","380.5","163","6","-1","23","35","25","35","false"
"null","null","psychophysics","333","968322","0.0-3.0-1.162","","key","null","16.69936666666569","720","380.5","","","","","","","",""
"1132.699999999255","arrowleft","psychophysics","334","969459","0.0-3.0-0.163","","key","arrowleft","16.699149253731246","720","380.5","164","6","1","20","35","25","35","false"
"null","null","psychophysics","335","970470","0.0-3.0-1.163","","key","null","16.698762711863647","720","380.5","","","","","","","",""
"967.3999999985099","arrowleft","psychophysics","336","971449","0.0-3.0-0.164","","key","arrowleft","16.69900000000027","720","380.5","165","6","1","24","35","25","35","false"
"null","null","psychophysics","337","972464","0.0-3.0-1.164","","key","null","16.69928333333422","720","380.5","","","","","","","",""
"1300.699999999255","arrowleft","psychophysics","338","973770","0.0-3.0-0.165","","key","arrowleft","16.69883116883038","720","380.5","166","6","1","24","35","25","35","false"
"null","null","psychophysics","339","974778","0.0-3.0-1.165","","key","null","16.69894915254258","720","380.5","","","","","","","",""
"1615.3999999985099","arrowright","psychophysics","340","976405","0.0-3.0-0.166","","key","arrowright","16.698979381443067","720","380.5","167","6","1","26","15","25","35","true"
"null","null","psychophysics","341","977417","0.0-3.0-1.166","","key","null","16.69942372881263","720","380.5","","","","","","","",""
"4848.5","arrowright","psychophysics","342","982284","0.0-3.0-0.167","","key","arrowright","16.69905154639175","720","380.5","168","7","-1","25","15","25","35","false"
"null","null","psychophysics","343","983294","0.0-3.0-1.167","","key","null","16.698830508475066","720","380.5","","","","","","","",""
"78565","arrowright","html-keyboard-response","344","1061869","0.0-3.0-2.167-0.167","<div style=""color: white; text-align: center; vertical-align: top; display: inline-block; width: 800px; margin: auto""><p>You have completed 60% of the trials. You are on block 7 of 10. <br>Good job! Take a break if you need to.</p><p>Press any key to continue the experiment.</p></div>","","","","","","","","","","","","",""
"745.6000000014901","arrowright","psychophysics","345","1063642","0.0-3.0-0.168","","key","arrowright","17.27695454545425","720","380.5","169","7","1","30","35","25","35","true"
"null","null","psychophysics","346","1064659","0.0-3.0-1.168","","key","null","16.69898333333355","720","380.5","","","","","","","",""
"597.9000000022352","arrowright","psychophysics","347","1065262","0.0-3.0-0.169","","key","arrowright","16.698542857136843","720","380.5","170","7","-1","23","35","25","35","false"
"null","null","psychophysics","348","1066272","0.0-3.0-1.169","","key","null","16.698915254237857","720","380.5","","","","","","","",""
"612.1000000014901","arrowleft","psychophysics","349","1066898","0.0-3.0-0.170","","key","arrowleft","16.698972972972015","720","380.5","171","7","-1","26","15","25","35","true"
"null","null","psychophysics","350","1067908","0.0-3.0-1.170","","key","null","16.698813559321717","720","380.5","","","","","","","",""
"1449.2000000029802","arrowright","psychophysics","351","1069369","0.0-3.0-0.171","","key","arrowright","16.698919540228342","720","380.5","172","7","-1","20","15","25","35","false"
"null","null","psychophysics","352","1070380","0.0-3.0-1.171","","key","null","16.69903389830537","720","380.5","","","","","","","",""
"3187.800000000745","arrowright","psychophysics","353","1073579","0.0-3.0-0.172","","key","arrowright","16.698968586387572","720","380.5","173","7","1","25","35","25","35","true"
"null","null","psychophysics","354","1074585","0.0-3.0-1.172","","key","null","16.698694915254205","720","380.5","","","","","","","",""
"2788.599999997765","arrowright","psychophysics","355","1077386","0.0-3.0-0.173","","key","arrowright","16.69894011976047","720","380.5","174","7","-1","20","15","25","35","false"
"null","null","psychophysics","356","1078401","0.0-3.0-1.173","","key","null","16.699333333332714","720","380.5","","","","","","","",""
"2720.800000000745","arrowright","psychophysics","357","1081126","0.0-3.0-0.174","","key","arrowright","16.698944444443317","720","380.5","175","7","-1","23","35","25","35","false"
"null","null","psychophysics","358","1082131","0.0-3.0-1.174","","key","null","16.69903389830537","720","380.5","","","","","","","",""
"1228","arrowright","psychophysics","359","1083363","0.0-3.0-0.175","","key","arrowright","16.698767123287798","720","380.5","176","7","1","30","15","25","35","true"
"null","null","psychophysics","360","1084374","0.0-3.0-1.175","","key","null","16.699152542372882","720","380.5","","","","","","","",""
"599","arrowleft","psychophysics","361","1084983","0.0-3.0-0.176","","key","arrowleft","16.698944444444756","720","380.5","177","7","1","20","35","25","35","false"
"null","null","psychophysics","362","1085991","0.0-3.0-1.176","","key","null","16.699050847456743","720","380.5","","","","","","","",""
"1233","arrowright","psychophysics","363","1087237","0.0-3.0-0.177","","key","arrowright","16.698972972975163","720","380.5","178","7","1","27","15","25","35","true"
"null","null","psychophysics","364","1088240","0.0-3.0-1.177","","key","null","16.69864406779614","720","380.5","","","","","","","",""
"1334.199999999255","arrowleft","psychophysics","365","1089578","0.0-3.0-0.178","","key","arrowleft","16.699037974685595","720","380.5","179","7","-1","24","15","25","35","true"
"null","null","psychophysics","366","1090593","0.0-3.0-1.178","","key","null","16.698933333333116","720","380.5","","","","","","","",""
"729.9000000022352","arrowright","psychophysics","367","1091328","0.0-3.0-0.179","","key","arrowright","16.69902325581846","720","380.5","180","7","1","25","15","25","35","true"
"null","null","psychophysics","368","1092337","0.0-3.0-1.179","","key","null","16.698881355935107","720","380.5","","","","","","","",""
"2708.400000002235","arrowright","psychophysics","369","1095058","0.0-3.0-0.180","","key","arrowright","16.699037037036714","720","380.5","181","7","1","25","15","25","35","true"
"null","null","psychophysics","370","1096063","0.0-3.0-1.180","","key","null","16.698813559321717","720","380.5","","","","","","","",""
"4749.300000000745","arrowright","psychophysics","371","1100834","0.0-3.0-0.181","","key","arrowright","16.699028070175434","720","380.5","182","7","1","24","15","25","35","true"
"null","null","psychophysics","372","1101841","0.0-3.0-1.181","","key","null","16.69862711864476","720","380.5","","","","","","","",""
"2245.10000000149","arrowleft","psychophysics","373","1104107","0.0-3.0-0.182","","key","arrowleft","16.699111111110284","720","380.5","183","7","1","25","15","25","35","false"
"null","null","psychophysics","374","1105114","0.0-3.0-1.182","","key","null","16.69844067796386","720","380.5","","","","","","","",""
"1316.5","arrowright","psychophysics","375","1106442","0.0-3.0-0.183","","key","arrowright","16.698898734177074","720","380.5","184","7","1","24","35","25","35","true"
"null","null","psychophysics","376","1107452","0.0-3.0-1.183","","key","null","16.698864406779787","720","380.5","","","","","","","",""
"3823.2000000029802","arrowright","psychophysics","377","1111285","0.0-3.0-0.184","","key","arrowright","16.69899563318806","720","380.5","185","7","1","23","15","25","35","true"
"null","null","psychophysics","378","1112303","0.0-3.0-1.184","","key","null","16.69898333333355","720","380.5","","","","","","","",""
"814.6000000014901","arrowright","psychophysics","379","1113122","0.0-3.0-0.185","","key","arrowright","16.699270833332168","720","380.5","186","7","1","25","15","25","35","true"
"null","null","psychophysics","380","1114131","0.0-3.0-1.185","","key","null","16.698966101695927","720","380.5","","","","","","","",""
"664.4000000022352","arrowright","psychophysics","381","1114807","0.0-3.0-0.186","","key","arrowright","16.698775000002932","720","380.5","187","7","-1","27","15","25","35","false"
"null","null","psychophysics","382","1115818","0.0-3.0-1.186","","key","null","16.69932203389846","720","380.5","","","","","","","",""
"1364.699999999255","arrowleft","psychophysics","383","1117195","0.0-3.0-0.187","","key","arrowleft","16.69868292682804","720","380.5","188","7","-1","30","35","25","35","true"
"null","null","psychophysics","384","1118214","0.0-3.0-1.187","","key","null","16.698766666666295","720","380.5","","","","","","","",""
"1240.800000000745","arrowleft","psychophysics","385","1119459","0.0-3.0-0.188","","key","arrowleft","16.699178082189103","720","380.5","189","7","1","24","35","25","35","false"
"null","null","psychophysics","386","1120467","0.0-3.0-1.188","","key","null","16.6988999999982","720","380.5","","","","","","","",""
"914.8999999985099","arrowleft","psychophysics","387","1121386","0.0-3.0-0.189","","key","arrowleft","16.698962962961996","720","380.5","190","7","1","20","35","25","35","false"
"null","null","psychophysics","388","1122397","0.0-3.0-1.189","","key","null","16.698813559321717","720","380.5","","","","","","","",""
"6794.699999999255","arrowleft","psychophysics","389","1129203","0.0-3.0-0.190","","key","arrowleft","16.699012285012053","720","380.5","191","7","-1","25","35","25","35","true"
"null","null","psychophysics","390","1130222","0.0-3.0-1.190","","key","null","16.699166666665892","720","380.5","","","","","","","",""
"1049.5","arrowleft","psychophysics","391","1131275","0.0-3.0-0.191","","key","arrowleft","16.698725806451552","720","380.5","192","7","-1","30","15","25","35","true"
"null","null","psychophysics","392","1132284","0.0-3.0-1.191","","key","null","16.69893220338923","720","380.5","","","","","","","",""
"770.2999999970198","arrowleft","psychophysics","393","1133066","0.0-3.0-0.192","","key","arrowleft","16.698934782610234","720","380.5","193","7","-1","27","15","25","35","true"
"null","null","psychophysics","394","1134071","0.0-3.0-1.192","","key","null","16.698966101695927","720","380.5","","","","","","","",""
"1966","arrowright","psychophysics","395","1136049","0.0-3.0-0.193","","key","arrowright","16.698847457628414","720","380.5","194","7","-1","27","35","25","35","false"
"null","null","psychophysics","396","1137067","0.0-3.0-1.193","","key","null","16.698866666667165","720","380.5","","","","","","","",""
"1278.8999999985099","arrowleft","psychophysics","397","1138352","0.0-3.0-0.194","","key","arrowleft","16.69885526315652","720","380.5","195","7","-1","25","15","25","35","true"
"null","null","psychophysics","398","1139357","0.0-3.0-1.194","","key","null","16.699355932205158","720","380.5","","","","","","","",""
"2370.89999999851","arrowleft","psychophysics","399","1141731","0.0-3.0-0.195","","key","arrowleft","16.699113475178628","720","380.5","196","8","-1","24","35","25","35","true"
"null","null","psychophysics","400","1142737","0.0-3.0-1.195","","key","null","16.69893220338923","720","380.5","","","","","","","",""
"22018.699999999255","arrowright","html-keyboard-response","401","1164766","0.0-3.0-2.195-0.195","<div style=""color: white; text-align: center; vertical-align: top; display: inline-block; width: 800px; margin: auto""><p>You have completed 70% of the trials. You are on block 8 of 10. <br>Good job! Take a break if you need to.</p><p>Press any key to continue the experiment.</p></div>","","","","","","","","","","","","",""
"1275.8999999985099","arrowleft","psychophysics","402","1167076","0.0-3.0-0.196","","key","arrowleft","16.723103896103943","720","380.5","197","8","-1","27","35","25","35","true"
"null","null","psychophysics","403","1168093","0.0-3.0-1.196","","key","null","16.699416666668064","720","380.5","","","","","","","",""
"1248.1000000014901","arrowright","psychophysics","404","1169346","0.0-3.0-0.197","","key","arrowright","16.698716216214077","720","380.5","198","8","1","25","35","25","35","true"
"null","null","psychophysics","405","1170354","0.0-3.0-1.197","","key","null","16.6989830508473","720","380.5","","","","","","","",""
"825.8000000007451","arrowleft","psychophysics","406","1171184","0.0-3.0-0.198","","key","arrowleft","16.699346938773953","720","380.5","199","8","-1","23","15","25","35","true"
"null","null","psychophysics","407","1172194","0.0-3.0-1.198","","key","null","16.698762711867595","720","380.5","","","","","","","",""
"604.2999999970198","arrowleft","psychophysics","408","1172810","0.0-3.0-0.199","","key","arrowleft","16.699027777778813","720","380.5","200","8","-1","30","15","25","35","true"
"null","null","psychophysics","409","1173814","0.0-3.0-1.199","","key","null","16.698525423728626","720","380.5","","","","","","","",""
"823","arrowright","psychophysics","410","1174659","0.0-3.0-0.200","","key","arrowright","16.69938000000082","720","380.5","201","8","1","27","35","25","35","true"
"null","null","psychophysics","411","1175667","0.0-3.0-1.200","","key","null","16.69908474576344","720","380.5","","","","","","","",""
"716.1000000014901","arrowright","psychophysics","412","1176395","0.0-3.0-0.201","","key","arrowright","16.698813953491058","720","380.5","202","8","-1","24","35","25","35","false"
"null","null","psychophysics","413","1177402","0.0-3.0-1.201","","key","null","16.698813559321717","720","380.5","","","","","","","",""
"637","arrowleft","psychophysics","414","1178050","0.0-3.0-0.202","","key","arrowleft","16.699026315785503","720","380.5","203","8","-1","30","35","25","35","true"
"null","null","psychophysics","415","1179058","0.0-3.0-1.202","","key","null","16.69901694915005","720","380.5","","","","","","","",""
"815.3999999985099","arrowright","psychophysics","416","1179885","0.0-3.0-0.203","","key","arrowright","16.698877551017937","720","380.5","204","8","1","25","35","25","35","true"
"null","null","psychophysics","417","1180901","0.0-3.0-1.203","","key","null","16.698850000001645","720","380.5","","","","","","","",""
"1065.6000000014901","arrowleft","psychophysics","418","1181971","0.0-3.0-0.204","","key","arrowleft","16.698634920634387","720","380.5","205","8","-1","26","35","25","35","true"
"null","null","psychophysics","419","1182981","0.0-3.0-1.204","","key","null","16.699457627121294","720","380.5","","","","","","","",""
"1164.2000000029802","arrowright","psychophysics","420","1184158","0.0-3.0-0.205","","key","arrowright","16.698885714286007","720","380.5","206","8","1","26","35","25","35","true"
"null","null","psychophysics","421","1185168","0.0-3.0-1.205","","key","null","16.6989830508473","720","380.5","","","","","","","",""
"965.5","arrowleft","psychophysics","422","1186145","0.0-3.0-0.206","","key","arrowleft","16.698948275859884","720","380.5","207","8","-1","26","15","25","35","true"
"null","null","psychophysics","423","1187163","0.0-3.0-1.206","","key","null","16.699133333330973","720","380.5","","","","","","","",""
"3754.2999999970198","arrowright","psychophysics","424","1190922","0.0-3.0-0.207","","key","arrowright","16.69903124999941","720","380.5","208","8","-1","20","15","25","35","false"
"null","null","psychophysics","425","1191931","0.0-3.0-1.207","","key","null","16.69925423728902","720","380.5","","","","","","","",""
"1438.0999999977648","arrowright","psychophysics","426","1193392","0.0-3.0-0.208","","key","arrowright","16.698931034483103","720","380.5","209","8","-1","23","35","25","35","false"
"null","null","psychophysics","427","1194397","0.0-3.0-1.208","","key","null","16.698898305082537","720","380.5","","","","","","","",""
"2966.39999999851","arrowright","psychophysics","428","1197366","0.0-3.0-0.209","","key","arrowright","16.698960451977484","720","380.5","210","8","-1","23","15","25","35","false"
"null","null","psychophysics","429","1198377","0.0-3.0-1.209","","key","null","16.699271186440395","720","380.5","","","","","","","",""
"2007.8999999985099","arrowleft","psychophysics","430","1200405","0.0-3.0-0.210","","key","arrowleft","16.69897520661254","720","380.5","211","8","-1","30","15","25","35","true"
"null","null","psychophysics","431","1201417","0.0-3.0-1.210","","key","null","16.698576271186692","720","380.5","","","","","","","",""
"3671.199999999255","arrowright","psychophysics","432","1205099","0.0-3.0-0.211","","key","arrowright","16.698868181818927","720","380.5","212","8","1","25","15","25","35","true"
"null","null","psychophysics","433","1206117","0.0-3.0-1.211","","key","null","16.69888333333268","720","380.5","","","","","","","",""
"1136.300000000745","arrowleft","psychophysics","434","1207257","0.0-3.0-0.212","","key","arrowleft","16.69941791044826","720","380.5","213","8","-1","27","35","25","35","true"
"null","null","psychophysics","435","1208264","0.0-3.0-1.212","","key","null","16.698864406779787","720","380.5","","","","","","","",""
"1161.8999999985099","arrowleft","psychophysics","436","1209440","0.0-3.0-0.213","","key","arrowleft","16.6990428571423","720","380.5","214","8","1","20","15","25","35","false"
"null","null","psychophysics","437","1210450","0.0-3.0-1.213","","key","null","16.69903389830537","720","380.5","","","","","","","",""
"1003.5","arrowright","psychophysics","438","1211465","0.0-3.0-0.214","","key","arrowright","16.69898333333355","720","380.5","215","8","-1","20","35","25","35","false"
"null","null","psychophysics","439","1212477","0.0-3.0-1.214","","key","null","16.69908333333442","720","380.5","","","","","","","",""
"2351.800000000745","arrowright","psychophysics","440","1214834","0.0-3.0-0.215","","key","arrowright","16.698914285714274","720","380.5","216","8","-1","24","35","25","35","false"
"null","null","psychophysics","441","1215840","0.0-3.0-1.215","","key","null","16.698694915254205","720","380.5","","","","","","","",""
"878.1000000014901","arrowright","psychophysics","442","1216721","0.0-3.0-0.216","","key","arrowright","16.69869230769109","720","380.5","217","8","1","26","15","25","35","true"
"null","null","psychophysics","443","1217725","0.0-3.0-1.216","","key","null","16.698966101695927","720","380.5","","","","","","","",""
"731.8000000007451","arrowright","psychophysics","444","1218481","0.0-3.0-0.217","","key","arrowright","16.699249999999832","720","380.5","218","8","1","27","15","25","35","true"
"null","null","psychophysics","445","1219485","0.0-3.0-1.217","","key","null","16.69940677965928","720","380.5","","","","","","","",""
"720.6999999992549","arrowright","psychophysics","446","1220217","0.0-3.0-0.218","","key","arrowright","16.698953488370577","720","380.5","219","8","1","27","35","25","35","true"
"null","null","psychophysics","447","1221221","0.0-3.0-1.218","","key","null","16.69891525423391","720","380.5","","","","","","","",""
"3256.699999999255","arrowright","psychophysics","448","1224489","0.0-3.0-0.219","","key","arrowright","16.698917948718492","720","380.5","220","8","-1","23","15","25","35","false"
"null","null","psychophysics","449","1225503","0.0-3.0-1.219","","key","null","16.69873333333526","720","380.5","","","","","","","",""
"1374.800000000745","arrowleft","psychophysics","450","1226883","0.0-3.0-0.220","","key","arrowleft","16.69904938271775","720","380.5","221","8","1","23","35","25","35","false"
"null","null","psychophysics","451","1227892","0.0-3.0-1.220","","key","null","16.69861666666499","720","380.5","","","","","","","",""
"1105.199999999255","arrowleft","psychophysics","452","1229001","0.0-3.0-0.221","","key","arrowleft","16.69909230769039","720","380.5","222","8","-1","27","35","25","35","true"
"null","null","psychophysics","453","1230005","0.0-3.0-1.221","","key","null","16.699288135595715","720","380.5","","","","","","","",""
"1231.8999999985099","arrowright","psychophysics","454","1231250","0.0-3.0-0.222","","key","arrowright","16.699216216217373","720","380.5","223","8","-1","25","35","25","35","false"
"null","null","psychophysics","455","1232268","0.0-3.0-1.222","","key","null","16.699133333334853","720","380.5","","","","","","","",""
"946.1999999992549","arrowleft","psychophysics","456","1233220","0.0-3.0-0.223","","key","arrowleft","16.698892857143488","720","380.5","224","9","-1","23","15","25","35","true"
"null","null","psychophysics","457","1234230","0.0-3.0-1.223","","key","null","16.699355932205158","720","380.5","","","","","","","",""
"1122","arrowright","html-keyboard-response","458","1235356","0.0-3.0-2.223-0.223","<div style=""color: white; text-align: center; vertical-align: top; display: inline-block; width: 800px; margin: auto""><p>You have completed 80% of the trials. You are on block 9 of 10. <br>Good job! Take a break if you need to.</p><p>Press any key to continue the experiment.</p></div>","","","","","","","","","","","","",""
"1329","arrowright","psychophysics","459","1237714","0.0-3.0-0.224","","key","arrowright","16.749362499997368","720","380.5","225","9","1","27","35","25","35","true"
"null","null","psychophysics","460","1238732","0.0-3.0-1.224","","key","null","16.699049999999502","720","380.5","","","","","","","",""
"953.8999999985099","arrowright","psychophysics","461","1239689","0.0-3.0-0.225","","key","arrowright","16.699160714288674","720","380.5","226","9","1","30","35","25","35","true"
"null","null","psychophysics","462","1240693","0.0-3.0-1.225","","key","null","16.69877966101897","720","380.5","","","","","","","",""
"1048.6000000014901","arrowright","psychophysics","463","1241754","0.0-3.0-0.226","","key","arrowright","16.699095238096245","720","380.5","227","9","1","24","15","25","35","true"
"null","null","psychophysics","464","1242763","0.0-3.0-1.226","","key","null","16.699050847456743","720","380.5","","","","","","","",""
"3420.300000000745","arrowright","psychophysics","465","1246195","0.0-3.0-0.227","","key","arrowright","16.699029268292573","720","380.5","228","9","-1","23","15","25","35","false"
"null","null","psychophysics","466","1247212","0.0-3.0-1.227","","key","null","16.698949999998636","720","380.5","","","","","","","",""
"1032","arrowleft","psychophysics","467","1248249","0.0-3.0-0.228","","key","arrowleft","16.699147540980523","720","380.5","229","9","1","23","35","25","35","false"
"null","null","psychophysics","468","1249259","0.0-3.0-1.228","","key","null","16.699338983049838","720","380.5","","","","","","","",""
"866.0999999977648","arrowleft","psychophysics","469","1250138","0.0-3.0-0.229","","key","arrowleft","16.699250000000646","720","380.5","230","9","1","23","35","25","35","false"
"null","null","psychophysics","470","1251146","0.0-3.0-1.229","","key","null","16.69867796610283","720","380.5","","","","","","","",""
"898.7999999970198","arrowleft","psychophysics","471","1252057","0.0-3.0-0.230","","key","arrowleft","16.698888888888717","720","380.5","231","9","-1","23","15","25","35","true"
"null","null","psychophysics","472","1253067","0.0-3.0-1.230","","key","null","16.69861016948944","720","380.5","","","","","","","",""
"853.3000000007451","arrowright","psychophysics","473","1253943","0.0-3.0-0.231","","key","arrowright","16.698999999999963","720","380.5","232","9","1","27","15","25","35","true"
"null","null","psychophysics","474","1254950","0.0-3.0-1.231","","key","null","16.699220338982325","720","380.5","","","","","","","",""
"679.0999999977648","arrowright","psychophysics","475","1255634","0.0-3.0-0.232","","key","arrowright","16.699050000001442","720","380.5","233","9","1","30","35","25","35","true"
"null","null","psychophysics","476","1256640","0.0-3.0-1.232","","key","null","16.698745762712274","720","380.5","","","","","","","",""
"933.7000000029802","arrowleft","psychophysics","477","1257586","0.0-3.0-0.233","","key","arrowleft","16.69923214285518","720","380.5","234","9","-1","20","15","25","35","true"
"null","null","psychophysics","478","1258594","0.0-3.0-1.233","","key","null","16.69862711864476","720","380.5","","","","","","","",""
"914.6999999992549","arrowleft","psychophysics","479","1259520","0.0-3.0-0.234","","key","arrowleft","16.69910909090699","720","380.5","235","9","-1","30","15","25","35","true"
"null","null","psychophysics","480","1260537","0.0-3.0-1.234","","key","null","16.69881666666673","720","380.5","","","","","","","",""
"1308.1000000014901","arrowleft","psychophysics","481","1261850","0.0-3.0-0.235","","key","arrowleft","16.698740259741204","720","380.5","236","9","1","20","15","25","35","false"
"null","null","psychophysics","482","1262859","0.0-3.0-1.235","","key","null","16.699166666665892","720","380.5","","","","","","","",""
"1065.2999999970198","arrowright","psychophysics","483","1263929","0.0-3.0-0.236","","key","arrowright","16.6988412698413","720","380.5","237","9","-1","20","35","25","35","false"
"null","null","psychophysics","484","1264940","0.0-3.0-1.236","","key","null","16.699118644066186","720","380.5","","","","","","","",""
"705.8999999985099","arrowright","psychophysics","485","1265658","0.0-3.0-0.237","","key","arrowright","16.69904761905006","720","380.5","238","9","-1","23","35","25","35","false"
"null","null","psychophysics","486","1266677","0.0-3.0-1.237","","key","null","16.699099999999937","720","380.5","","","","","","","",""
"2017.0999999977648","arrowright","psychophysics","487","1268706","0.0-3.0-0.238","","key","arrowright","16.838000000000466","720","380.5","239","9","-1","20","15","25","35","false"
"null","null","psychophysics","488","1269715","0.0-3.0-1.238","","key","null","16.699576271184863","720","380.5","","","","","","","",""
"1401.6000000014901","arrowleft","psychophysics","489","1271130","0.0-3.0-0.239","","key","arrowleft","16.699095238094394","720","380.5","240","9","1","20","35","25","35","false"
"null","null","psychophysics","490","1272137","0.0-3.0-1.239","","key","null","16.69903389830537","720","380.5","","","","","","","",""
"1185.5","arrowright","psychophysics","491","1273347","0.0-3.0-0.240","","key","arrowright","16.6991250000008","720","380.5","241","9","1","27","35","25","35","true"
"null","null","psychophysics","492","1274358","0.0-3.0-1.240","","key","null","16.69866101695146","720","380.5","","","","","","","",""
"965.3000000007451","arrowleft","psychophysics","493","1275334","0.0-3.0-0.241","","key","arrowleft","16.698965517242023","720","380.5","242","9","-1","24","15","25","35","true"
"null","null","psychophysics","494","1276337","0.0-3.0-1.241","","key","null","16.698999999998673","720","380.5","","","","","","","",""
"804.3000000007451","arrowright","psychophysics","495","1277146","0.0-3.0-0.242","","key","arrowright","16.698936170214747","720","380.5","243","9","-1","23","35","25","35","false"
"null","null","psychophysics","496","1278156","0.0-3.0-1.242","","key","null","16.698916666667596","720","380.5","","","","","","","",""
"2989.699999999255","arrowleft","psychophysics","497","1281170","0.0-3.0-0.243","","key","arrowleft","16.69896089385508","720","380.5","244","9","1","25","35","25","35","false"
"null","null","psychophysics","498","1282173","0.0-3.0-1.243","","key","null","16.69896610169198","720","380.5","","","","","","","",""
"814.8999999985099","arrowright","psychophysics","499","1283000","0.0-3.0-0.244","","key","arrowright","16.69879591836575","720","380.5","245","9","1","27","15","25","35","true"
"null","null","psychophysics","500","1284005","0.0-3.0-1.244","","key","null","16.699288135595715","720","380.5","","","","","","","",""
"861.5999999977648","arrowleft","psychophysics","501","1284870","0.0-3.0-0.245","","key","arrowleft","16.69864705882455","720","380.5","246","9","-1","30","35","25","35","true"
"null","null","psychophysics","502","1285888","0.0-3.0-1.245","","key","null","16.699016666664587","720","380.5","","","","","","","",""
"821.3000000007451","arrowright","psychophysics","503","1286713","0.0-3.0-0.246","","key","arrowright","16.69870833333213","720","380.5","247","9","1","24","15","25","35","true"
"null","null","psychophysics","504","1287717","0.0-3.0-1.246","","key","null","16.699491525424044","720","380.5","","","","","","","",""
"948.6999999992549","arrowright","psychophysics","505","1288677","0.0-3.0-0.247","","key","arrowright","16.698947368422523","720","380.5","248","9","1","27","35","25","35","true"
"null","null","psychophysics","506","1289687","0.0-3.0-1.247","","key","null","16.69932203389846","720","380.5","","","","","","","",""
"3135","arrowright","psychophysics","507","1292836","0.0-3.0-0.248","","key","arrowright","16.698973404254733","720","380.5","249","9","-1","25","15","25","35","false"
"null","null","psychophysics","508","1293853","0.0-3.0-1.248","","key","null","16.699233333331843","720","380.5","","","","","","","",""
"649","arrowleft","psychophysics","509","1294506","0.0-3.0-0.249","","key","arrowleft","16.699578947363126","720","380.5","250","9","-1","27","35","25","35","true"
"null","null","psychophysics","510","1295515","0.0-3.0-1.249","","key","null","16.69905084746069","720","380.5","","","","","","","",""
"597.5","arrowright","psychophysics","511","1296125","0.0-3.0-0.250","","key","arrowright","16.699249999998656","720","380.5","251","9","-1","23","35","25","35","false"
"null","null","psychophysics","512","1297135","0.0-3.0-1.250","","key","null","16.69903389830537","720","380.5","","","","","","","",""
"815.0999999977648","arrowright","psychophysics","513","1297962","0.0-3.0-0.251","","key","arrowright","16.699306122450235","720","380.5","252","10","-1","20","35","25","35","false"
"null","null","psychophysics","514","1298972","0.0-3.0-1.251","","key","null","16.698762711863647","720","380.5","","","","","","","",""
"2507","arrowright","html-keyboard-response","515","1301493","0.0-3.0-2.251-0.251","<div style=""color: white; text-align: center; vertical-align: top; display: inline-block; width: 800px; margin: auto""><p>You have completed 90% of the trials. You are on block 10 of 10. <br>Good job! Take a break if you need to.</p><p>Press any key to continue the experiment.</p></div>","","","","","","","","","","","","",""
"1708.5999999977648","arrowright","psychophysics","516","1304225","0.0-3.0-0.252","","key","arrowright","16.717436893205655","720","380.5","253","10","-1","26","35","25","35","false"
"null","null","psychophysics","517","1305231","0.0-3.0-1.252","","key","null","16.69888135593116","720","380.5","","","","","","","",""
"773.6999999992549","arrowleft","psychophysics","518","1306028","0.0-3.0-0.253","","key","arrowleft","16.69885106383268","720","380.5","254","10","-1","30","35","25","35","true"
"null","null","psychophysics","519","1307038","0.0-3.0-1.253","","key","null","16.6989830508473","720","380.5","","","","","","","",""
"800.1999999992549","arrowleft","psychophysics","520","1307850","0.0-3.0-0.254","","key","arrowleft","16.698833333333216","720","380.5","255","10","1","20","15","25","35","false"
"null","null","psychophysics","521","1308855","0.0-3.0-1.254","","key","null","16.698813559321717","720","380.5","","","","","","","",""
"2615","arrowright","psychophysics","522","1311474","0.0-3.0-0.255","","key","arrowright","16.6989551282052","720","380.5","256","10","-1","26","35","25","35","false"
"null","null","psychophysics","523","1312488","0.0-3.0-1.255","","key","null","16.698866666667165","720","380.5","","","","","","","",""
"1069","arrowright","psychophysics","524","1313562","0.0-3.0-0.256","","key","arrowright","16.698857142856077","720","380.5","257","10","1","26","35","25","35","true"
"null","null","psychophysics","525","1314564","0.0-3.0-1.256","","key","null","16.699135593221506","720","380.5","","","","","","","",""
"1515.699999999255","arrowleft","psychophysics","526","1316083","0.0-3.0-0.257","","key","arrowleft","16.69896666666803","720","380.5","258","10","-1","20","15","25","35","true"
"null","null","psychophysics","527","1317090","0.0-3.0-1.257","","key","null","16.699152542372882","720","380.5","","","","","","","",""
"908.1999999992549","arrowright","psychophysics","528","1318010","0.0-3.0-0.258","","key","arrowright","16.69883333333699","720","380.5","259","10","-1","24","35","25","35","false"
"null","null","psychophysics","529","1319022","0.0-3.0-1.258","","key","null","16.699216666666324","720","380.5","","","","","","","",""
"2785","arrowright","psychophysics","530","1321810","0.0-3.0-0.259","","key","arrowright","16.69904216867451","720","380.5","260","10","1","27","35","25","35","true"
"null","null","psychophysics","531","1322816","0.0-3.0-1.259","","key","null","16.699169491524255","720","380.5","","","","","","","",""
"635.5999999977648","arrowright","psychophysics","532","1323466","0.0-3.0-0.260","","key","arrowright","16.700131578946877","720","380.5","261","10","-1","20","35","25","35","false"
"null","null","psychophysics","533","1324472","0.0-3.0-1.260","","key","null","16.69947457627267","720","380.5","","","","","","","",""
"1822.9000000022352","arrowright","psychophysics","534","1326317","0.0-3.0-0.261","","key","arrowright","16.69903636363504","720","380.5","262","10","-1","25","35","25","35","false"
"null","null","psychophysics","535","1327327","0.0-3.0-1.261","","key","null","16.698999999998673","720","380.5","","","","","","","",""
"563.2000000029802","arrowright","psychophysics","536","1327904","0.0-3.0-0.262","","key","arrowright","16.698676470591796","720","380.5","263","10","-1","20","35","25","35","false"
"null","null","psychophysics","537","1328913","0.0-3.0-1.262","","key","null","16.698813559321717","720","380.5","","","","","","","",""
"647.6999999992549","arrowleft","psychophysics","538","1329574","0.0-3.0-0.263","","key","arrowleft","16.698871794867163","720","380.5","264","10","-1","30","15","25","35","true"
"null","null","psychophysics","539","1330583","0.0-3.0-1.263","","key","null","16.69894915254455","720","380.5","","","","","","","",""
"921","arrowright","psychophysics","540","1331527","0.0-3.0-0.264","","key","arrowright","16.699000000001565","720","380.5","265","10","1","24","35","25","35","true"
"null","null","psychophysics","541","1332537","0.0-3.0-1.264","","key","null","16.69888135593116","720","380.5","","","","","","","",""
"781.8000000007451","arrowleft","psychophysics","542","1333330","0.0-3.0-0.265","","key","arrowleft","16.698510638299457","720","380.5","266","10","-1","23","15","25","35","true"
"null","null","psychophysics","543","1334341","0.0-3.0-1.265","","key","null","16.698966101695927","720","380.5","","","","","","","",""
"4074.5","arrowleft","psychophysics","544","1338426","0.0-3.0-0.266","","key","arrowleft","16.698922131147587","720","380.5","267","10","-1","26","15","25","35","true"
"null","null","psychophysics","545","1339440","0.0-3.0-1.266","","key","null","16.699233333331843","720","380.5","","","","","","","",""
"665.8999999985099","arrowright","psychophysics","546","1340111","0.0-3.0-0.267","","key","arrowright","16.699153846153656","720","380.5","268","10","-1","20","35","25","35","false"
"null","null","psychophysics","547","1341120","0.0-3.0-1.267","","key","null","16.698864406779787","720","380.5","","","","","","","",""
"2556.599999997765","arrowleft","psychophysics","548","1343690","0.0-3.0-0.268","","key","arrowleft","16.698986928105","720","380.5","269","10","1","25","35","25","35","false"
"null","null","psychophysics","549","1344694","0.0-3.0-1.268","","key","null","16.69859322033807","720","380.5","","","","","","","",""
"786.1999999992549","arrowright","psychophysics","550","1345505","0.0-3.0-0.269","","key","arrowright","16.699104166662437","720","380.5","270","10","1","30","35","25","35","true"
"null","null","psychophysics","551","1346514","0.0-3.0-1.269","","key","null","16.698779661015024","720","380.5","","","","","","","",""
"715.1999999992549","arrowleft","psychophysics","552","1347241","0.0-3.0-0.270","","key","arrowleft","16.69916279069798","720","380.5","271","10","1","20","35","25","35","false"
"null","null","psychophysics","553","1348251","0.0-3.0-1.270","","key","null","16.699271186440395","720","380.5","","","","","","","",""
"5825","arrowright","psychophysics","554","1354089","0.0-3.0-0.271","","key","arrowright","16.699011461317596","720","380.5","272","10","-1","24","15","25","35","false"
"null","null","psychophysics","555","1355105","0.0-3.0-1.271","","key","null","16.69870000000034","720","380.5","","","","","","","",""
"1231.3999999985099","arrowleft","psychophysics","556","1356341","0.0-3.0-0.272","","key","arrowleft","16.69917808219229","720","380.5","273","10","1","20","15","25","35","false"
"null","null","psychophysics","557","1357352","0.0-3.0-1.272","","key","null","16.698711864409525","720","380.5","","","","","","","",""
"1221.300000000745","arrowleft","psychophysics","558","1358586","0.0-3.0-0.273","","key","arrowleft","16.69910958903995","720","380.5","274","10","-1","27","15","25","35","true"
"null","null","psychophysics","559","1359589","0.0-3.0-1.273","","key","null","16.698745762712274","720","380.5","","","","","","","",""
"1455.2999999970198","arrowleft","psychophysics","560","1361058","0.0-3.0-0.274","","key","arrowleft","16.699011494253025","720","380.5","275","10","-1","25","15","25","35","true"
"null","null","psychophysics","561","1362079","0.0-3.0-1.274","","key","null","16.699566666665486","720","380.5","","","","","","","",""
"1230.0999999977648","arrowright","psychophysics","562","1363321","0.0-3.0-0.275","","key","arrowright","16.69889189189338","720","380.5","276","10","-1","25","35","25","35","false"
"null","null","psychophysics","563","1364326","0.0-3.0-1.275","","key","null","16.698864406779787","720","380.5","","","","","","","",""
"2642","arrowleft","psychophysics","564","1366972","0.0-3.0-0.276","","key","arrowleft","16.699038216560947","720","380.5","277","10","1","24","15","25","35","false"
"null","null","psychophysics","565","1367984","0.0-3.0-1.276","","key","null","16.69881666666673","720","380.5","","","","","","","",""
"1046.2999999970198","arrowright","psychophysics","566","1369034","0.0-3.0-0.277","","key","arrowright","16.699080645159306","720","380.5","278","10","1","26","15","25","35","true"
"null","null","psychophysics","567","1370044","0.0-3.0-1.277","","key","null","16.698983050851247","720","380.5","","","","","","","",""
"614.6999999992549","arrowleft","psychophysics","568","1370670","0.0-3.0-0.278","","key","arrowleft","16.698837837839903","720","380.5","279","10","-1","27","15","25","35","true"
"null","null","psychophysics","569","1371680","0.0-3.0-1.278","","key","null","16.699576271188807","720","380.5","","","","","","","",""
"766","arrowleft","psychophysics","570","1372459","0.0-3.0-0.279","","key","arrowleft","16.69902173913104","720","380.5","280","11","-1","26","15","25","35","true"
"null","null","psychophysics","571","1373468","0.0-3.0-1.279","","key","null","16.699169491524255","720","380.5","","","","","","","",""
