rt,response,trial_type,trial_index,time_elapsed,internal_node_id,stimulus,response_type,key_press,avg_frame_time,center_x,center_y,trial,block,test_pos,test_inner_radius,test_outer_radius,ref_inner_radius,ref_outer_radius,test_bigger
6404.099999904630,"{""p_id"":""1198"",""age"":""23"",""handedness"":""right"",""sex"":""female"",""other_sex"":""""}",survey-html-form,0,6407,0.0-0.0,,,,,,,,,,,,,,
5642.400000095370, ,html-keyboard-response,1,12056,0.0-1.0,"<p style=""color: white"">Welcome to the Size Judgment Experiment. <br>There will be 10 blocks in this experiment. <br>There will be 28 trials in each block. <br>You will be given a chance to take a break between blocks. <br>Press any key to start the experiment.</p>",,,,,,,,,,,,,
12531.400000095400, ,psychophysics,2,24594,0.0-2.0,,key, ,16.689742666666700,640,344.5,,,,,,,,
2058.7999997139000,arrowleft,psychophysics,3,26666,0.0-3.0-0.0,,key,arrowleft,16.67300000000000,640,344.5,1,1,-1,26,15,25,35,TRUE
null,null,psychophysics,4,27670,0.0-3.0-1.0,,key,null,16.673000000000000,640,344.5,,,,,,,,
8134.10000038147,arrowright,psychophysics,5,35809,0.0-3.0-0.1,,key,arrowright,16.673507186858300,640,344.5,2,1,-1,20,35,25,35,FALSE
null,null,psychophysics,6,36813,0.0-3.0-1.1,,key,null,16.673000000000000,640,344.5,,,,,,,,
2650.800000190740,arrowright,psychophysics,7,39471,0.0-3.0-0.2,,key,arrowright,16.673000000000000,640,344.5,3,1,1,25,15,25,35,TRUE
null,null,psychophysics,8,40475,0.0-3.0-1.2,,key,null,16.672999999999900,640,344.5,,,,,,,,
1332.6000003814700,arrowleft,psychophysics,9,41812,0.0-3.0-0.3,,key,arrowleft,16.673000000000000,640,344.5,4,1,-1,24,15,25,35,TRUE
null,null,psychophysics,10,42818,0.0-3.0-1.3,,key,null,16.67515000000010,640,344.5,,,,,,,,
3751.2999997139000,arrowright,psychophysics,11,46573,0.0-3.0-0.4,,key,arrowright,16.673000000000000,640,344.5,5,1,-1,25,35,25,35,FALSE
null,null,psychophysics,12,47578,0.0-3.0-1.4,,key,null,16.673000000000000,640,344.5,,,,,,,,
3883.699999809270,arrowleft,psychophysics,13,51466,0.0-3.0-0.5,,key,arrowleft,16.673000000000000,640,344.5,6,1,-1,20,15,25,35,TRUE
null,null,psychophysics,14,52468,0.0-3.0-1.5,,key,null,16.674983050847500,640,344.5,,,,,,,,
1360,arrowright,psychophysics,15,53837,0.0-3.0-0.6,,key,arrowright,16.673000000000000,640,344.5,7,1,1,23,15,25,35,TRUE
null,null,psychophysics,16,54839,0.0-3.0-1.6,,key,null,16.673000000000100,640,344.5,,,,,,,,
1802.4000000953700,arrowleft,psychophysics,17,56645,0.0-3.0-0.7,,key,arrowleft,16.673000000000100,640,344.5,8,1,-1,30,35,25,35,TRUE
null,null,psychophysics,18,57646,0.0-3.0-1.7,,key,null,16.673000000000000,640,344.5,,,,,,,,
992,arrowright,psychophysics,19,58642,0.0-3.0-0.8,,key,arrowright,16.673000000000000,640,344.5,9,1,1,30,15,25,35,TRUE
null,null,psychophysics,20,59647,0.0-3.0-1.8,,key,null,16.673000000000100,640,344.5,,,,,,,,
875.5,arrowleft,psychophysics,21,60525,0.0-3.0-0.9,,key,arrowleft,16.673000000000100,640,344.5,10,1,-1,30,15,25,35,TRUE
null,null,psychophysics,22,61527,0.0-3.0-1.9,,key,null,16.673000000000100,640,344.5,,,,,,,,
1549.0999999046300,arrowright,psychophysics,23,63078,0.0-3.0-0.10,,key,arrowright,16.673467391304300,640,344.5,11,1,1,27,35,25,35,TRUE
null,null,psychophysics,24,64080,0.0-3.0-1.10,,key,null,16.673000000000000,640,344.5,,,,,,,,
1044.6999998092700,arrowleft,psychophysics,25,65131,0.0-3.0-0.11,,key,arrowleft,16.67299999999990,640,344.5,12,1,1,23,35,25,35,FALSE
null,null,psychophysics,26,66133,0.0-3.0-1.11,,key,null,16.672999999999900,640,344.5,,,,,,,,
877.3999996185300,arrowright,psychophysics,27,67013,0.0-3.0-0.12,,key,arrowright,16.673000000000000,640,344.5,13,1,1,30,15,25,35,TRUE
null,null,psychophysics,28,68014,0.0-3.0-1.12,,key,null,16.672999999999900,640,344.5,,,,,,,,
3081.6000003814700,arrowright,psychophysics,29,71100,0.0-3.0-0.13,,key,arrowright,16.67300000000010,640,344.5,14,1,1,27,35,25,35,TRUE
null,null,psychophysics,30,72103,0.0-3.0-1.13,,key,null,16.673000000000200,640,344.5,,,,,,,,
1693.0999999046300,arrowleft,psychophysics,31,73800,0.0-3.0-0.14,,key,arrowleft,16.67425742574250,640,344.5,15,1,-1,26,35,25,35,TRUE
null,null,psychophysics,32,74801,0.0-3.0-1.14,,key,null,16.672999999999900,640,344.5,,,,,,,,
1243.7999997139000,arrowleft,psychophysics,33,76049,0.0-3.0-0.15,,key,arrowleft,16.673000000000000,640,344.5,16,1,-1,27,35,25,35,TRUE
null,null,psychophysics,34,77051,0.0-3.0-1.15,,key,null,16.672999999999800,640,344.5,,,,,,,,
1042.3000001907300,arrowright,psychophysics,35,78098,0.0-3.0-0.16,,key,arrowright,16.94632786885240,640,344.5,17,1,1,27,35,25,35,TRUE
null,null,psychophysics,36,79100,0.0-3.0-1.16,,key,null,16.673000000000200,640,344.5,,,,,,,,
1001.0999999046300,arrowright,psychophysics,37,80103,0.0-3.0-0.17,,key,arrowright,16.672999999999900,640,344.5,18,1,-1,23,35,25,35,FALSE
null,null,psychophysics,38,81105,0.0-3.0-1.17,,key,null,16.672999999999900,640,344.5,,,,,,,,
1081.0999999046300,arrowright,psychophysics,39,82190,0.0-3.0-0.18,,key,arrowright,16.673000000000000,640,344.5,19,1,-1,23,35,25,35,FALSE
null,null,psychophysics,40,83191,0.0-3.0-1.18,,key,null,16.675101694915100,640,344.5,,,,,,,,
1692,arrowright,psychophysics,41,84888,0.0-3.0-0.19,,key,arrowright,16.67300000000000,640,344.5,20,1,-1,25,35,25,35,FALSE
null,null,psychophysics,42,85891,0.0-3.0-1.19,,key,null,16.673000000000200,640,344.5,,,,,,,,
945,arrowright,psychophysics,43,86840,0.0-3.0-0.20,,key,arrowright,16.672999999999900,640,344.5,21,1,1,30,15,25,35,TRUE
null,null,psychophysics,44,87842,0.0-3.0-1.20,,key,null,16.672999999999900,640,344.5,,,,,,,,
1131,arrowright,psychophysics,45,88977,0.0-3.0-0.21,,key,arrowright,16.673000000000000,640,344.5,22,1,-1,20,15,25,35,FALSE
null,null,psychophysics,46,89981,0.0-3.0-1.21,,key,null,16.672999999999900,640,344.5,,,,,,,,
837.5,arrowright,psychophysics,47,90823,0.0-3.0-0.22,,key,arrowright,16.673000000000200,640,344.5,23,1,1,26,15,25,35,TRUE
null,null,psychophysics,48,91825,0.0-3.0-1.22,,key,null,16.672999999999900,640,344.5,,,,,,,,
975.8000001907350,arrowleft,psychophysics,49,92805,0.0-3.0-0.23,,key,arrowleft,16.674500000000000,640,344.5,24,1,-1,23,15,25,35,TRUE
null,null,psychophysics,50,93808,0.0-3.0-1.23,,key,null,16.672999999999900,640,344.5,,,,,,,,
796.5,arrowleft,psychophysics,51,94608,0.0-3.0-0.24,,key,arrowleft,16.67299999999990,640,344.5,25,1,1,20,35,25,35,FALSE
null,null,psychophysics,52,95612,0.0-3.0-1.24,,key,null,16.673000000000200,640,344.5,,,,,,,,
2686,arrowright,psychophysics,53,98302,0.0-3.0-0.25,,key,arrowright,16.673000000000000,640,344.5,26,1,-1,25,15,25,35,FALSE
null,null,psychophysics,54,99306,0.0-3.0-1.25,,key,null,16.673000000000100,640,344.5,,,,,,,,
1658.3000001907300,arrowleft,psychophysics,55,100968,0.0-3.0-0.26,,key,arrowleft,16.673000000000000,640,344.5,27,1,1,24,35,25,35,FALSE
null,null,psychophysics,56,101972,0.0-3.0-1.26,,key,null,16.673000000000200,640,344.5,,,,,,,,
700.5,arrowright,psychophysics,57,102680,0.0-3.0-0.27,,key,arrowright,16.679071428571600,640,344.5,28,2,1,25,15,25,35,TRUE
null,null,psychophysics,58,103682,0.0-3.0-1.27,,key,null,16.672999999999900,640,344.5,,,,,,,,
4830.299999713900, ,html-keyboard-response,59,108514,0.0-3.0-2.27-0.27,"<div style=""color: white; text-align: center; vertical-align: top; display: inline-block; width: 800px; margin: auto""><p>You have completed 10% of the trials. You are on block 2 of 10. <br>Good job! Take a break if you need to.</p><p>Press any key to continue the experiment.</p></div>",,,,,,,,,,,,,
5619.599999904630,arrowright,psychophysics,60,115144,0.0-3.0-0.28,,key,arrowright,16.648695266272200,640,344.5,29,2,1,26,15,25,35,TRUE
null,null,psychophysics,61,116146,0.0-3.0-1.28,,key,null,16.672999999999900,640,344.5,,,,,,,,
1414.4000000953700,arrowleft,psychophysics,62,117567,0.0-3.0-0.29,,key,arrowleft,16.672999999999900,640,344.5,30,2,-1,24,15,25,35,TRUE
null,null,psychophysics,63,118571,0.0-3.0-1.29,,key,null,16.672999999999900,640,344.5,,,,,,,,
937,arrowright,psychophysics,64,119512,0.0-3.0-0.30,,key,arrowright,16.673000000000200,640,344.5,31,2,-1,20,35,25,35,FALSE
null,null,psychophysics,65,120514,0.0-3.0-1.30,,key,null,16.672999999999900,640,344.5,,,,,,,,
1548.1999998092700,arrowright,psychophysics,66,122066,0.0-3.0-0.31,,key,arrowright,16.673000000000000,640,344.5,32,2,1,27,35,25,35,TRUE
null,null,psychophysics,67,123071,0.0-3.0-1.31,,key,null,16.674864406779600,640,344.5,,,,,,,,
1371.5999999046300,arrowleft,psychophysics,68,124449,0.0-3.0-0.32,,key,arrowleft,16.67300000000000,640,344.5,33,2,1,25,35,25,35,FALSE
null,null,psychophysics,69,125452,0.0-3.0-1.32,,key,null,16.672999999999900,640,344.5,,,,,,,,
663.4000000953670,arrowleft,psychophysics,70,126118,0.0-3.0-0.33,,key,arrowleft,16.672999999999700,640,344.5,34,2,-1,30,15,25,35,TRUE
null,null,psychophysics,71,127122,0.0-3.0-1.33,,key,null,16.672999999999900,640,344.5,,,,,,,,
641,arrowright,psychophysics,72,127767,0.0-3.0-0.34,,key,arrowright,16.673000000000200,640,344.5,35,2,-1,23,35,25,35,FALSE
null,null,psychophysics,73,128771,0.0-3.0-1.34,,key,null,16.673000000000200,640,344.5,,,,,,,,
816.1999998092650,arrowright,psychophysics,74,129590,0.0-3.0-0.35,,key,arrowright,16.673000000000100,640,344.5,36,2,1,26,15,25,35,TRUE
null,null,psychophysics,75,130593,0.0-3.0-1.35,,key,null,16.672999999999900,640,344.5,,,,,,,,
1071.3000001907300,arrowright,psychophysics,76,131668,0.0-3.0-0.36,,key,arrowright,16.672999999999800,640,344.5,37,2,-1,25,35,25,35,FALSE
null,null,psychophysics,77,132669,0.0-3.0-1.36,,key,null,16.673932203389600,640,344.5,,,,,,,,
698,arrowright,psychophysics,78,133371,0.0-3.0-0.37,,key,arrowright,16.672999999999800,640,344.5,38,2,-1,20,15,25,35,FALSE
null,null,psychophysics,79,134376,0.0-3.0-1.37,,key,null,16.672999999999900,640,344.5,,,,,,,,
1517.8000001907300,arrowleft,psychophysics,80,135898,0.0-3.0-0.38,,key,arrowleft,16.673000000000100,640,344.5,39,2,-1,25,35,25,35,TRUE
null,null,psychophysics,81,136900,0.0-3.0-1.38,,key,null,16.673000000000100,640,344.5,,,,,,,,
670.1999998092650,arrowright,psychophysics,82,137575,0.0-3.0-0.39,,key,arrowright,16.673000000000100,640,344.5,40,2,1,30,15,25,35,TRUE
null,null,psychophysics,83,138579,0.0-3.0-1.39,,key,null,16.672999999999900,640,344.5,,,,,,,,
653.5,arrowleft,psychophysics,84,139237,0.0-3.0-0.40,,key,arrowleft,16.673000000000100,640,344.5,41,2,-1,30,35,25,35,TRUE
null,null,psychophysics,85,140243,0.0-3.0-1.40,,key,null,16.672999999999900,640,344.5,,,,,,,,
616.6999998092650,arrowright,psychophysics,86,140863,0.0-3.0-0.41,,key,arrowright,16.67299999999930,640,344.5,42,2,-1,25,35,25,35,FALSE
null,null,psychophysics,87,141867,0.0-3.0-1.41,,key,null,16.673000000000100,640,344.5,,,,,,,,
471.7000002861020,arrowright,psychophysics,88,142343,0.0-3.0-0.42,,key,arrowright,16.673000000000100,640,344.5,43,2,-1,20,15,25,35,FALSE
null,null,psychophysics,89,143347,0.0-3.0-1.42,,key,null,16.67654237288130,640,344.5,,,,,,,,
655.5,arrowright,psychophysics,90,144006,0.0-3.0-0.43,,key,arrowright,16.673000000000100,640,344.5,44,2,1,30,35,25,35,TRUE
null,null,psychophysics,91,145008,0.0-3.0-1.43,,key,null,16.673000000000400,640,344.5,,,,,,,,
646.8000001907350,arrowleft,psychophysics,92,145661,0.0-3.0-0.44,,key,arrowleft,16.673000000000600,640,344.5,45,2,-1,25,15,25,35,TRUE
null,null,psychophysics,93,146666,0.0-3.0-1.44,,key,null,16.672999999999900,640,344.5,,,,,,,,
647.3000001907350,arrowleft,psychophysics,94,147317,0.0-3.0-0.45,,key,arrowleft,16.67299999999980,640,344.5,46,2,1,20,35,25,35,FALSE
null,null,psychophysics,95,148320,0.0-3.0-1.45,,key,null,16.673000000000100,640,344.5,,,,,,,,
1102.4000000953700,arrowright,psychophysics,96,149426,0.0-3.0-0.46,,key,arrowright,16.673000000000400,640,344.5,47,2,1,25,35,25,35,TRUE
null,null,psychophysics,97,150429,0.0-3.0-1.46,,key,null,16.672999999999900,640,344.5,,,,,,,,
791.1999998092650,arrowright,psychophysics,98,151229,0.0-3.0-0.47,,key,arrowright,16.67299999999990,640,344.5,48,2,1,25,35,25,35,TRUE
null,null,psychophysics,99,152234,0.0-3.0-1.47,,key,null,16.672999999999900,640,344.5,,,,,,,,
615.5,arrowright,psychophysics,100,152853,0.0-3.0-0.48,,key,arrowright,16.676194444444300,640,344.5,49,2,-1,20,35,25,35,FALSE
null,null,psychophysics,101,153856,0.0-3.0-1.48,,key,null,16.673000000000100,640,344.5,,,,,,,,
634.1999998092650,arrowleft,psychophysics,102,154494,0.0-3.0-0.49,,key,arrowleft,16.67300000000030,640,344.5,50,2,-1,27,15,25,35,TRUE
null,null,psychophysics,103,155496,0.0-3.0-1.49,,key,null,16.673000000000400,640,344.5,,,,,,,,
896.7999997138980,arrowright,psychophysics,104,156396,0.0-3.0-0.50,,key,arrowright,16.673000000000400,640,344.5,51,2,1,27,35,25,35,TRUE
null,null,psychophysics,105,157402,0.0-3.0-1.50,,key,null,16.672999999999900,640,344.5,,,,,,,,
1105.4000000953700,arrowleft,psychophysics,106,158511,0.0-3.0-0.51,,key,arrowleft,16.673000000000100,640,344.5,52,2,-1,25,35,25,35,TRUE
null,null,psychophysics,107,159514,0.0-3.0-1.51,,key,null,16.673000000000400,640,344.5,,,,,,,,
923.1999998092650,arrowright,psychophysics,108,160441,0.0-3.0-0.52,,key,arrowright,16.673000000000100,640,344.5,53,2,1,27,35,25,35,TRUE
null,null,psychophysics,109,161443,0.0-3.0-1.52,,key,null,16.673000000000100,640,344.5,,,,,,,,
1333.2999997139000,arrowleft,psychophysics,110,162780,0.0-3.0-0.53,,key,arrowleft,16.673961538461800,640,344.5,54,2,1,23,35,25,35,FALSE
null,null,psychophysics,111,163783,0.0-3.0-1.53,,key,null,16.673000000000100,640,344.5,,,,,,,,
561.5,arrowleft,psychophysics,112,164348,0.0-3.0-0.54,,key,arrowleft,16.673000000000100,640,344.5,55,2,1,20,15,25,35,FALSE
null,null,psychophysics,113,165350,0.0-3.0-1.54,,key,null,16.673000000000400,640,344.5,,,,,,,,
665,arrowright,psychophysics,114,166018,0.0-3.0-0.55,,key,arrowright,16.673000000000100,640,344.5,56,3,1,24,15,25,35,TRUE
null,null,psychophysics,115,167022,0.0-3.0-1.55,,key,null,16.672999999999900,640,344.5,,,,,,,,
3001.0999999046300, ,html-keyboard-response,116,170035,0.0-3.0-2.55-0.55,"<div style=""color: white; text-align: center; vertical-align: top; display: inline-block; width: 800px; margin: auto""><p>You have completed 20% of the trials. You are on block 3 of 10. <br>Good job! Take a break if you need to.</p><p>Press any key to continue the experiment.</p></div>",,,,,,,,,,,,,
2050.2999997139000,arrowleft,psychophysics,117,173094,0.0-3.0-0.56,,key,arrowleft,16.717073770491900,640,344.5,57,3,-1,30,35,25,35,TRUE
null,null,psychophysics,118,174097,0.0-3.0-1.56,,key,null,16.672999999999900,640,344.5,,,,,,,,
882.5,arrowright,psychophysics,119,174983,0.0-3.0-0.57,,key,arrowright,16.673000000000300,640,344.5,58,3,1,26,35,25,35,TRUE
null,null,psychophysics,120,175985,0.0-3.0-1.57,,key,null,16.673000000000100,640,344.5,,,,,,,,
596.4000000953670,arrowright,psychophysics,121,176588,0.0-3.0-0.58,,key,arrowright,16.6729999999998,640,344.5,59,3,-1,24,35,25,35,FALSE
null,null,psychophysics,122,177590,0.0-3.0-1.58,,key,null,16.672999999999900,640,344.5,,,,,,,,
580,arrowleft,psychophysics,123,178173,0.0-3.0-0.59,,key,arrowleft,16.673000000000400,640,344.5,60,3,-1,30,15,25,35,TRUE
null,null,psychophysics,124,179176,0.0-3.0-1.59,,key,null,16.672999999999900,640,344.5,,,,,,,,
1343.9000000953700,arrowright,psychophysics,125,180523,0.0-3.0-0.60,,key,arrowright,16.673000000000000,640,344.5,61,3,1,24,15,25,35,TRUE
null,null,psychophysics,126,181525,0.0-3.0-1.60,,key,null,16.672999999999900,640,344.5,,,,,,,,
1228.1999998092700,arrowleft,psychophysics,127,182759,0.0-3.0-0.61,,key,arrowleft,16.676506849315200,640,344.5,62,3,1,25,35,25,35,FALSE
null,null,psychophysics,128,183761,0.0-3.0-1.61,,key,null,16.673000000000400,640,344.5,,,,,,,,
595.8999996185300,arrowright,psychophysics,129,184361,0.0-3.0-0.62,,key,arrowright,16.67300000000060,640,344.5,63,3,1,30,15,25,35,TRUE
null,null,psychophysics,130,185363,0.0-3.0-1.62,,key,null,16.672999999999900,640,344.5,,,,,,,,
984.1000003814700,arrowright,psychophysics,131,186351,0.0-3.0-0.63,,key,arrowright,16.673000000000200,640,344.5,64,3,-1,23,35,25,35,FALSE
null,null,psychophysics,132,187354,0.0-3.0-1.63,,key,null,16.672999999999900,640,344.5,,,,,,,,
749.5,arrowleft,psychophysics,133,188114,0.0-3.0-0.64,,key,arrowleft,16.673000000000100,640,344.5,65,3,-1,26,15,25,35,TRUE
null,null,psychophysics,134,189115,0.0-3.0-1.64,,key,null,16.672999999999900,640,344.5,,,,,,,,
883.6999998092650,arrowleft,psychophysics,135,190003,0.0-3.0-0.65,,key,arrowleft,16.673000000000300,640,344.5,66,3,-1,25,15,25,35,TRUE
null,null,psychophysics,136,191006,0.0-3.0-1.65,,key,null,16.672999999999900,640,344.5,,,,,,,,
752.7999997138980,arrowleft,psychophysics,137,191762,0.0-3.0-0.66,,key,arrowleft,16.67299999999940,640,344.5,67,3,-1,24,15,25,35,TRUE
null,null,psychophysics,138,192764,0.0-3.0-1.66,,key,null,16.67498305084730,640,344.5,,,,,,,,
872.5,arrowleft,psychophysics,139,193641,0.0-3.0-0.67,,key,arrowleft,16.673000000000100,640,344.5,68,3,-1,26,15,25,35,TRUE
null,null,psychophysics,140,194657,0.0-3.0-1.67,,key,null,16.673000000000100,640,344.5,,,,,,,,
855,arrowright,psychophysics,141,195516,0.0-3.0-0.68,,key,arrowright,16.673000000000100,640,344.5,69,3,1,26,35,25,35,TRUE
null,null,psychophysics,142,196518,0.0-3.0-1.68,,key,null,16.672999999999900,640,344.5,,,,,,,,
645.8000001907350,arrowleft,psychophysics,143,197167,0.0-3.0-0.69,,key,arrowleft,16.673000000000600,640,344.5,70,3,-1,25,15,25,35,TRUE
null,null,psychophysics,144,198169,0.0-3.0-1.69,,key,null,16.672999999999900,640,344.5,,,,,,,,
696,arrowright,psychophysics,145,198869,0.0-3.0-0.70,,key,arrowright,16.672999999999800,640,344.5,71,3,1,30,35,25,35,TRUE
null,null,psychophysics,146,199870,0.0-3.0-1.70,,key,null,16.672999999999900,640,344.5,,,,,,,,
740.5999999046330,arrowright,psychophysics,147,200618,0.0-3.0-0.71,,key,arrowright,16.672999999999900,640,344.5,72,3,1,25,15,25,35,TRUE
null,null,psychophysics,148,201620,0.0-3.0-1.71,,key,null,16.672999999999900,640,344.5,,,,,,,,
1201.0999999046300,arrowright,psychophysics,149,202825,0.0-3.0-0.72,,key,arrowright,16.674690140844900,640,344.5,73,3,1,23,15,25,35,TRUE
null,null,psychophysics,150,203829,0.0-3.0-1.72,,key,null,16.672999999999900,640,344.5,,,,,,,,
927.4000000953670,arrowright,psychophysics,151,204760,0.0-3.0-0.73,,key,arrowright,16.673000000000300,640,344.5,74,3,1,25,15,25,35,TRUE
null,null,psychophysics,152,205763,0.0-3.0-1.73,,key,null,16.672999999999900,640,344.5,,,,,,,,
720.9000000953670,arrowright,psychophysics,153,206494,0.0-3.0-0.74,,key,arrowright,16.673000000000300,640,344.5,75,3,1,30,35,25,35,TRUE
null,null,psychophysics,154,207497,0.0-3.0-1.74,,key,null,16.672999999999900,640,344.5,,,,,,,,
592,arrowleft,psychophysics,155,208093,0.0-3.0-0.75,,key,arrowleft,16.67300000000060,640,344.5,76,3,-1,30,15,25,35,TRUE
null,null,psychophysics,156,209094,0.0-3.0-1.75,,key,null,16.673000000000400,640,344.5,,,,,,,,
891.9000000953670,arrowright,psychophysics,157,209990,0.0-3.0-0.76,,key,arrowright,16.672999999999900,640,344.5,77,3,-1,24,35,25,35,FALSE
null,null,psychophysics,158,210992,0.0-3.0-1.76,,key,null,16.672999999999900,640,344.5,,,,,,,,
577.9000000953670,arrowright,psychophysics,159,211573,0.0-3.0-0.77,,key,arrowright,16.672999999999500,640,344.5,78,3,-1,20,15,25,35,FALSE
null,null,psychophysics,160,212579,0.0-3.0-1.77,,key,null,16.672999999999900,640,344.5,,,,,,,,
876.0999999046330,arrowright,psychophysics,161,213459,0.0-3.0-0.78,,key,arrowright,16.67540384615360,640,344.5,79,3,1,23,15,25,35,TRUE
null,null,psychophysics,162,214462,0.0-3.0-1.78,,key,null,16.672999999999900,640,344.5,,,,,,,,
775.2999997138980,arrowright,psychophysics,163,215241,0.0-3.0-0.79,,key,arrowright,16.67300000000030,640,344.5,80,3,1,23,15,25,35,TRUE
null,null,psychophysics,164,216243,0.0-3.0-1.79,,key,null,16.672999999999900,640,344.5,,,,,,,,
831.8999996185300,arrowright,psychophysics,165,217079,0.0-3.0-0.80,,key,arrowright,16.673000000000300,640,344.5,81,3,1,30,35,25,35,TRUE
null,null,psychophysics,166,218085,0.0-3.0-1.80,,key,null,16.672999999999900,640,344.5,,,,,,,,
638.5,arrowleft,psychophysics,167,218727,0.0-3.0-0.81,,key,arrowleft,16.67299999999980,640,344.5,82,3,-1,30,35,25,35,TRUE
null,null,psychophysics,168,219729,0.0-3.0-1.81,,key,null,16.672999999999900,640,344.5,,,,,,,,
887.2000002861020,arrowright,psychophysics,169,220619,0.0-3.0-0.82,,key,arrowright,16.672999999999700,640,344.5,83,3,1,25,15,25,35,TRUE
null,null,psychophysics,170,221623,0.0-3.0-1.82,,key,null,16.673000000000100,640,344.5,,,,,,,,
1104.9000000953700,arrowright,psychophysics,171,222731,0.0-3.0-0.83,,key,arrowright,16.673000000000400,640,344.5,84,4,1,23,15,25,35,TRUE
null,null,psychophysics,172,223737,0.0-3.0-1.83,,key,null,16.67518644067810,640,344.5,,,,,,,,
2384.5999999046300, ,html-keyboard-response,173,226124,0.0-3.0-2.83-0.83,"<div style=""color: white; text-align: center; vertical-align: top; display: inline-block; width: 800px; margin: auto""><p>You have completed 30% of the trials. You are on block 4 of 10. <br>Good job! Take a break if you need to.</p><p>Press any key to continue the experiment.</p></div>",,,,,,,,,,,,,
915.2000002861020,arrowright,psychophysics,174,228047,0.0-3.0-0.84,,key,arrowright,16.673000000000300,640,344.5,85,4,-1,25,35,25,35,FALSE
null,null,psychophysics,175,229050,0.0-3.0-1.84,,key,null,16.672999999999900,640,344.5,,,,,,,,
618.5,arrowleft,psychophysics,176,229677,0.0-3.0-0.85,,key,arrowleft,16.67300000000030,640,344.5,86,4,-1,27,15,25,35,TRUE
null,null,psychophysics,177,230679,0.0-3.0-1.85,,key,null,16.672999999999900,640,344.5,,,,,,,,
562.5,arrowright,psychophysics,178,231245,0.0-3.0-0.86,,key,arrowright,16.672999999999200,640,344.5,87,4,-1,20,15,25,35,FALSE
null,null,psychophysics,179,232247,0.0-3.0-1.86,,key,null,16.672999999999900,640,344.5,,,,,,,,
941.6999998092650,arrowright,psychophysics,180,233192,0.0-3.0-0.87,,key,arrowright,16.771909090908900,640,344.5,88,4,1,20,15,25,35,TRUE
null,null,psychophysics,181,234194,0.0-3.0-1.87,,key,null,16.672999999999900,640,344.5,,,,,,,,
1334.2000002861000,arrowleft,psychophysics,182,235532,0.0-3.0-0.88,,key,arrowleft,16.67299999999980,640,344.5,89,4,-1,23,15,25,35,TRUE
null,null,psychophysics,183,236537,0.0-3.0-1.88,,key,null,16.673000000000100,640,344.5,,,,,,,,
839.5999999046330,arrowright,psychophysics,184,237380,0.0-3.0-0.89,,key,arrowright,16.672999999999700,640,344.5,90,4,1,25,15,25,35,TRUE
null,null,psychophysics,185,238382,0.0-3.0-1.89,,key,null,16.672999999999900,640,344.5,,,,,,,,
730.4000000953670,arrowleft,psychophysics,186,239116,0.0-3.0-0.90,,key,arrowleft,16.672999999999600,640,344.5,91,4,-1,30,15,25,35,TRUE
null,null,psychophysics,187,240119,0.0-3.0-1.90,,key,null,16.673000000000100,640,344.5,,,,,,,,
1357.7999997139000,arrowright,psychophysics,188,241480,0.0-3.0-0.91,,key,arrowright,16.673000000000000,640,344.5,92,4,1,24,35,25,35,TRUE
null,null,psychophysics,189,242486,0.0-3.0-1.91,,key,null,16.673000000000100,640,344.5,,,,,,,,
646,arrowright,psychophysics,190,243136,0.0-3.0-0.92,,key,arrowright,16.678270270270000,640,344.5,93,4,1,26,15,25,35,TRUE
null,null,psychophysics,191,244138,0.0-3.0-1.92,,key,null,16.672999999999600,640,344.5,,,,,,,,
705.7999997138980,arrowright,psychophysics,192,244847,0.0-3.0-0.93,,key,arrowright,16.672999999999800,640,344.5,94,4,1,25,15,25,35,TRUE
null,null,psychophysics,193,245849,0.0-3.0-1.93,,key,null,16.672999999999900,640,344.5,,,,,,,,
829.9000000953670,arrowleft,psychophysics,194,246683,0.0-3.0-0.94,,key,arrowleft,16.672999999999700,640,344.5,95,4,1,23,35,25,35,FALSE
null,null,psychophysics,195,247685,0.0-3.0-1.94,,key,null,16.672999999999900,640,344.5,,,,,,,,
630.7999997138980,arrowleft,psychophysics,196,248327,0.0-3.0-0.95,,key,arrowleft,16.67299999999980,640,344.5,96,4,-1,30,35,25,35,TRUE
null,null,psychophysics,197,249329,0.0-3.0-1.95,,key,null,16.672999999999900,640,344.5,,,,,,,,
840.8000001907350,arrowleft,psychophysics,198,250174,0.0-3.0-0.96,,key,arrowleft,16.672999999999700,640,344.5,97,4,1,20,35,25,35,FALSE
null,null,psychophysics,199,251176,0.0-3.0-1.96,,key,null,16.673000000000100,640,344.5,,,,,,,,
2017.7000002861000,arrowleft,psychophysics,200,253197,0.0-3.0-0.97,,key,arrowleft,16.67451666666680,640,344.5,98,4,1,26,35,25,35,FALSE
null,null,psychophysics,201,254199,0.0-3.0-1.97,,key,null,16.672999999999900,640,344.5,,,,,,,,
625.5,arrowleft,psychophysics,202,254834,0.0-3.0-0.98,,key,arrowleft,16.67300000000030,640,344.5,99,4,-1,30,35,25,35,TRUE
null,null,psychophysics,203,255836,0.0-3.0-1.98,,key,null,16.672999999999900,640,344.5,,,,,,,,
755.2000002861020,arrowright,psychophysics,204,256596,0.0-3.0-0.99,,key,arrowright,16.673000000000100,640,344.5,100,4,1,27,15,25,35,TRUE
null,null,psychophysics,205,257598,0.0-3.0-1.99,,key,null,16.672999999999900,640,344.5,,,,,,,,
620,arrowright,psychophysics,206,258222,0.0-3.0-0.100,,key,arrowright,16.673000000000100,640,344.5,101,4,-1,23,35,25,35,FALSE
null,null,psychophysics,207,259226,0.0-3.0-1.100,,key,null,16.673000000000100,640,344.5,,,,,,,,
717.4000000953670,arrowright,psychophysics,208,259947,0.0-3.0-0.101,,key,arrowright,16.673000000000100,640,344.5,102,4,1,23,15,25,35,TRUE
null,null,psychophysics,209,260952,0.0-3.0-1.101,,key,null,16.672999999999900,640,344.5,,,,,,,,
574.5,arrowright,psychophysics,210,261530,0.0-3.0-0.102,,key,arrowright,16.672999999999500,640,344.5,103,4,1,27,15,25,35,TRUE
null,null,psychophysics,211,262532,0.0-3.0-1.102,,key,null,16.672999999999900,640,344.5,,,,,,,,
511.7999997138980,arrowright,psychophysics,212,263047,0.0-3.0-0.103,,key,arrowright,16.676800000000100,640,344.5,104,4,-1,20,35,25,35,FALSE
null,null,psychophysics,213,264050,0.0-3.0-1.103,,key,null,16.672999999999900,640,344.5,,,,,,,,
1085.5999999046300,arrowleft,psychophysics,214,265139,0.0-3.0-0.104,,key,arrowleft,16.672999999999800,640,344.5,105,4,-1,27,35,25,35,TRUE
null,null,psychophysics,215,266141,0.0-3.0-1.104,,key,null,16.672999999999900,640,344.5,,,,,,,,
491,arrowright,psychophysics,216,266644,0.0-3.0-0.105,,key,arrowright,16.672999999999700,640,344.5,106,4,-1,23,15,25,35,FALSE
null,null,psychophysics,217,267646,0.0-3.0-1.105,,key,null,16.673000000000100,640,344.5,,,,,,,,
642.9000000953670,arrowright,psychophysics,218,268293,0.0-3.0-0.106,,key,arrowright,16.672999999998800,640,344.5,107,4,1,26,15,25,35,TRUE
null,null,psychophysics,219,269295,0.0-3.0-1.106,,key,null,16.672999999999900,640,344.5,,,,,,,,
1171,arrowright,psychophysics,220,270472,0.0-3.0-0.107,,key,arrowright,16.6729999999998,640,344.5,108,4,1,23,35,25,35,TRUE
null,null,psychophysics,221,271474,0.0-3.0-1.107,,key,null,16.672999999999900,640,344.5,,,,,,,,
1285.5,arrowright,psychophysics,222,272762,0.0-3.0-0.108,,key,arrowright,16.67299999999980,640,344.5,109,4,-1,24,35,25,35,FALSE
null,null,psychophysics,223,273769,0.0-3.0-1.108,,key,null,16.675050000000400,640,344.5,,,,,,,,
802.5,arrowright,psychophysics,224,274575,0.0-3.0-0.109,,key,arrowright,16.67299999999990,640,344.5,110,4,1,26,15,25,35,TRUE
null,null,psychophysics,225,275577,0.0-3.0-1.109,,key,null,16.672999999999900,640,344.5,,,,,,,,
684.2000002861020,arrowright,psychophysics,226,276264,0.0-3.0-0.110,,key,arrowright,16.673000000001000,640,344.5,111,4,1,23,15,25,35,TRUE
null,null,psychophysics,227,277268,0.0-3.0-1.110,,key,null,16.672999999999100,640,344.5,,,,,,,,
950,arrowright,psychophysics,228,278221,0.0-3.0-0.111,,key,arrowright,16.673000000000400,640,344.5,112,5,1,20,15,25,35,TRUE
null,null,psychophysics,229,279227,0.0-3.0-1.111,,key,null,16.672999999999900,640,344.5,,,,,,,,
2114.7999997139000, ,html-keyboard-response,230,281344,0.0-3.0-2.111-0.111,"<div style=""color: white; text-align: center; vertical-align: top; display: inline-block; width: 800px; margin: auto""><p>You have completed 40% of the trials. You are on block 5 of 10. <br>Good job! Take a break if you need to.</p><p>Press any key to continue the experiment.</p></div>",,,,,,,,,,,,,
686.2999997138980,arrowright,psychophysics,231,283039,0.0-3.0-0.112,,key,arrowright,16.67630952381020,640,344.5,113,5,1,27,15,25,35,TRUE
null,null,psychophysics,232,284041,0.0-3.0-1.112,,key,null,16.672999999999900,640,344.5,,,,,,,,
678.5,arrowright,psychophysics,233,284726,0.0-3.0-0.113,,key,arrowright,16.672999999999600,640,344.5,114,5,1,24,15,25,35,TRUE
null,null,psychophysics,234,285728,0.0-3.0-1.113,,key,null,16.672999999999900,640,344.5,,,,,,,,
869.7999997138980,arrowleft,psychophysics,235,286601,0.0-3.0-0.114,,key,arrowleft,16.672999999999500,640,344.5,115,5,-1,23,15,25,35,TRUE
null,null,psychophysics,236,287603,0.0-3.0-1.114,,key,null,16.672999999999900,640,344.5,,,,,,,,
666.2999997138980,arrowright,psychophysics,237,288277,0.0-3.0-0.115,,key,arrowright,16.672999999999600,640,344.5,116,5,-1,20,35,25,35,FALSE
null,null,psychophysics,238,289279,0.0-3.0-1.115,,key,null,16.672999999999900,640,344.5,,,,,,,,
1121.2999997139000,arrowleft,psychophysics,239,290404,0.0-3.0-0.116,,key,arrowleft,16.673000000000100,640,344.5,117,5,-1,27,35,25,35,TRUE
null,null,psychophysics,240,291411,0.0-3.0-1.116,,key,null,16.673000000000100,640,344.5,,,,,,,,
612.9000000953670,arrowright,psychophysics,241,292028,0.0-3.0-0.117,,key,arrowright,16.673000000000100,640,344.5,118,5,1,27,35,25,35,TRUE
null,null,psychophysics,242,293030,0.0-3.0-1.117,,key,null,16.675033898304900,640,344.5,,,,,,,,
713.3999996185300,arrowleft,psychophysics,243,293747,0.0-3.0-0.118,,key,arrowleft,16.673000000000100,640,344.5,119,5,-1,30,15,25,35,TRUE
null,null,psychophysics,244,294749,0.0-3.0-1.118,,key,null,16.672999999999900,640,344.5,,,,,,,,
696.6999998092650,arrowright,psychophysics,245,295449,0.0-3.0-0.119,,key,arrowright,16.672999999999800,640,344.5,120,5,1,27,15,25,35,TRUE
null,null,psychophysics,246,296452,0.0-3.0-1.119,,key,null,16.672999999999900,640,344.5,,,,,,,,
633.8000001907350,arrowleft,psychophysics,247,297097,0.0-3.0-0.120,,key,arrowleft,16.672999999999100,640,344.5,121,5,1,23,15,25,35,FALSE
null,null,psychophysics,248,298100,0.0-3.0-1.120,,key,null,16.960465517241300,640,344.5,,,,,,,,
835.9000000953670,arrowleft,psychophysics,249,298939,0.0-3.0-0.121,,key,arrowleft,16.673000000000300,640,344.5,122,5,-1,25,35,25,35,TRUE
null,null,psychophysics,250,299942,0.0-3.0-1.121,,key,null,16.672999999999900,640,344.5,,,,,,,,
1004.3000001907300,arrowleft,psychophysics,251,300950,0.0-3.0-0.122,,key,arrowleft,16.673000000000100,640,344.5,123,5,1,23,15,25,35,FALSE
null,null,psychophysics,252,301952,0.0-3.0-1.122,,key,null,16.672999999999900,640,344.5,,,,,,,,
921,arrowleft,psychophysics,253,302884,0.0-3.0-0.123,,key,arrowleft,16.673000000000300,640,344.5,124,5,-1,26,35,25,35,TRUE
null,null,psychophysics,254,303886,0.0-3.0-1.123,,key,null,16.673084745762700,640,344.5,,,,,,,,
2273,arrowleft,psychophysics,255,306163,0.0-3.0-0.124,,key,arrowleft,16.672999999999900,640,344.5,125,5,1,20,15,25,35,FALSE
null,null,psychophysics,256,307165,0.0-3.0-1.124,,key,null,16.673000000000100,640,344.5,,,,,,,,
1399.5999999046300,arrowleft,psychophysics,257,308568,0.0-3.0-0.125,,key,arrowleft,16.67300000000000,640,344.5,126,5,-1,25,15,25,35,TRUE
null,null,psychophysics,258,309576,0.0-3.0-1.125,,key,null,16.672999999999900,640,344.5,,,,,,,,
1580.4000000953700,arrowleft,psychophysics,259,311159,0.0-3.0-0.126,,key,arrowleft,16.673000000000500,640,344.5,127,5,1,24,35,25,35,FALSE
null,null,psychophysics,260,312163,0.0-3.0-1.126,,key,null,16.672999999999900,640,344.5,,,,,,,,
873.5,arrowleft,psychophysics,261,313039,0.0-3.0-0.127,,key,arrowleft,16.67761538461600,640,344.5,128,5,-1,25,15,25,35,TRUE
null,null,psychophysics,262,314040,0.0-3.0-1.127,,key,null,16.672999999999900,640,344.5,,,,,,,,
1095.1999998092700,arrowleft,psychophysics,263,315139,0.0-3.0-0.128,,key,arrowleft,16.672999999999900,640,344.5,129,5,-1,26,35,25,35,TRUE
null,null,psychophysics,264,316146,0.0-3.0-1.128,,key,null,16.672999999999900,640,344.5,,,,,,,,
841.2999997138980,arrowright,psychophysics,265,316991,0.0-3.0-0.129,,key,arrowright,16.673000000000500,640,344.5,130,5,1,30,35,25,35,TRUE
null,null,psychophysics,266,317993,0.0-3.0-1.129,,key,null,16.672999999999900,640,344.5,,,,,,,,
1062.5999999046300,arrowright,psychophysics,267,319058,0.0-3.0-0.130,,key,arrowright,16.672999999999600,640,344.5,131,5,1,23,15,25,35,TRUE
null,null,psychophysics,268,320060,0.0-3.0-1.130,,key,null,16.672999999999900,640,344.5,,,,,,,,
763.3999996185300,arrowright,psychophysics,269,320827,0.0-3.0-0.131,,key,arrowright,16.67299999999940,640,344.5,132,5,-1,24,35,25,35,FALSE
null,null,psychophysics,270,321835,0.0-3.0-1.131,,key,null,16.672999999999900,640,344.5,,,,,,,,
1385.4000000953700,arrowleft,psychophysics,271,323224,0.0-3.0-0.132,,key,arrowleft,16.674409638554500,640,344.5,133,5,-1,26,35,25,35,TRUE
null,null,psychophysics,272,324227,0.0-3.0-1.132,,key,null,16.672999999999900,640,344.5,,,,,,,,
1063.2000002861000,arrowleft,psychophysics,273,325293,0.0-3.0-0.133,,key,arrowleft,16.67300000000050,640,344.5,134,5,1,20,15,25,35,FALSE
null,null,psychophysics,274,326295,0.0-3.0-1.133,,key,null,16.672999999999900,640,344.5,,,,,,,,
1090.1999998092700,arrowright,psychophysics,275,327393,0.0-3.0-0.134,,key,arrowright,16.672999999999900,640,344.5,135,5,1,30,15,25,35,TRUE
null,null,psychophysics,276,328396,0.0-3.0-1.134,,key,null,16.672999999999900,640,344.5,,,,,,,,
1426.4000000953700,arrowleft,psychophysics,277,329825,0.0-3.0-0.135,,key,arrowleft,16.673000000000100,640,344.5,136,5,-1,25,15,25,35,TRUE
null,null,psychophysics,278,330827,0.0-3.0-1.135,,key,null,16.673000000000100,640,344.5,,,,,,,,
915.7999997138980,arrowleft,psychophysics,279,331746,0.0-3.0-0.136,,key,arrowleft,16.673000000000100,640,344.5,137,5,1,20,35,25,35,FALSE
null,null,psychophysics,280,332749,0.0-3.0-1.136,,key,null,16.672999999999900,640,344.5,,,,,,,,
1712.5999999046300,arrowleft,psychophysics,281,334472,0.0-3.0-0.137,,key,arrowleft,16.673539215686300,640,344.5,138,5,1,24,35,25,35,FALSE
null,null,psychophysics,282,335475,0.0-3.0-1.137,,key,null,16.6730000000009,640,344.5,,,,,,,,
713.9000000953670,arrowleft,psychophysics,283,336196,0.0-3.0-0.138,,key,arrowleft,16.673000000000300,640,344.5,139,5,-1,30,15,25,35,TRUE
null,null,psychophysics,284,337197,0.0-3.0-1.138,,key,null,16.672999999999900,640,344.5,,,,,,,,
902.5,arrowright,psychophysics,285,338104,0.0-3.0-0.139,,key,arrowright,16.672999999999900,640,344.5,140,6,1,26,15,25,35,TRUE
null,null,psychophysics,286,339111,0.0-3.0-1.139,,key,null,16.673000000000100,640,344.5,,,,,,,,
1948.9000000953700, ,html-keyboard-response,287,341068,0.0-3.0-2.139-0.139,"<div style=""color: white; text-align: center; vertical-align: top; display: inline-block; width: 800px; margin: auto""><p>You have completed 50% of the trials. You are on block 6 of 10. <br>Good job! Take a break if you need to.</p><p>Press any key to continue the experiment.</p></div>",,,,,,,,,,,,,
882.5999999046330,arrowright,psychophysics,288,342955,0.0-3.0-0.140,,key,arrowright,16.672999999999900,640,344.5,141,6,1,24,15,25,35,TRUE
null,null,psychophysics,289,343958,0.0-3.0-1.140,,key,null,16.676457627119000,640,344.5,,,,,,,,
658.1999998092650,arrowleft,psychophysics,290,344620,0.0-3.0-0.141,,key,arrowleft,16.673000000000800,640,344.5,142,6,-1,30,35,25,35,TRUE
null,null,psychophysics,291,345628,0.0-3.0-1.141,,key,null,16.672999999999900,640,344.5,,,,,,,,
768.1000003814700,arrowleft,psychophysics,292,346402,0.0-3.0-0.142,,key,arrowleft,16.672999999999700,640,344.5,143,6,1,23,35,25,35,FALSE
null,null,psychophysics,293,347404,0.0-3.0-1.142,,key,null,16.672999999999900,640,344.5,,,,,,,,
978.0999999046330,arrowright,psychophysics,294,348385,0.0-3.0-0.143,,key,arrowright,16.672999999999700,640,344.5,144,6,1,20,15,25,35,TRUE
null,null,psychophysics,295,349387,0.0-3.0-1.143,,key,null,16.672999999999900,640,344.5,,,,,,,,
830.5,arrowright,psychophysics,296,350221,0.0-3.0-0.144,,key,arrowright,16.67299999999910,640,344.5,145,6,1,26,35,25,35,TRUE
null,null,psychophysics,297,351230,0.0-3.0-1.144,,key,null,16.672999999999900,640,344.5,,,,,,,,
1005,arrowright,psychophysics,298,352239,0.0-3.0-0.145,,key,arrowright,16.673000000000100,640,344.5,146,6,1,24,15,25,35,TRUE
null,null,psychophysics,299,353241,0.0-3.0-1.145,,key,null,16.675101694915300,640,344.5,,,,,,,,
861.4000000953670,arrowleft,psychophysics,300,354106,0.0-3.0-0.146,,key,arrowleft,16.672999999999500,640,344.5,147,6,1,23,35,25,35,FALSE
null,null,psychophysics,301,355108,0.0-3.0-1.146,,key,null,16.672999999999900,640,344.5,,,,,,,,
801.4000000953670,arrowleft,psychophysics,302,355912,0.0-3.0-0.147,,key,arrowleft,16.67299999999990,640,344.5,148,6,1,23,35,25,35,FALSE
null,null,psychophysics,303,356920,0.0-3.0-1.147,,key,null,16.673000000000100,640,344.5,,,,,,,,
583.9000000953670,arrowright,psychophysics,304,357508,0.0-3.0-0.148,,key,arrowright,16.672999999999500,640,344.5,149,6,1,30,15,25,35,TRUE
null,null,psychophysics,305,358510,0.0-3.0-1.148,,key,null,16.672999999999900,640,344.5,,,,,,,,
790.1000003814700,arrowright,psychophysics,306,359304,0.0-3.0-0.149,,key,arrowright,16.672999999999700,640,344.5,150,6,1,27,15,25,35,TRUE
null,null,psychophysics,307,360306,0.0-3.0-1.149,,key,null,16.673000000000100,640,344.5,,,,,,,,
615.2999997138980,arrowright,psychophysics,308,360925,0.0-3.0-0.150,,key,arrowright,16.673000000000100,640,344.5,151,6,1,30,15,25,35,TRUE
null,null,psychophysics,309,361934,0.0-3.0-1.150,,key,null,16.672999999999900,640,344.5,,,,,,,,
777.3000001907350,arrowleft,psychophysics,310,362724,0.0-3.0-0.151,,key,arrowleft,16.67299999999990,640,344.5,152,6,-1,30,35,25,35,TRUE
null,null,psychophysics,311,363726,0.0-3.0-1.151,,key,null,16.67505084745730,640,344.5,,,,,,,,
780.1999998092650,arrowleft,psychophysics,312,364510,0.0-3.0-0.152,,key,arrowleft,16.672999999999700,640,344.5,153,6,-1,27,15,25,35,TRUE
null,null,psychophysics,313,365512,0.0-3.0-1.152,,key,null,16.672999999999900,640,344.5,,,,,,,,
763.0999999046330,arrowright,psychophysics,314,366279,0.0-3.0-0.153,,key,arrowright,16.673000000000700,640,344.5,154,6,-1,20,15,25,35,FALSE
null,null,psychophysics,315,367282,0.0-3.0-1.153,,key,null,16.672999999999900,640,344.5,,,,,,,,
713.0999999046330,arrowright,psychophysics,316,367998,0.0-3.0-0.154,,key,arrowright,16.673000000000100,640,344.5,155,6,1,25,35,25,35,TRUE
null,null,psychophysics,317,369010,0.0-3.0-1.154,,key,null,16.673000000000100,640,344.5,,,,,,,,
698.4000000953670,arrowright,psychophysics,318,369711,0.0-3.0-0.155,,key,arrowright,16.672999999999800,640,344.5,156,6,1,27,15,25,35,TRUE
null,null,psychophysics,319,370714,0.0-3.0-1.155,,key,null,16.672999999999900,640,344.5,,,,,,,,
1067.8000001907300,arrowright,psychophysics,320,371785,0.0-3.0-0.156,,key,arrowright,16.672999999999600,640,344.5,157,6,-1,23,35,25,35,FALSE
null,null,psychophysics,321,372789,0.0-3.0-1.156,,key,null,16.672999999999900,640,344.5,,,,,,,,
854.7000002861020,arrowleft,psychophysics,322,373651,0.0-3.0-0.157,,key,arrowleft,16.675470588235700,640,344.5,158,6,-1,27,35,25,35,TRUE
null,null,psychophysics,323,374656,0.0-3.0-1.157,,key,null,16.6730000000009,640,344.5,,,,,,,,
703,arrowright,psychophysics,324,375372,0.0-3.0-0.158,,key,arrowright,16.673000000000100,640,344.5,159,6,-1,24,35,25,35,FALSE
null,null,psychophysics,325,376377,0.0-3.0-1.158,,key,null,16.673000000000100,640,344.5,,,,,,,,
667.7000002861020,arrowright,psychophysics,326,377048,0.0-3.0-0.159,,key,arrowright,16.67299999999930,640,344.5,160,6,1,27,35,25,35,TRUE
null,null,psychophysics,327,378050,0.0-3.0-1.159,,key,null,16.672999999999900,640,344.5,,,,,,,,
735.6999998092650,arrowright,psychophysics,328,378789,0.0-3.0-0.160,,key,arrowright,16.673000000000300,640,344.5,161,6,-1,24,15,25,35,FALSE
null,null,psychophysics,329,379792,0.0-3.0-1.160,,key,null,16.672999999999900,640,344.5,,,,,,,,
961.3000001907350,arrowleft,psychophysics,330,380767,0.0-3.0-0.161,,key,arrowleft,16.672999999999700,640,344.5,162,6,1,24,35,25,35,FALSE
null,null,psychophysics,331,381776,0.0-3.0-1.161,,key,null,16.672999999999900,640,344.5,,,,,,,,
711.2999997138980,arrowleft,psychophysics,332,382491,0.0-3.0-0.162,,key,arrowleft,16.673000000000100,640,344.5,163,6,-1,27,15,25,35,TRUE
null,null,psychophysics,333,383496,0.0-3.0-1.162,,key,null,16.675133333333800,640,344.5,,,,,,,,
1201.0999999046300,arrowright,psychophysics,334,384701,0.0-3.0-0.163,,key,arrowright,16.67299999999990,640,344.5,164,6,-1,24,35,25,35,FALSE
null,null,psychophysics,335,385703,0.0-3.0-1.163,,key,null,16.672999999999900,640,344.5,,,,,,,,
788.3000001907350,arrowright,psychophysics,336,386495,0.0-3.0-0.164,,key,arrowright,16.672999999999700,640,344.5,165,6,-1,23,35,25,35,FALSE
null,null,psychophysics,337,387505,0.0-3.0-1.164,,key,null,16.673000000000100,640,344.5,,,,,,,,
2884.9000000953700,arrowleft,psychophysics,338,390393,0.0-3.0-0.165,,key,arrowleft,16.673000000000000,640,344.5,166,6,-1,23,15,25,35,TRUE
null,null,psychophysics,339,391397,0.0-3.0-1.165,,key,null,16.672999999999900,640,344.5,,,,,,,,
706.3000001907350,arrowleft,psychophysics,340,392107,0.0-3.0-0.166,,key,arrowleft,16.673000000000100,640,344.5,167,6,-1,30,15,25,35,TRUE
null,null,psychophysics,341,393114,0.0-3.0-1.166,,key,null,16.672999999999900,640,344.5,,,,,,,,
713.4000000953670,arrowright,psychophysics,342,393831,0.0-3.0-0.167,,key,arrowright,16.67321428571480,640,344.5,168,7,1,24,15,25,35,TRUE
null,null,psychophysics,343,394835,0.0-3.0-1.167,,key,null,16.673000000000100,640,344.5,,,,,,,,
1507.5, ,html-keyboard-response,344,396344,0.0-3.0-2.167-0.167,"<div style=""color: white; text-align: center; vertical-align: top; display: inline-block; width: 800px; margin: auto""><p>You have completed 60% of the trials. You are on block 7 of 10. <br>Good job! Take a break if you need to.</p><p>Press any key to continue the experiment.</p></div>",,,,,,,,,,,,,
1097.4000000953700,arrowleft,psychophysics,345,398453,0.0-3.0-0.168,,key,arrowleft,16.673000000000100,640,344.5,169,7,-1,23,15,25,35,TRUE
null,null,psychophysics,346,399462,0.0-3.0-1.168,,key,null,16.672999999999900,640,344.5,,,,,,,,
610.6999998092650,arrowright,psychophysics,347,400076,0.0-3.0-0.169,,key,arrowright,16.673000000000100,640,344.5,170,7,-1,20,35,25,35,FALSE
null,null,psychophysics,348,401079,0.0-3.0-1.169,,key,null,16.672999999999900,640,344.5,,,,,,,,
676.0999999046330,arrowleft,psychophysics,349,401759,0.0-3.0-0.170,,key,arrowleft,16.673000000001000,640,344.5,171,7,1,26,35,25,35,FALSE
null,null,psychophysics,350,402761,0.0-3.0-1.170,,key,null,16.672999999999900,640,344.5,,,,,,,,
551.6999998092650,arrowright,psychophysics,351,403315,0.0-3.0-0.171,,key,arrowright,16.83453125000050,640,344.5,172,7,1,26,15,25,35,TRUE
null,null,psychophysics,352,404318,0.0-3.0-1.171,,key,null,16.672999999999900,640,344.5,,,,,,,,
1019,arrowright,psychophysics,353,405350,0.0-3.0-0.172,,key,arrowright,16.673000000000200,640,344.5,173,7,-1,24,35,25,35,FALSE
null,null,psychophysics,354,406352,0.0-3.0-1.172,,key,null,16.672999999999900,640,344.5,,,,,,,,
691.8000001907350,arrowleft,psychophysics,355,407047,0.0-3.0-0.173,,key,arrowleft,16.672999999999800,640,344.5,174,7,-1,27,15,25,35,TRUE
null,null,psychophysics,356,408050,0.0-3.0-1.173,,key,null,16.672999999999900,640,344.5,,,,,,,,
861.4000000953670,arrowright,psychophysics,357,408916,0.0-3.0-0.174,,key,arrowright,16.67300000000070,640,344.5,175,7,-1,24,15,25,35,FALSE
null,null,psychophysics,358,409919,0.0-3.0-1.174,,key,null,16.6730000000009,640,344.5,,,,,,,,
594.7000002861020,arrowright,psychophysics,359,410524,0.0-3.0-0.175,,key,arrowright,16.6729999999998,640,344.5,176,7,1,30,35,25,35,TRUE
null,null,psychophysics,360,411527,0.0-3.0-1.175,,key,null,16.672999999999900,640,344.5,,,,,,,,
1716.5,arrowright,psychophysics,361,413256,0.0-3.0-0.176,,key,arrowright,16.673000000000200,640,344.5,177,7,1,26,35,25,35,TRUE
null,null,psychophysics,362,414258,0.0-3.0-1.176,,key,null,16.677169491525100,640,344.5,,,,,,,,
1290.1999998092700,arrowleft,psychophysics,363,415553,0.0-3.0-0.177,,key,arrowleft,16.673000000000000,640,344.5,178,7,1,20,15,25,35,FALSE
null,null,psychophysics,364,416560,0.0-3.0-1.177,,key,null,16.672999999999900,640,344.5,,,,,,,,
807.0999999046330,arrowleft,psychophysics,365,417371,0.0-3.0-0.178,,key,arrowleft,16.673000000000100,640,344.5,179,7,1,20,35,25,35,FALSE
null,null,psychophysics,366,418373,0.0-3.0-1.178,,key,null,16.672999999999900,640,344.5,,,,,,,,
835,arrowleft,psychophysics,367,419222,0.0-3.0-0.179,,key,arrowleft,16.673000000000500,640,344.5,180,7,-1,26,15,25,35,TRUE
null,null,psychophysics,368,420225,0.0-3.0-1.179,,key,null,16.672999999999900,640,344.5,,,,,,,,
881.4000000953670,arrowright,psychophysics,369,421110,0.0-3.0-0.180,,key,arrowright,16.672999999999700,640,344.5,181,7,1,24,35,25,35,TRUE
null,null,psychophysics,370,422113,0.0-3.0-1.180,,key,null,16.672999999999900,640,344.5,,,,,,,,
634.9000000953670,arrowleft,psychophysics,371,422762,0.0-3.0-0.181,,key,arrowleft,16.672999999999100,640,344.5,182,7,-1,26,15,25,35,TRUE
null,null,psychophysics,372,423764,0.0-3.0-1.181,,key,null,16.675084745763000,640,344.5,,,,,,,,
1003,arrowright,psychophysics,373,424771,0.0-3.0-0.182,,key,arrowright,16.673000000000100,640,344.5,183,7,-1,26,35,25,35,FALSE
null,null,psychophysics,374,425773,0.0-3.0-1.182,,key,null,16.672999999999900,640,344.5,,,,,,,,
1121.5,arrowleft,psychophysics,375,426899,0.0-3.0-0.183,,key,arrowleft,16.673000000000100,640,344.5,184,7,1,25,35,25,35,FALSE
null,null,psychophysics,376,427901,0.0-3.0-1.183,,key,null,16.672999999999900,640,344.5,,,,,,,,
668.1000003814700,arrowright,psychophysics,377,428584,0.0-3.0-0.184,,key,arrowright,16.672999999999600,640,344.5,185,7,1,24,15,25,35,TRUE
null,null,psychophysics,378,429586,0.0-3.0-1.184,,key,null,16.673000000000100,640,344.5,,,,,,,,
1202.5,arrowright,psychophysics,379,430800,0.0-3.0-0.185,,key,arrowright,16.67299999999990,640,344.5,186,7,1,30,35,25,35,TRUE
null,null,psychophysics,380,431805,0.0-3.0-1.185,,key,null,16.673000000000100,640,344.5,,,,,,,,
942.9000000953670,arrowleft,psychophysics,381,432751,0.0-3.0-0.186,,key,arrowleft,16.672999999999200,640,344.5,187,7,-1,26,15,25,35,TRUE
null,null,psychophysics,382,433755,0.0-3.0-1.186,,key,null,16.675050000000400,640,344.5,,,,,,,,
940.9000000953670,arrowleft,psychophysics,383,434708,0.0-3.0-0.187,,key,arrowleft,16.672999999999400,640,344.5,188,7,-1,26,15,25,35,TRUE
null,null,psychophysics,384,435711,0.0-3.0-1.187,,key,null,16.672999999999900,640,344.5,,,,,,,,
945.4000000953670,arrowright,psychophysics,385,436660,0.0-3.0-0.188,,key,arrowright,16.673000000000400,640,344.5,189,7,1,27,35,25,35,TRUE
null,null,psychophysics,386,437662,0.0-3.0-1.188,,key,null,16.672999999999900,640,344.5,,,,,,,,
1162.7000002861000,arrowright,psychophysics,387,438830,0.0-3.0-0.189,,key,arrowright,16.6730000000005,640,344.5,190,7,-1,24,35,25,35,FALSE
null,null,psychophysics,388,439833,0.0-3.0-1.189,,key,null,16.672999999999900,640,344.5,,,,,,,,
797.2999997138980,arrowleft,psychophysics,389,440644,0.0-3.0-0.190,,key,arrowleft,16.673000000000100,640,344.5,191,7,-1,27,15,25,35,TRUE
null,null,psychophysics,390,441645,0.0-3.0-1.190,,key,null,16.672999999999900,640,344.5,,,,,,,,
933,arrowleft,psychophysics,391,442581,0.0-3.0-0.191,,key,arrowleft,16.673000000000300,640,344.5,192,7,-1,27,35,25,35,TRUE
null,null,psychophysics,392,443583,0.0-3.0-1.191,,key,null,16.6740677966095,640,344.5,,,,,,,,
912.7000002861020,arrowleft,psychophysics,393,444498,0.0-3.0-0.192,,key,arrowleft,16.673000000000100,640,344.5,193,7,-1,25,15,25,35,TRUE
null,null,psychophysics,394,445500,0.0-3.0-1.192,,key,null,16.672999999999900,640,344.5,,,,,,,,
722.1000003814700,arrowright,psychophysics,395,446239,0.0-3.0-0.193,,key,arrowright,16.673000000000300,640,344.5,194,7,1,27,35,25,35,TRUE
null,null,psychophysics,396,447242,0.0-3.0-1.193,,key,null,16.672999999999900,640,344.5,,,,,,,,
720.9000000953670,arrowright,psychophysics,397,447966,0.0-3.0-0.194,,key,arrowright,16.673000000000300,640,344.5,195,7,1,26,35,25,35,TRUE
null,null,psychophysics,398,448968,0.0-3.0-1.194,,key,null,16.672999999999900,640,344.5,,,,,,,,
911.5999999046330,arrowleft,psychophysics,399,449884,0.0-3.0-0.195,,key,arrowleft,16.673000000000100,640,344.5,196,8,-1,27,15,25,35,TRUE
null,null,psychophysics,400,450886,0.0-3.0-1.195,,key,null,16.672999999999900,640,344.5,,,,,,,,
1375, ,html-keyboard-response,401,452263,0.0-3.0-2.195-0.195,"<div style=""color: white; text-align: center; vertical-align: top; display: inline-block; width: 800px; margin: auto""><p>You have completed 70% of the trials. You are on block 8 of 10. <br>Good job! Take a break if you need to.</p><p>Press any key to continue the experiment.</p></div>",,,,,,,,,,,,,
1925.2999997139000,arrowleft,psychophysics,402,455208,0.0-3.0-0.196,,key,arrowleft,16.720608695652100,640,344.5,197,8,1,25,35,25,35,FALSE
null,null,psychophysics,403,456210,0.0-3.0-1.196,,key,null,16.672999999999900,640,344.5,,,,,,,,
660,arrowright,psychophysics,404,456874,0.0-3.0-0.197,,key,arrowright,16.67299999999930,640,344.5,198,8,1,25,15,25,35,TRUE
null,null,psychophysics,405,457875,0.0-3.0-1.197,,key,null,16.672999999999900,640,344.5,,,,,,,,
590.1999998092650,arrowright,psychophysics,406,458473,0.0-3.0-0.198,,key,arrowright,16.6729999999998,640,344.5,199,8,-1,20,15,25,35,FALSE
null,null,psychophysics,407,459477,0.0-3.0-1.198,,key,null,16.672999999999900,640,344.5,,,,,,,,
934.4000000953670,arrowleft,psychophysics,408,460415,0.0-3.0-0.199,,key,arrowleft,16.672999999999200,640,344.5,200,8,-1,24,15,25,35,TRUE
null,null,psychophysics,409,461417,0.0-3.0-1.199,,key,null,16.672999999999900,640,344.5,,,,,,,,
682.3000001907350,arrowright,psychophysics,410,462101,0.0-3.0-0.200,,key,arrowright,16.672999999999600,640,344.5,201,8,-1,26,35,25,35,FALSE
null,null,psychophysics,411,463104,0.0-3.0-1.200,,key,null,16.672999999999900,640,344.5,,,,,,,,
1417.8000001907300,arrowright,psychophysics,412,464529,0.0-3.0-0.201,,key,arrowright,16.6753294117646,640,344.5,202,8,1,24,15,25,35,TRUE
null,null,psychophysics,413,465537,0.0-3.0-1.201,,key,null,16.672999999999900,640,344.5,,,,,,,,
764.3000001907350,arrowleft,psychophysics,414,466305,0.0-3.0-0.202,,key,arrowleft,16.67299999999940,640,344.5,203,8,-1,26,15,25,35,TRUE
null,null,psychophysics,415,467308,0.0-3.0-1.202,,key,null,16.673000000000100,640,344.5,,,,,,,,
1021,arrowleft,psychophysics,416,468333,0.0-3.0-0.203,,key,arrowleft,16.673000000000100,640,344.5,204,8,1,23,35,25,35,FALSE
null,null,psychophysics,417,469337,0.0-3.0-1.203,,key,null,17.25801754385960,640,344.5,,,,,,,,
844.5,arrowright,psychophysics,418,470185,0.0-3.0-0.204,,key,arrowright,16.672999999999300,640,344.5,205,8,-1,24,35,25,35,FALSE
null,null,psychophysics,419,471194,0.0-3.0-1.204,,key,null,16.673000000000100,640,344.5,,,,,,,,
702.1999998092650,arrowleft,psychophysics,420,471900,0.0-3.0-0.205,,key,arrowleft,16.672999999999800,640,344.5,206,8,1,23,35,25,35,FALSE
null,null,psychophysics,421,472901,0.0-3.0-1.205,,key,null,16.672999999999900,640,344.5,,,,,,,,
548.9000000953670,arrowleft,psychophysics,422,473453,0.0-3.0-0.206,,key,arrowleft,16.672999999998900,640,344.5,207,8,1,20,15,25,35,FALSE
null,null,psychophysics,423,474462,0.0-3.0-1.206,,key,null,16.675033333333900,640,344.5,,,,,,,,
918.0999999046330,arrowleft,psychophysics,424,475384,0.0-3.0-0.207,,key,arrowleft,16.673000000000100,640,344.5,208,8,1,20,35,25,35,FALSE
null,null,psychophysics,425,476386,0.0-3.0-1.207,,key,null,16.672999999999900,640,344.5,,,,,,,,
1177.1999998092700,arrowleft,psychophysics,426,477575,0.0-3.0-0.208,,key,arrowleft,16.6729999999998,640,344.5,209,8,-1,26,35,25,35,TRUE
null,null,psychophysics,427,478577,0.0-3.0-1.208,,key,null,16.672999999999900,640,344.5,,,,,,,,
640.3000001907350,arrowright,psychophysics,428,479221,0.0-3.0-0.209,,key,arrowright,16.673000000000600,640,344.5,210,8,-1,23,15,25,35,FALSE
null,null,psychophysics,429,480224,0.0-3.0-1.209,,key,null,16.672999999999900,640,344.5,,,,,,,,
891.3000001907350,arrowleft,psychophysics,430,481119,0.0-3.0-0.210,,key,arrowleft,16.673000000001000,640,344.5,211,8,-1,27,35,25,35,TRUE
null,null,psychophysics,431,482121,0.0-3.0-1.210,,key,null,16.672999999999900,640,344.5,,,,,,,,
567.1999998092650,arrowright,psychophysics,432,482704,0.0-3.0-0.211,,key,arrowright,16.67300000000120,640,344.5,212,8,1,24,15,25,35,TRUE
null,null,psychophysics,433,483705,0.0-3.0-1.211,,key,null,16.675135593221100,640,344.5,,,,,,,,
564.7000002861020,arrowright,psychophysics,434,484273,0.0-3.0-0.212,,key,arrowright,16.672999999999200,640,344.5,213,8,1,30,35,25,35,TRUE
null,null,psychophysics,435,485277,0.0-3.0-1.212,,key,null,16.672999999999900,640,344.5,,,,,,,,
767.2999997138980,arrowleft,psychophysics,436,486049,0.0-3.0-0.213,,key,arrowleft,16.67299999999940,640,344.5,214,8,-1,27,35,25,35,TRUE
null,null,psychophysics,437,487051,0.0-3.0-1.213,,key,null,16.673000000000100,640,344.5,,,,,,,,
693.2999997138980,arrowright,psychophysics,438,487748,0.0-3.0-0.214,,key,arrowright,16.672999999999600,640,344.5,215,8,-1,23,35,25,35,FALSE
null,null,psychophysics,439,488750,0.0-3.0-1.214,,key,null,16.673000000000100,640,344.5,,,,,,,,
670.8000001907350,arrowleft,psychophysics,440,489432,0.0-3.0-0.215,,key,arrowleft,16.67299999999930,640,344.5,216,8,-1,30,15,25,35,TRUE
null,null,psychophysics,441,490436,0.0-3.0-1.215,,key,null,16.673000000000100,640,344.5,,,,,,,,
1171.6999998092700,arrowleft,psychophysics,442,491612,0.0-3.0-0.216,,key,arrowleft,16.672999999999700,640,344.5,217,8,-1,24,15,25,35,TRUE
null,null,psychophysics,443,492615,0.0-3.0-1.216,,key,null,16.672999999999900,640,344.5,,,,,,,,
722.4000000953670,arrowright,psychophysics,444,493341,0.0-3.0-0.217,,key,arrowright,16.673000000000300,640,344.5,218,8,1,26,35,25,35,TRUE
null,null,psychophysics,445,494343,0.0-3.0-1.217,,key,null,16.675152542373400,640,344.5,,,,,,,,
763,arrowright,psychophysics,446,495110,0.0-3.0-0.218,,key,arrowright,16.67299999999940,640,344.5,219,8,1,24,15,25,35,TRUE
null,null,psychophysics,447,496118,0.0-3.0-1.218,,key,null,16.672999999999900,640,344.5,,,,,,,,
597.1999998092650,arrowright,psychophysics,448,496719,0.0-3.0-0.219,,key,arrowright,16.6729999999998,640,344.5,220,8,1,30,15,25,35,TRUE
null,null,psychophysics,449,497722,0.0-3.0-1.219,,key,null,16.673000000000100,640,344.5,,,,,,,,
1118.3000001907300,arrowright,psychophysics,450,498844,0.0-3.0-0.220,,key,arrowright,16.673000000000100,640,344.5,221,8,-1,23,35,25,35,FALSE
null,null,psychophysics,451,499846,0.0-3.0-1.220,,key,null,16.672999999999900,640,344.5,,,,,,,,
733.7999997138980,arrowleft,psychophysics,452,500583,0.0-3.0-0.221,,key,arrowleft,16.673000000000300,640,344.5,222,8,-1,26,15,25,35,TRUE
null,null,psychophysics,453,501587,0.0-3.0-1.221,,key,null,16.672999999999900,640,344.5,,,,,,,,
551.4000000953670,arrowright,psychophysics,454,502142,0.0-3.0-0.222,,key,arrowright,16.672999999999200,640,344.5,223,8,-1,20,35,25,35,FALSE
null,null,psychophysics,455,503144,0.0-3.0-1.222,,key,null,16.672999999999900,640,344.5,,,,,,,,
733.7000002861020,arrowleft,psychophysics,456,503881,0.0-3.0-0.223,,key,arrowleft,16.674930232558100,640,344.5,224,9,-1,27,15,25,35,TRUE
null,null,psychophysics,457,504891,0.0-3.0-1.223,,key,null,16.673000000000100,640,344.5,,,,,,,,
1452, ,html-keyboard-response,458,506345,0.0-3.0-2.223-0.223,"<div style=""color: white; text-align: center; vertical-align: top; display: inline-block; width: 800px; margin: auto""><p>You have completed 80% of the trials. You are on block 9 of 10. <br>Good job! Take a break if you need to.</p><p>Press any key to continue the experiment.</p></div>",,,,,,,,,,,,,
921.9000000953670,arrowright,psychophysics,459,508275,0.0-3.0-0.224,,key,arrowright,16.673000000000300,640,344.5,225,9,-1,23,35,25,35,FALSE
null,null,psychophysics,460,509277,0.0-3.0-1.224,,key,null,16.673000000000100,640,344.5,,,,,,,,
801.6999998092650,arrowleft,psychophysics,461,510082,0.0-3.0-0.225,,key,arrowleft,16.67300000000110,640,344.5,226,9,1,24,35,25,35,FALSE
null,null,psychophysics,462,511084,0.0-3.0-1.225,,key,null,16.672999999999900,640,344.5,,,,,,,,
1371.5,arrowleft,psychophysics,463,512459,0.0-3.0-0.226,,key,arrowleft,16.673000000000400,640,344.5,227,9,-1,23,15,25,35,TRUE
null,null,psychophysics,464,513467,0.0-3.0-1.226,,key,null,16.672999999999100,640,344.5,,,,,,,,
1088.4000000953700,arrowleft,psychophysics,465,514559,0.0-3.0-0.227,,key,arrowleft,16.754687499999800,640,344.5,228,9,-1,26,35,25,35,TRUE
null,null,psychophysics,466,515561,0.0-3.0-1.227,,key,null,16.672999999999900,640,344.5,,,,,,,,
692.2000002861020,arrowleft,psychophysics,467,516256,0.0-3.0-0.228,,key,arrowleft,16.672999999999800,640,344.5,229,9,1,20,35,25,35,FALSE
null,null,psychophysics,468,517263,0.0-3.0-1.228,,key,null,16.672999999999900,640,344.5,,,,,,,,
682.9000000953670,arrowleft,psychophysics,469,517948,0.0-3.0-0.229,,key,arrowleft,16.672999999999600,640,344.5,230,9,1,25,35,25,35,FALSE
null,null,psychophysics,470,518954,0.0-3.0-1.229,,key,null,16.673000000000100,640,344.5,,,,,,,,
1446,arrowright,psychophysics,471,520410,0.0-3.0-0.230,,key,arrowright,16.673000000000300,640,344.5,231,9,-1,25,35,25,35,FALSE
null,null,psychophysics,472,521414,0.0-3.0-1.230,,key,null,16.672999999999900,640,344.5,,,,,,,,
780.0999999046330,arrowleft,psychophysics,473,522198,0.0-3.0-0.231,,key,arrowleft,16.673000000000900,640,344.5,232,9,-1,27,35,25,35,TRUE
null,null,psychophysics,474,523202,0.0-3.0-1.231,,key,null,16.6730000000009,640,344.5,,,,,,,,
597,arrowright,psychophysics,475,523804,0.0-3.0-0.232,,key,arrowright,16.679028571430300,640,344.5,233,9,1,27,15,25,35,TRUE
null,null,psychophysics,476,524806,0.0-3.0-1.232,,key,null,16.673000000000100,640,344.5,,,,,,,,
777.7999997138980,arrowleft,psychophysics,477,525594,0.0-3.0-0.233,,key,arrowleft,16.673000000002200,640,344.5,234,9,-1,27,35,25,35,TRUE
null,null,psychophysics,478,526596,0.0-3.0-1.233,,key,null,16.6730000000009,640,344.5,,,,,,,,
812.1999998092650,arrowleft,psychophysics,479,527412,0.0-3.0-0.234,,key,arrowleft,16.673000000000100,640,344.5,235,9,1,20,15,25,35,FALSE
null,null,psychophysics,480,528413,0.0-3.0-1.234,,key,null,16.6730000000009,640,344.5,,,,,,,,
634.9000000953670,arrowleft,psychophysics,481,529051,0.0-3.0-0.235,,key,arrowleft,16.673000000001900,640,344.5,236,9,1,20,35,25,35,FALSE
null,null,psychophysics,482,530057,0.0-3.0-1.235,,key,null,16.673000000000100,640,344.5,,,,,,,,
626.4000000953670,arrowright,psychophysics,483,530687,0.0-3.0-0.236,,key,arrowright,16.673000000000100,640,344.5,237,9,1,27,15,25,35,TRUE
null,null,psychophysics,484,531697,0.0-3.0-1.236,,key,null,16.673000000000100,640,344.5,,,,,,,,
626.6999998092650,arrowright,psychophysics,485,532328,0.0-3.0-0.237,,key,arrowright,16.673000000001900,640,344.5,238,9,1,30,35,25,35,TRUE
null,null,psychophysics,486,533330,0.0-3.0-1.237,,key,null,16.6730000000009,640,344.5,,,,,,,,
823.3000001907350,arrowleft,psychophysics,487,534157,0.0-3.0-0.238,,key,arrowleft,16.675645833333000,640,344.5,239,9,-1,26,35,25,35,TRUE
null,null,psychophysics,488,535160,0.0-3.0-1.238,,key,null,16.673000000000100,640,344.5,,,,,,,,
831.3000001907350,arrowleft,psychophysics,489,535995,0.0-3.0-0.239,,key,arrowleft,16.67299999999910,640,344.5,240,9,1,24,35,25,35,FALSE
null,null,psychophysics,490,536997,0.0-3.0-1.239,,key,null,16.672999999998900,640,344.5,,,,,,,,
2126.800000190740,arrowleft,psychophysics,491,539140,0.0-3.0-0.240,,key,arrowleft,16.673000000000200,640,344.5,241,9,-1,23,15,25,35,TRUE
null,null,psychophysics,492,540146,0.0-3.0-1.240,,key,null,16.673000000000100,640,344.5,,,,,,,,
905.6999998092650,arrowleft,psychophysics,493,541055,0.0-3.0-0.241,,key,arrowleft,16.672999999999900,640,344.5,242,9,-1,25,15,25,35,TRUE
null,null,psychophysics,494,542059,0.0-3.0-1.241,,key,null,16.672999999998900,640,344.5,,,,,,,,
680,arrowright,psychophysics,495,542743,0.0-3.0-0.242,,key,arrowright,16.672999999998100,640,344.5,243,9,1,25,15,25,35,TRUE
null,null,psychophysics,496,543754,0.0-3.0-1.242,,key,null,16.675216666665300,640,344.5,,,,,,,,
1109.5,arrowright,psychophysics,497,544866,0.0-3.0-0.243,,key,arrowright,16.929507692306900,640,344.5,244,9,1,24,35,25,35,TRUE
null,null,psychophysics,498,545868,0.0-3.0-1.243,,key,null,16.672999999998900,640,344.5,,,,,,,,
2864.0999999046300,arrowright,psychophysics,499,548736,0.0-3.0-0.244,,key,arrowright,16.672999999999900,640,344.5,245,9,-1,20,15,25,35,FALSE
null,null,psychophysics,500,549746,0.0-3.0-1.244,,key,null,16.6730000000009,640,344.5,,,,,,,,
1002.4000000953700,arrowright,psychophysics,501,550752,0.0-3.0-0.245,,key,arrowright,16.673000000000100,640,344.5,246,9,1,26,15,25,35,TRUE
null,null,psychophysics,502,551755,0.0-3.0-1.245,,key,null,16.672999999998900,640,344.5,,,,,,,,
1032.8999996185300,arrowleft,psychophysics,503,552792,0.0-3.0-0.246,,key,arrowleft,16.672999999999300,640,344.5,247,9,1,25,35,25,35,FALSE
null,null,psychophysics,504,553796,0.0-3.0-1.246,,key,null,16.674966101696500,640,344.5,,,,,,,,
654.5,arrowright,psychophysics,505,554454,0.0-3.0-0.247,,key,arrowright,16.67299999999930,640,344.5,248,9,1,26,35,25,35,TRUE
null,null,psychophysics,506,555455,0.0-3.0-1.247,,key,null,16.672999999998900,640,344.5,,,,,,,,
748.6000003814700,arrowleft,psychophysics,507,556223,0.0-3.0-0.248,,key,arrowleft,16.672999999998100,640,344.5,249,9,1,20,35,25,35,FALSE
null,null,psychophysics,508,557225,0.0-3.0-1.248,,key,null,16.672999999998900,640,344.5,,,,,,,,
775.5999999046330,arrowleft,psychophysics,509,558003,0.0-3.0-0.249,,key,arrowleft,16.672999999999700,640,344.5,250,9,-1,27,35,25,35,TRUE
null,null,psychophysics,510,559006,0.0-3.0-1.249,,key,null,16.6730000000009,640,344.5,,,,,,,,
732.2000002861020,arrowright,psychophysics,511,559741,0.0-3.0-0.250,,key,arrowright,16.673000000000300,640,344.5,251,9,1,27,15,25,35,TRUE
null,null,psychophysics,512,560743,0.0-3.0-1.250,,key,null,16.672999999998900,640,344.5,,,,,,,,
758.1999998092650,arrowleft,psychophysics,513,561505,0.0-3.0-0.251,,key,arrowleft,22.735909090910100,640,344.5,252,10,-1,27,15,25,35,TRUE
null,null,psychophysics,514,562514,0.0-3.0-1.251,,key,null,16.672999999998900,640,344.5,,,,,,,,
4133, ,html-keyboard-response,515,566649,0.0-3.0-2.251-0.251,"<div style=""color: white; text-align: center; vertical-align: top; display: inline-block; width: 800px; margin: auto""><p>You have completed 90% of the trials. You are on block 10 of 10. <br>Good job! Take a break if you need to.</p><p>Press any key to continue the experiment.</p></div>",,,,,,,,,,,,,
1207.0999999046300,arrowleft,psychophysics,516,568873,0.0-3.0-0.252,,key,arrowleft,16.675138888888700,640,344.5,253,10,-1,30,35,25,35,TRUE
null,null,psychophysics,517,569883,0.0-3.0-1.252,,key,null,16.673000000000100,640,344.5,,,,,,,,
631.9000000953670,arrowleft,psychophysics,518,570519,0.0-3.0-0.253,,key,arrowleft,16.672999999998800,640,344.5,254,10,1,20,35,25,35,FALSE
null,null,psychophysics,519,571521,0.0-3.0-1.253,,key,null,16.6730000000009,640,344.5,,,,,,,,
759.5,arrowright,psychophysics,520,572287,0.0-3.0-0.254,,key,arrowright,16.673000000000700,640,344.5,255,10,-1,20,35,25,35,FALSE
null,null,psychophysics,521,573290,0.0-3.0-1.254,,key,null,16.672999999998900,640,344.5,,,,,,,,
1462.8000001907300,arrowleft,psychophysics,522,574769,0.0-3.0-0.255,,key,arrowleft,16.673000000000500,640,344.5,256,10,-1,25,15,25,35,TRUE
null,null,psychophysics,523,575780,0.0-3.0-1.255,,key,null,16.672999999998100,640,344.5,,,,,,,,
1151.9000000953700,arrowright,psychophysics,524,576935,0.0-3.0-0.256,,key,arrowright,16.57380882352900,640,344.5,257,10,1,25,35,25,35,TRUE
null,null,psychophysics,525,577938,0.0-3.0-1.256,,key,null,16.673000000000100,640,344.5,,,,,,,,
734.2999997138980,arrowleft,psychophysics,526,578676,0.0-3.0-0.257,,key,arrowleft,16.673000000000300,640,344.5,258,10,1,23,35,25,35,FALSE
null,null,psychophysics,527,579678,0.0-3.0-1.257,,key,null,16.6730000000009,640,344.5,,,,,,,,
632.5999999046330,arrowright,psychophysics,528,580314,0.0-3.0-0.258,,key,arrowright,16.673000000001900,640,344.5,259,10,-1,20,15,25,35,FALSE
null,null,psychophysics,529,581325,0.0-3.0-1.258,,key,null,16.673000000000100,640,344.5,,,,,,,,
937.6000003814700,arrowright,psychophysics,530,582266,0.0-3.0-0.259,,key,arrowright,16.673000000000300,640,344.5,260,10,1,26,35,25,35,TRUE
null,null,psychophysics,531,583270,0.0-3.0-1.259,,key,null,16.672999999998900,640,344.5,,,,,,,,
726.7999997138980,arrowright,psychophysics,532,584000,0.0-3.0-0.260,,key,arrowright,16.673000000000300,640,344.5,261,10,-1,23,15,25,35,FALSE
null,null,psychophysics,533,585004,0.0-3.0-1.260,,key,null,16.672999999998900,640,344.5,,,,,,,,
675.4000000953670,arrowright,psychophysics,534,585683,0.0-3.0-0.261,,key,arrowright,16.673000000001000,640,344.5,262,10,-1,20,35,25,35,FALSE
null,null,psychophysics,535,586696,0.0-3.0-1.261,,key,null,16.673000000000100,640,344.5,,,,,,,,
1029.5999999046300,arrowright,psychophysics,536,587746,0.0-3.0-0.262,,key,arrowright,16.673193548387300,640,344.5,263,10,-1,26,35,25,35,FALSE
null,null,psychophysics,537,588748,0.0-3.0-1.262,,key,null,16.672999999998900,640,344.5,,,,,,,,
1211.0999999046300,arrowleft,psychophysics,538,589963,0.0-3.0-0.263,,key,arrowleft,16.673000000000100,640,344.5,264,10,-1,24,15,25,35,TRUE
null,null,psychophysics,539,590965,0.0-3.0-1.263,,key,null,16.6730000000009,640,344.5,,,,,,,,
588.7000002861020,arrowright,psychophysics,540,591557,0.0-3.0-0.264,,key,arrowright,16.672999999999500,640,344.5,265,10,-1,25,35,25,35,FALSE
null,null,psychophysics,541,592560,0.0-3.0-1.264,,key,null,16.673000000000100,640,344.5,,,,,,,,
613.9000000953670,arrowleft,psychophysics,542,593196,0.0-3.0-0.265,,key,arrowleft,16.672999999998800,640,344.5,266,10,-1,30,15,25,35,TRUE
null,null,psychophysics,543,594198,0.0-3.0-1.265,,key,null,16.672999999998900,640,344.5,,,,,,,,
550.1999998092650,arrowright,psychophysics,544,594752,0.0-3.0-0.266,,key,arrowright,16.672999999998900,640,344.5,267,10,1,26,15,25,35,TRUE
null,null,psychophysics,545,595755,0.0-3.0-1.266,,key,null,16.6730000000009,640,344.5,,,,,,,,
692,arrowright,psychophysics,546,596451,0.0-3.0-0.267,,key,arrowright,16.672999999999800,640,344.5,268,10,1,30,15,25,35,TRUE
null,null,psychophysics,547,597453,0.0-3.0-1.267,,key,null,16.676915254236700,640,344.5,,,,,,,,
532.5999999046330,arrowleft,psychophysics,548,597988,0.0-3.0-0.268,,key,arrowleft,16.672999999996600,640,344.5,269,10,1,20,15,25,35,FALSE
null,null,psychophysics,549,598993,0.0-3.0-1.268,,key,null,16.672999999998900,640,344.5,,,,,,,,
558.1999998092650,arrowright,psychophysics,550,599566,0.0-3.0-0.269,,key,arrowright,16.672999999999500,640,344.5,270,10,1,30,35,25,35,TRUE
null,null,psychophysics,551,600568,0.0-3.0-1.269,,key,null,16.6730000000009,640,344.5,,,,,,,,
937.8000001907350,arrowright,psychophysics,552,601510,0.0-3.0-0.270,,key,arrowright,16.673000000000300,640,344.5,271,10,1,27,15,25,35,TRUE
null,null,psychophysics,553,602513,0.0-3.0-1.270,,key,null,16.673000000000100,640,344.5,,,,,,,,
655.6999998092650,arrowleft,psychophysics,554,603173,0.0-3.0-0.271,,key,arrowleft,16.673000000000600,640,344.5,272,10,-1,26,15,25,35,TRUE
null,null,psychophysics,555,604176,0.0-3.0-1.271,,key,null,16.6730000000009,640,344.5,,,,,,,,
473.5,arrowright,psychophysics,556,604655,0.0-3.0-0.272,,key,arrowright,16.673000000001500,640,344.5,273,10,-1,24,15,25,35,FALSE
null,null,psychophysics,557,605664,0.0-3.0-1.272,,key,null,16.6730000000009,640,344.5,,,,,,,,
766.8999996185300,arrowleft,psychophysics,558,606437,0.0-3.0-0.273,,key,arrowleft,16.672999999999700,640,344.5,274,10,-1,30,35,25,35,TRUE
null,null,psychophysics,559,607440,0.0-3.0-1.273,,key,null,16.675237288134200,640,344.5,,,,,,,,
620.1999998092650,arrowright,psychophysics,560,608063,0.0-3.0-0.274,,key,arrowright,16.673000000000100,640,344.5,275,10,-1,20,35,25,35,FALSE
null,null,psychophysics,561,609067,0.0-3.0-1.274,,key,null,16.673000000000100,640,344.5,,,,,,,,
608.2000002861020,arrowleft,psychophysics,562,609679,0.0-3.0-0.275,,key,arrowleft,16.672999999998100,640,344.5,276,10,-1,27,15,25,35,TRUE
null,null,psychophysics,563,610681,0.0-3.0-1.275,,key,null,16.672999999998900,640,344.5,,,,,,,,
820.2999997138980,arrowright,psychophysics,564,611524,0.0-3.0-0.276,,key,arrowright,16.672999999998100,640,344.5,277,10,-1,24,35,25,35,FALSE
null,null,psychophysics,565,612527,0.0-3.0-1.276,,key,null,16.672999999998900,640,344.5,,,,,,,,
1365.8000001907300,arrowright,psychophysics,566,613896,0.0-3.0-0.277,,key,arrowright,16.672999999999600,640,344.5,278,10,1,24,35,25,35,TRUE
null,null,psychophysics,567,614899,0.0-3.0-1.277,,key,null,16.672999999998900,640,344.5,,,,,,,,
841.5,arrowright,psychophysics,568,615744,0.0-3.0-0.278,,key,arrowright,16.673000000000500,640,344.5,279,10,1,25,15,25,35,TRUE
null,null,psychophysics,569,616747,0.0-3.0-1.278,,key,null,16.6730000000009,640,344.5,,,,,,,,
1083.5999999046300,arrowleft,psychophysics,570,617846,0.0-3.0-0.279,,key,arrowleft,16.674830769229900,640,344.5,280,11,-1,24,15,25,35,TRUE
null,null,psychophysics,571,618849,0.0-3.0-1.279,,key,null,16.672999999998900,640,344.5,,,,,,,,