run_id,condition,rt,response,trial_type,trial_index,time_elapsed,internal_node_id,stimulus,response_type,key_press,avg_frame_time,center_x,center_y,trial,block,test_pos,test_inner_radius,test_outer_radius,ref_inner_radius,ref_outer_radius,test_bigger,recorded_at,ip,user_agent,device,browser,browser_version,platform,platform_version,source_code_version
10,1,46350.10000014305,"{""p_id"":""7431"",""age"":""24"",""handedness"":""right"",""sex"":""female"",""other_sex"":""}",survey-html-form,0,46353,0.0-0.0,"""","""","""","""","""","""","""","""","""","""","""","""","""","""","2021-09-28 23:01:23",99.234.127.84,"Mozilla/5.0 (Windows NT 10.0; Win64; x64) AppleWebKit/537.36 (KHTML, like Gecko) Chrome/93.0.4577.82 Safari/537.36",WebKit,Chrome,93.0.4577.82,Windows,10.0,fe3c1d035a65c549f7011c5446f73ede
10,1,12863.800000190735,enter,html-keyboard-response,1,59219,0.0-1.0,"<p style=""color: white"">Welcome to the Size Judgment Experiment. <br>There will be 10 blocks in this experiment. <br>There will be 28 trials in each block. <br>You will be given a chance to take a break between blocks. <br>Press any key to start the experiment.</p>","""","""","""","""","""","""","""","""","""","""","""","""","""","2021-09-28 23:01:23",99.234.127.84,"Mozilla/5.0 (Windows NT 10.0; Win64; x64) AppleWebKit/537.36 (KHTML, like Gecko) Chrome/93.0.4577.82 Safari/537.36",WebKit,Chrome,93.0.4577.82,Windows,10.0,fe3c1d035a65c549f7011c5446f73ede
10,1,9536.799999952316," ",psychophysics,2,68766,0.0-2.0,"""",key," ",16.6683612565445,768,361,"""","""","""","""","""","""","""","""","2021-09-28 23:01:23",99.234.127.84,"Mozilla/5.0 (Windows NT 10.0; Win64; x64) AppleWebKit/537.36 (KHTML, like Gecko) Chrome/93.0.4577.82 Safari/537.36",WebKit,Chrome,93.0.4577.82,Windows,10.0,fe3c1d035a65c549f7011c5446f73ede
10,1,4065.899999856949,arrowright,psychophysics,3,72836,0.0-3.0-0.0,"""",key,arrowright,16.666884773662552,768,361,1,1,-1,26,35,25,35,false,"2021-09-28 23:01:23",99.234.127.84,"Mozilla/5.0 (Windows NT 10.0; Win64; x64) AppleWebKit/537.36 (KHTML, like Gecko) Chrome/93.0.4577.82 Safari/537.36",WebKit,Chrome,93.0.4577.82,Windows,10.0,fe3c1d035a65c549f7011c5446f73ede
10,1,null,null,psychophysics,4,73846,0.0-3.0-1.0,"""",key,null,16.66438983050836,768,361,"""","""","""","""","""","""","""","""","2021-09-28 23:01:23",99.234.127.84,"Mozilla/5.0 (Windows NT 10.0; Win64; x64) AppleWebKit/537.36 (KHTML, like Gecko) Chrome/93.0.4577.82 Safari/537.36",WebKit,Chrome,93.0.4577.82,Windows,10.0,fe3c1d035a65c549f7011c5446f73ede
10,1,610,arrowleft,psychophysics,5,74461,0.0-3.0-0.1,"""",key,arrowleft,16.664833333333565,768,361,2,1,1,24,15,25,35,false,"2021-09-28 23:01:23",99.234.127.84,"Mozilla/5.0 (Windows NT 10.0; Win64; x64) AppleWebKit/537.36 (KHTML, like Gecko) Chrome/93.0.4577.82 Safari/537.36",WebKit,Chrome,93.0.4577.82,Windows,10.0,fe3c1d035a65c549f7011c5446f73ede
10,1,null,null,psychophysics,6,75463,0.0-3.0-1.1,"""",key,null,16.667899999999886,768,361,"""","""","""","""","""","""","""","""","2021-09-28 23:01:23",99.234.127.84,"Mozilla/5.0 (Windows NT 10.0; Win64; x64) AppleWebKit/537.36 (KHTML, like Gecko) Chrome/93.0.4577.82 Safari/537.36",WebKit,Chrome,93.0.4577.82,Windows,10.0,fe3c1d035a65c549f7011c5446f73ede
10,1,507.39999985694885,arrowleft,psychophysics,7,75973,0.0-3.0-0.2,"""",key,arrowleft,16.654068965517517,768,361,3,1,1,26,15,25,35,false,"2021-09-28 23:01:23",99.234.127.84,"Mozilla/5.0 (Windows NT 10.0; Win64; x64) AppleWebKit/537.36 (KHTML, like Gecko) Chrome/93.0.4577.82 Safari/537.36",WebKit,Chrome,93.0.4577.82,Windows,10.0,fe3c1d035a65c549f7011c5446f73ede
10,1,null,null,psychophysics,8,76974,0.0-3.0-1.2,"""",key,null,16.673288135593253,768,361,"""","""","""","""","""","""","""","""","2021-09-28 23:01:23",99.234.127.84,"Mozilla/5.0 (Windows NT 10.0; Win64; x64) AppleWebKit/537.36 (KHTML, like Gecko) Chrome/93.0.4577.82 Safari/537.36",WebKit,Chrome,93.0.4577.82,Windows,10.0,fe3c1d035a65c549f7011c5446f73ede
10,1,5995.5,arrowright,psychophysics,9,82982,0.0-3.0-0.3,"""",key,arrowright,16.668641666666655,768,361,4,1,-1,24,15,25,35,false,"2021-09-28 23:01:23",99.234.127.84,"Mozilla/5.0 (Windows NT 10.0; Win64; x64) AppleWebKit/537.36 (KHTML, like Gecko) Chrome/93.0.4577.82 Safari/537.36",WebKit,Chrome,93.0.4577.82,Windows,10.0,fe3c1d035a65c549f7011c5446f73ede
10,1,null,null,psychophysics,10,83992,0.0-3.0-1.3,"""",key,null,16.673610169491564,768,361,"""","""","""","""","""","""","""","""","2021-09-28 23:01:23",99.234.127.84,"Mozilla/5.0 (Windows NT 10.0; Win64; x64) AppleWebKit/537.36 (KHTML, like Gecko) Chrome/93.0.4577.82 Safari/537.36",WebKit,Chrome,93.0.4577.82,Windows,10.0,fe3c1d035a65c549f7011c5446f73ede
10,1,1098.5999999046326,arrowright,psychophysics,11,85094,0.0-3.0-0.4,"""",key,arrowright,16.66806153846175,768,361,5,1,1,27,15,25,35,true,"2021-09-28 23:01:23",99.234.127.84,"Mozilla/5.0 (Windows NT 10.0; Win64; x64) AppleWebKit/537.36 (KHTML, like Gecko) Chrome/93.0.4577.82 Safari/537.36",WebKit,Chrome,93.0.4577.82,Windows,10.0,fe3c1d035a65c549f7011c5446f73ede
10,1,null,null,psychophysics,12,86095,0.0-3.0-1.4,"""",key,null,16.66162711864419,768,361,"""","""","""","""","""","""","""","""","2021-09-28 23:01:23",99.234.127.84,"Mozilla/5.0 (Windows NT 10.0; Win64; x64) AppleWebKit/537.36 (KHTML, like Gecko) Chrome/93.0.4577.82 Safari/537.36",WebKit,Chrome,93.0.4577.82,Windows,10.0,fe3c1d035a65c549f7011c5446f73ede
10,1,6723.199999809265,arrowleft,psychophysics,13,92823,0.0-3.0-0.5,"""",key,arrowleft,16.668384615384607,768,361,6,1,1,23,15,25,35,false,"2021-09-28 23:01:23",99.234.127.84,"Mozilla/5.0 (Windows NT 10.0; Win64; x64) AppleWebKit/537.36 (KHTML, like Gecko) Chrome/93.0.4577.82 Safari/537.36",WebKit,Chrome,93.0.4577.82,Windows,10.0,fe3c1d035a65c549f7011c5446f73ede
10,1,null,null,psychophysics,14,93826,0.0-3.0-1.5,"""",key,null,16.664423728813574,768,361,"""","""","""","""","""","""","""","""","2021-09-28 23:01:23",99.234.127.84,"Mozilla/5.0 (Windows NT 10.0; Win64; x64) AppleWebKit/537.36 (KHTML, like Gecko) Chrome/93.0.4577.82 Safari/537.36",WebKit,Chrome,93.0.4577.82,Windows,10.0,fe3c1d035a65c549f7011c5446f73ede
10,1,2311.7000000476837,arrowright,psychophysics,15,96140,0.0-3.0-0.6,"""",key,arrowright,16.665717391304288,768,361,7,1,1,30,35,25,35,true,"2021-09-28 23:01:23",99.234.127.84,"Mozilla/5.0 (Windows NT 10.0; Win64; x64) AppleWebKit/537.36 (KHTML, like Gecko) Chrome/93.0.4577.82 Safari/537.36",WebKit,Chrome,93.0.4577.82,Windows,10.0,fe3c1d035a65c549f7011c5446f73ede
10,1,null,null,psychophysics,16,97142,0.0-3.0-1.6,"""",key,null,16.659830508474457,768,361,"""","""","""","""","""","""","""","""","2021-09-28 23:01:23",99.234.127.84,"Mozilla/5.0 (Windows NT 10.0; Win64; x64) AppleWebKit/537.36 (KHTML, like Gecko) Chrome/93.0.4577.82 Safari/537.36",WebKit,Chrome,93.0.4577.82,Windows,10.0,fe3c1d035a65c549f7011c5446f73ede
10,1,768.5999999046326,arrowleft,psychophysics,17,97914,0.0-3.0-0.7,"""",key,arrowleft,16.66853333333339,768,361,8,1,1,24,35,25,35,false,"2021-09-28 23:01:23",99.234.127.84,"Mozilla/5.0 (Windows NT 10.0; Win64; x64) AppleWebKit/537.36 (KHTML, like Gecko) Chrome/93.0.4577.82 Safari/537.36",WebKit,Chrome,93.0.4577.82,Windows,10.0,fe3c1d035a65c549f7011c5446f73ede
10,1,null,null,psychophysics,18,98915,0.0-3.0-1.7,"""",key,null,16.678800000000045,768,361,"""","""","""","""","""","""","""","""","2021-09-28 23:01:23",99.234.127.84,"Mozilla/5.0 (Windows NT 10.0; Win64; x64) AppleWebKit/537.36 (KHTML, like Gecko) Chrome/93.0.4577.82 Safari/537.36",WebKit,Chrome,93.0.4577.82,Windows,10.0,fe3c1d035a65c549f7011c5446f73ede
10,1,1798.3999998569489,arrowleft,psychophysics,19,100718,0.0-3.0-0.8,"""",key,arrowleft,16.66515887850459,768,361,9,1,1,23,35,25,35,false,"2021-09-28 23:01:23",99.234.127.84,"Mozilla/5.0 (Windows NT 10.0; Win64; x64) AppleWebKit/537.36 (KHTML, like Gecko) Chrome/93.0.4577.82 Safari/537.36",WebKit,Chrome,93.0.4577.82,Windows,10.0,fe3c1d035a65c549f7011c5446f73ede
10,1,null,null,psychophysics,20,101720,0.0-3.0-1.8,"""",key,null,16.66967796610167,768,361,"""","""","""","""","""","""","""","""","2021-09-28 23:01:23",99.234.127.84,"Mozilla/5.0 (Windows NT 10.0; Win64; x64) AppleWebKit/537.36 (KHTML, like Gecko) Chrome/93.0.4577.82 Safari/537.36",WebKit,Chrome,93.0.4577.82,Windows,10.0,fe3c1d035a65c549f7011c5446f73ede
10,1,4796.700000047684,arrowright,psychophysics,21,106520,0.0-3.0-0.9,"""",key,arrowright,16.66828222996518,768,361,10,1,-1,24,15,25,35,false,"2021-09-28 23:01:23",99.234.127.84,"Mozilla/5.0 (Windows NT 10.0; Win64; x64) AppleWebKit/537.36 (KHTML, like Gecko) Chrome/93.0.4577.82 Safari/537.36",WebKit,Chrome,93.0.4577.82,Windows,10.0,fe3c1d035a65c549f7011c5446f73ede
10,1,null,null,psychophysics,22,107523,0.0-3.0-1.9,"""",key,null,16.677118644067747,768,361,"""","""","""","""","""","""","""","""","2021-09-28 23:01:23",99.234.127.84,"Mozilla/5.0 (Windows NT 10.0; Win64; x64) AppleWebKit/537.36 (KHTML, like Gecko) Chrome/93.0.4577.82 Safari/537.36",WebKit,Chrome,93.0.4577.82,Windows,10.0,fe3c1d035a65c549f7011c5446f73ede
10,1,993.8999998569489,arrowleft,psychophysics,23,108522,0.0-3.0-0.10,"""",key,arrowleft,16.67011864406774,768,361,11,1,-1,30,15,25,35,true,"2021-09-28 23:01:23",99.234.127.84,"Mozilla/5.0 (Windows NT 10.0; Win64; x64) AppleWebKit/537.36 (KHTML, like Gecko) Chrome/93.0.4577.82 Safari/537.36",WebKit,Chrome,93.0.4577.82,Windows,10.0,fe3c1d035a65c549f7011c5446f73ede
10,1,null,null,psychophysics,24,109523,0.0-3.0-1.10,"""",key,null,16.67320338983071,768,361,"""","""","""","""","""","""","""","""","2021-09-28 23:01:23",99.234.127.84,"Mozilla/5.0 (Windows NT 10.0; Win64; x64) AppleWebKit/537.36 (KHTML, like Gecko) Chrome/93.0.4577.82 Safari/537.36",WebKit,Chrome,93.0.4577.82,Windows,10.0,fe3c1d035a65c549f7011c5446f73ede
10,1,5296.200000047684,arrowleft,psychophysics,25,114822,0.0-3.0-0.11,"""",key,arrowleft,16.666842271293362,768,361,12,1,1,25,15,25,35,false,"2021-09-28 23:01:23",99.234.127.84,"Mozilla/5.0 (Windows NT 10.0; Win64; x64) AppleWebKit/537.36 (KHTML, like Gecko) Chrome/93.0.4577.82 Safari/537.36",WebKit,Chrome,93.0.4577.82,Windows,10.0,fe3c1d035a65c549f7011c5446f73ede
10,1,null,null,psychophysics,26,115826,0.0-3.0-1.11,"""",key,null,16.667135593220415,768,361,"""","""","""","""","""","""","""","""","2021-09-28 23:01:23",99.234.127.84,"Mozilla/5.0 (Windows NT 10.0; Win64; x64) AppleWebKit/537.36 (KHTML, like Gecko) Chrome/93.0.4577.82 Safari/537.36",WebKit,Chrome,93.0.4577.82,Windows,10.0,fe3c1d035a65c549f7011c5446f73ede
10,1,827.2000000476837,arrowleft,psychophysics,27,116655,0.0-3.0-0.12,"""",key,arrowleft,16.67377551020407,768,361,13,1,1,25,35,25,35,false,"2021-09-28 23:01:23",99.234.127.84,"Mozilla/5.0 (Windows NT 10.0; Win64; x64) AppleWebKit/537.36 (KHTML, like Gecko) Chrome/93.0.4577.82 Safari/537.36",WebKit,Chrome,93.0.4577.82,Windows,10.0,fe3c1d035a65c549f7011c5446f73ede
10,1,null,null,psychophysics,28,117656,0.0-3.0-1.12,"""",key,null,16.66440677966097,768,361,"""","""","""","""","""","""","""","""","2021-09-28 23:01:23",99.234.127.84,"Mozilla/5.0 (Windows NT 10.0; Win64; x64) AppleWebKit/537.36 (KHTML, like Gecko) Chrome/93.0.4577.82 Safari/537.36",WebKit,Chrome,93.0.4577.82,Windows,10.0,fe3c1d035a65c549f7011c5446f73ede
10,1,1706.4000000953674,arrowleft,psychophysics,29,119366,0.0-3.0-0.13,"""",key,arrowleft,16.663852941176362,768,361,14,1,1,20,35,25,35,false,"2021-09-28 23:01:23",99.234.127.84,"Mozilla/5.0 (Windows NT 10.0; Win64; x64) AppleWebKit/537.36 (KHTML, like Gecko) Chrome/93.0.4577.82 Safari/537.36",WebKit,Chrome,93.0.4577.82,Windows,10.0,fe3c1d035a65c549f7011c5446f73ede
10,1,null,null,psychophysics,30,120368,0.0-3.0-1.13,"""",key,null,16.667322033898355,768,361,"""","""","""","""","""","""","""","""","2021-09-28 23:01:23",99.234.127.84,"Mozilla/5.0 (Windows NT 10.0; Win64; x64) AppleWebKit/537.36 (KHTML, like Gecko) Chrome/93.0.4577.82 Safari/537.36",WebKit,Chrome,93.0.4577.82,Windows,10.0,fe3c1d035a65c549f7011c5446f73ede
10,1,3022.5,arrowleft,psychophysics,31,123394,0.0-3.0-0.14,"""",key,arrowleft,16.66982222222222,768,361,15,1,-1,27,35,25,35,true,"2021-09-28 23:01:23",99.234.127.84,"Mozilla/5.0 (Windows NT 10.0; Win64; x64) AppleWebKit/537.36 (KHTML, like Gecko) Chrome/93.0.4577.82 Safari/537.36",WebKit,Chrome,93.0.4577.82,Windows,10.0,fe3c1d035a65c549f7011c5446f73ede
10,1,null,null,psychophysics,32,124395,0.0-3.0-1.14,"""",key,null,16.66603389830512,768,361,"""","""","""","""","""","""","""","""","2021-09-28 23:01:23",99.234.127.84,"Mozilla/5.0 (Windows NT 10.0; Win64; x64) AppleWebKit/537.36 (KHTML, like Gecko) Chrome/93.0.4577.82 Safari/537.36",WebKit,Chrome,93.0.4577.82,Windows,10.0,fe3c1d035a65c549f7011c5446f73ede
10,1,1431,arrowleft,psychophysics,33,125828,0.0-3.0-0.15,"""",key,arrowleft,16.67032941176474,768,361,16,1,1,20,15,25,35,false,"2021-09-28 23:01:23",99.234.127.84,"Mozilla/5.0 (Windows NT 10.0; Win64; x64) AppleWebKit/537.36 (KHTML, like Gecko) Chrome/93.0.4577.82 Safari/537.36",WebKit,Chrome,93.0.4577.82,Windows,10.0,fe3c1d035a65c549f7011c5446f73ede
10,1,null,null,psychophysics,34,126830,0.0-3.0-1.15,"""",key,null,16.674559322033883,768,361,"""","""","""","""","""","""","""","""","2021-09-28 23:01:23",99.234.127.84,"Mozilla/5.0 (Windows NT 10.0; Win64; x64) AppleWebKit/537.36 (KHTML, like Gecko) Chrome/93.0.4577.82 Safari/537.36",WebKit,Chrome,93.0.4577.82,Windows,10.0,fe3c1d035a65c549f7011c5446f73ede
10,1,1621.0999999046326,arrowright,psychophysics,35,128455,0.0-3.0-0.16,"""",key,arrowright,16.667721649484537,768,361,17,1,1,30,15,25,35,true,"2021-09-28 23:01:23",99.234.127.84,"Mozilla/5.0 (Windows NT 10.0; Win64; x64) AppleWebKit/537.36 (KHTML, like Gecko) Chrome/93.0.4577.82 Safari/537.36",WebKit,Chrome,93.0.4577.82,Windows,10.0,fe3c1d035a65c549f7011c5446f73ede
10,1,null,null,psychophysics,36,129457,0.0-3.0-1.16,"""",key,null,16.667966101694976,768,361,"""","""","""","""","""","""","""","""","2021-09-28 23:01:23",99.234.127.84,"Mozilla/5.0 (Windows NT 10.0; Win64; x64) AppleWebKit/537.36 (KHTML, like Gecko) Chrome/93.0.4577.82 Safari/537.36",WebKit,Chrome,93.0.4577.82,Windows,10.0,fe3c1d035a65c549f7011c5446f73ede
10,1,2043.4000000953674,arrowright,psychophysics,37,131503,0.0-3.0-0.17,"""",key,arrowright,16.66786065573764,768,361,18,1,1,27,35,25,35,true,"2021-09-28 23:01:23",99.234.127.84,"Mozilla/5.0 (Windows NT 10.0; Win64; x64) AppleWebKit/537.36 (KHTML, like Gecko) Chrome/93.0.4577.82 Safari/537.36",WebKit,Chrome,93.0.4577.82,Windows,10.0,fe3c1d035a65c549f7011c5446f73ede
10,1,null,null,psychophysics,38,132507,0.0-3.0-1.17,"""",key,null,16.66620338983021,768,361,"""","""","""","""","""","""","""","""","2021-09-28 23:01:23",99.234.127.84,"Mozilla/5.0 (Windows NT 10.0; Win64; x64) AppleWebKit/537.36 (KHTML, like Gecko) Chrome/93.0.4577.82 Safari/537.36",WebKit,Chrome,93.0.4577.82,Windows,10.0,fe3c1d035a65c549f7011c5446f73ede
10,1,3701.2000000476837,arrowright,psychophysics,39,136210,0.0-3.0-0.18,"""",key,arrowright,16.665674208144804,768,361,19,1,1,25,15,25,35,true,"2021-09-28 23:01:23",99.234.127.84,"Mozilla/5.0 (Windows NT 10.0; Win64; x64) AppleWebKit/537.36 (KHTML, like Gecko) Chrome/93.0.4577.82 Safari/537.36",WebKit,Chrome,93.0.4577.82,Windows,10.0,fe3c1d035a65c549f7011c5446f73ede
10,1,null,null,psychophysics,40,137212,0.0-3.0-1.18,"""",key,null,16.66927118644057,768,361,"""","""","""","""","""","""","""","""","2021-09-28 23:01:23",99.234.127.84,"Mozilla/5.0 (Windows NT 10.0; Win64; x64) AppleWebKit/537.36 (KHTML, like Gecko) Chrome/93.0.4577.82 Safari/537.36",WebKit,Chrome,93.0.4577.82,Windows,10.0,fe3c1d035a65c549f7011c5446f73ede
10,1,1174.7999999523163,arrowright,psychophysics,41,138391,0.0-3.0-0.19,"""",key,arrowright,16.665257142857133,768,361,20,1,1,30,15,25,35,true,"2021-09-28 23:01:23",99.234.127.84,"Mozilla/5.0 (Windows NT 10.0; Win64; x64) AppleWebKit/537.36 (KHTML, like Gecko) Chrome/93.0.4577.82 Safari/537.36",WebKit,Chrome,93.0.4577.82,Windows,10.0,fe3c1d035a65c549f7011c5446f73ede
10,1,null,null,psychophysics,42,139400,0.0-3.0-1.19,"""",key,null,16.6733728813558,768,361,"""","""","""","""","""","""","""","""","2021-09-28 23:01:23",99.234.127.84,"Mozilla/5.0 (Windows NT 10.0; Win64; x64) AppleWebKit/537.36 (KHTML, like Gecko) Chrome/93.0.4577.82 Safari/537.36",WebKit,Chrome,93.0.4577.82,Windows,10.0,fe3c1d035a65c549f7011c5446f73ede
10,1,4004.0999999046326,arrowleft,psychophysics,43,143407,0.0-3.0-0.20,"""",key,arrowleft,16.667695833333347,768,361,21,1,1,24,35,25,35,false,"2021-09-28 23:01:23",99.234.127.84,"Mozilla/5.0 (Windows NT 10.0; Win64; x64) AppleWebKit/537.36 (KHTML, like Gecko) Chrome/93.0.4577.82 Safari/537.36",WebKit,Chrome,93.0.4577.82,Windows,10.0,fe3c1d035a65c549f7011c5446f73ede
10,1,null,null,psychophysics,44,144409,0.0-3.0-1.20,"""",key,null,16.666457627119073,768,361,"""","""","""","""","""","""","""","""","2021-09-28 23:01:23",99.234.127.84,"Mozilla/5.0 (Windows NT 10.0; Win64; x64) AppleWebKit/537.36 (KHTML, like Gecko) Chrome/93.0.4577.82 Safari/537.36",WebKit,Chrome,93.0.4577.82,Windows,10.0,fe3c1d035a65c549f7011c5446f73ede
10,1,808.5,arrowleft,psychophysics,45,145221,0.0-3.0-0.21,"""",key,arrowleft,16.66720833333299,768,361,22,1,-1,30,15,25,35,true,"2021-09-28 23:01:23",99.234.127.84,"Mozilla/5.0 (Windows NT 10.0; Win64; x64) AppleWebKit/537.36 (KHTML, like Gecko) Chrome/93.0.4577.82 Safari/537.36",WebKit,Chrome,93.0.4577.82,Windows,10.0,fe3c1d035a65c549f7011c5446f73ede
10,1,null,null,psychophysics,46,146222,0.0-3.0-1.21,"""",key,null,16.670610169491383,768,361,"""","""","""","""","""","""","""","""","2021-09-28 23:01:23",99.234.127.84,"Mozilla/5.0 (Windows NT 10.0; Win64; x64) AppleWebKit/537.36 (KHTML, like Gecko) Chrome/93.0.4577.82 Safari/537.36",WebKit,Chrome,93.0.4577.82,Windows,10.0,fe3c1d035a65c549f7011c5446f73ede
10,1,1903.3999998569489,arrowright,psychophysics,47,148128,0.0-3.0-0.22,"""",key,arrowright,16.66797345132743,768,361,23,1,1,24,15,25,35,true,"2021-09-28 23:01:23",99.234.127.84,"Mozilla/5.0 (Windows NT 10.0; Win64; x64) AppleWebKit/537.36 (KHTML, like Gecko) Chrome/93.0.4577.82 Safari/537.36",WebKit,Chrome,93.0.4577.82,Windows,10.0,fe3c1d035a65c549f7011c5446f73ede
10,1,null,null,psychophysics,48,149130,0.0-3.0-1.22,"""",key,null,16.669067796610268,768,361,"""","""","""","""","""","""","""","""","2021-09-28 23:01:23",99.234.127.84,"Mozilla/5.0 (Windows NT 10.0; Win64; x64) AppleWebKit/537.36 (KHTML, like Gecko) Chrome/93.0.4577.82 Safari/537.36",WebKit,Chrome,93.0.4577.82,Windows,10.0,fe3c1d035a65c549f7011c5446f73ede
10,1,825.7000000476837,arrowleft,psychophysics,49,149961,0.0-3.0-0.23,"""",key,arrowleft,16.675591836734533,768,361,24,1,-1,30,35,25,35,true,"2021-09-28 23:01:23",99.234.127.84,"Mozilla/5.0 (Windows NT 10.0; Win64; x64) AppleWebKit/537.36 (KHTML, like Gecko) Chrome/93.0.4577.82 Safari/537.36",WebKit,Chrome,93.0.4577.82,Windows,10.0,fe3c1d035a65c549f7011c5446f73ede
10,1,null,null,psychophysics,50,150966,0.0-3.0-1.23,"""",key,null,16.66086440677932,768,361,"""","""","""","""","""","""","""","""","2021-09-28 23:01:23",99.234.127.84,"Mozilla/5.0 (Windows NT 10.0; Win64; x64) AppleWebKit/537.36 (KHTML, like Gecko) Chrome/93.0.4577.82 Safari/537.36",WebKit,Chrome,93.0.4577.82,Windows,10.0,fe3c1d035a65c549f7011c5446f73ede
10,1,890.2000000476837,arrowright,psychophysics,51,151860,0.0-3.0-0.24,"""",key,arrowright,16.674094339622897,768,361,25,1,1,27,15,25,35,true,"2021-09-28 23:01:23",99.234.127.84,"Mozilla/5.0 (Windows NT 10.0; Win64; x64) AppleWebKit/537.36 (KHTML, like Gecko) Chrome/93.0.4577.82 Safari/537.36",WebKit,Chrome,93.0.4577.82,Windows,10.0,fe3c1d035a65c549f7011c5446f73ede
10,1,null,null,psychophysics,52,152861,0.0-3.0-1.24,"""",key,null,16.66035593220307,768,361,"""","""","""","""","""","""","""","""","2021-09-28 23:01:23",99.234.127.84,"Mozilla/5.0 (Windows NT 10.0; Win64; x64) AppleWebKit/537.36 (KHTML, like Gecko) Chrome/93.0.4577.82 Safari/537.36",WebKit,Chrome,93.0.4577.82,Windows,10.0,fe3c1d035a65c549f7011c5446f73ede
10,1,1595.7999999523163,arrowleft,psychophysics,53,154458,0.0-3.0-0.25,"""",key,arrowleft,16.671147368420957,768,361,26,1,1,23,15,25,35,false,"2021-09-28 23:01:23",99.234.127.84,"Mozilla/5.0 (Windows NT 10.0; Win64; x64) AppleWebKit/537.36 (KHTML, like Gecko) Chrome/93.0.4577.82 Safari/537.36",WebKit,Chrome,93.0.4577.82,Windows,10.0,fe3c1d035a65c549f7011c5446f73ede
10,1,null,null,psychophysics,54,155462,0.0-3.0-1.25,"""",key,null,16.660203389830343,768,361,"""","""","""","""","""","""","""","""","2021-09-28 23:01:23",99.234.127.84,"Mozilla/5.0 (Windows NT 10.0; Win64; x64) AppleWebKit/537.36 (KHTML, like Gecko) Chrome/93.0.4577.82 Safari/537.36",WebKit,Chrome,93.0.4577.82,Windows,10.0,fe3c1d035a65c549f7011c5446f73ede
10,1,1539.7000000476837,arrowleft,psychophysics,55,157004,0.0-3.0-0.26,"""",key,arrowleft,16.669989130434736,768,361,27,1,-1,24,15,25,35,true,"2021-09-28 23:01:23",99.234.127.84,"Mozilla/5.0 (Windows NT 10.0; Win64; x64) AppleWebKit/537.36 (KHTML, like Gecko) Chrome/93.0.4577.82 Safari/537.36",WebKit,Chrome,93.0.4577.82,Windows,10.0,fe3c1d035a65c549f7011c5446f73ede
10,1,null,null,psychophysics,56,158005,0.0-3.0-1.26,"""",key,null,16.657423728813566,768,361,"""","""","""","""","""","""","""","""","2021-09-28 23:01:23",99.234.127.84,"Mozilla/5.0 (Windows NT 10.0; Win64; x64) AppleWebKit/537.36 (KHTML, like Gecko) Chrome/93.0.4577.82 Safari/537.36",WebKit,Chrome,93.0.4577.82,Windows,10.0,fe3c1d035a65c549f7011c5446f73ede
10,1,843.7000000476837,arrowright,psychophysics,57,158852,0.0-3.0-0.27,"""",key,arrowright,16.66960000000021,768,361,28,2,1,30,15,25,35,true,"2021-09-28 23:01:23",99.234.127.84,"Mozilla/5.0 (Windows NT 10.0; Win64; x64) AppleWebKit/537.36 (KHTML, like Gecko) Chrome/93.0.4577.82 Safari/537.36",WebKit,Chrome,93.0.4577.82,Windows,10.0,fe3c1d035a65c549f7011c5446f73ede
10,1,null,null,psychophysics,58,159856,0.0-3.0-1.27,"""",key,null,16.659745762711665,768,361,"""","""","""","""","""","""","""","""","2021-09-28 23:01:23",99.234.127.84,"Mozilla/5.0 (Windows NT 10.0; Win64; x64) AppleWebKit/537.36 (KHTML, like Gecko) Chrome/93.0.4577.82 Safari/537.36",WebKit,Chrome,93.0.4577.82,Windows,10.0,fe3c1d035a65c549f7011c5446f73ede
10,1,6010.5," ",html-keyboard-response,59,165869,0.0-3.0-2.27-0.27,"<div style=""color: white; text-align: center; vertical-align: top; display: inline-block; width: 800px; margin: auto""><p>You have completed 10% of the trials. You are on block 2 of 10. <br>Good job! Take a break if you need to.</p><p>Press any key to continue the experiment.</p></div>","""","""","""","""","""","""","""","""","""","""","""","""","""","2021-09-28 23:01:23",99.234.127.84,"Mozilla/5.0 (Windows NT 10.0; Win64; x64) AppleWebKit/537.36 (KHTML, like Gecko) Chrome/93.0.4577.82 Safari/537.36",WebKit,Chrome,93.0.4577.82,Windows,10.0,fe3c1d035a65c549f7011c5446f73ede
10,1,10767,arrowright,psychophysics,60,177649,0.0-3.0-0.28,"""",key,arrowright,16.667750773993806,768,361,29,2,-1,27,35,25,35,false,"2021-09-28 23:01:23",99.234.127.84,"Mozilla/5.0 (Windows NT 10.0; Win64; x64) AppleWebKit/537.36 (KHTML, like Gecko) Chrome/93.0.4577.82 Safari/537.36",WebKit,Chrome,93.0.4577.82,Windows,10.0,fe3c1d035a65c549f7011c5446f73ede
10,1,null,null,psychophysics,61,178651,0.0-3.0-1.28,"""",key,null,16.672779661016754,768,361,"""","""","""","""","""","""","""","""","2021-09-28 23:01:23",99.234.127.84,"Mozilla/5.0 (Windows NT 10.0; Win64; x64) AppleWebKit/537.36 (KHTML, like Gecko) Chrome/93.0.4577.82 Safari/537.36",WebKit,Chrome,93.0.4577.82,Windows,10.0,fe3c1d035a65c549f7011c5446f73ede
10,1,1460.5,arrowleft,psychophysics,62,180115,0.0-3.0-0.29,"""",key,arrowleft,16.672172413793348,768,361,30,2,-1,26,15,25,35,true,"2021-09-28 23:01:23",99.234.127.84,"Mozilla/5.0 (Windows NT 10.0; Win64; x64) AppleWebKit/537.36 (KHTML, like Gecko) Chrome/93.0.4577.82 Safari/537.36",WebKit,Chrome,93.0.4577.82,Windows,10.0,fe3c1d035a65c549f7011c5446f73ede
10,1,null,null,psychophysics,63,181122,0.0-3.0-1.29,"""",key,null,16.66846666666679,768,361,"""","""","""","""","""","""","""","""","2021-09-28 23:01:23",99.234.127.84,"Mozilla/5.0 (Windows NT 10.0; Win64; x64) AppleWebKit/537.36 (KHTML, like Gecko) Chrome/93.0.4577.82 Safari/537.36",WebKit,Chrome,93.0.4577.82,Windows,10.0,fe3c1d035a65c549f7011c5446f73ede
10,1,1459.2999999523163,arrowleft,psychophysics,64,182584,0.0-3.0-0.30,"""",key,arrowleft,16.66804651162813,768,361,31,2,1,25,15,25,35,false,"2021-09-28 23:01:23",99.234.127.84,"Mozilla/5.0 (Windows NT 10.0; Win64; x64) AppleWebKit/537.36 (KHTML, like Gecko) Chrome/93.0.4577.82 Safari/537.36",WebKit,Chrome,93.0.4577.82,Windows,10.0,fe3c1d035a65c549f7011c5446f73ede
10,1,null,null,psychophysics,65,183585,0.0-3.0-1.30,"""",key,null,16.67619999999976,768,361,"""","""","""","""","""","""","""","""","2021-09-28 23:01:23",99.234.127.84,"Mozilla/5.0 (Windows NT 10.0; Win64; x64) AppleWebKit/537.36 (KHTML, like Gecko) Chrome/93.0.4577.82 Safari/537.36",WebKit,Chrome,93.0.4577.82,Windows,10.0,fe3c1d035a65c549f7011c5446f73ede
10,1,544.1999998092651,arrowright,psychophysics,66,184134,0.0-3.0-0.31,"""",key,arrowright,16.676999999999797,768,361,32,2,1,20,35,25,35,true,"2021-09-28 23:01:23",99.234.127.84,"Mozilla/5.0 (Windows NT 10.0; Win64; x64) AppleWebKit/537.36 (KHTML, like Gecko) Chrome/93.0.4577.82 Safari/537.36",WebKit,Chrome,93.0.4577.82,Windows,10.0,fe3c1d035a65c549f7011c5446f73ede
10,1,null,null,psychophysics,67,185135,0.0-3.0-1.31,"""",key,null,16.673254237288287,768,361,"""","""","""","""","""","""","""","""","2021-09-28 23:01:23",99.234.127.84,"Mozilla/5.0 (Windows NT 10.0; Win64; x64) AppleWebKit/537.36 (KHTML, like Gecko) Chrome/93.0.4577.82 Safari/537.36",WebKit,Chrome,93.0.4577.82,Windows,10.0,fe3c1d035a65c549f7011c5446f73ede
10,1,2094.7999999523163,arrowright,psychophysics,68,187237,0.0-3.0-0.32,"""",key,arrowright,16.67168253968264,768,361,33,2,-1,20,15,25,35,false,"2021-09-28 23:01:23",99.234.127.84,"Mozilla/5.0 (Windows NT 10.0; Win64; x64) AppleWebKit/537.36 (KHTML, like Gecko) Chrome/93.0.4577.82 Safari/537.36",WebKit,Chrome,93.0.4577.82,Windows,10.0,fe3c1d035a65c549f7011c5446f73ede
10,1,null,null,psychophysics,69,188238,0.0-3.0-1.32,"""",key,null,16.668796610169537,768,361,"""","""","""","""","""","""","""","""","2021-09-28 23:01:23",99.234.127.84,"Mozilla/5.0 (Windows NT 10.0; Win64; x64) AppleWebKit/537.36 (KHTML, like Gecko) Chrome/93.0.4577.82 Safari/537.36",WebKit,Chrome,93.0.4577.82,Windows,10.0,fe3c1d035a65c549f7011c5446f73ede
10,1,718.7000000476837,arrowleft,psychophysics,70,188959,0.0-3.0-0.33,"""",key,arrowleft,16.673547619047376,768,361,34,2,-1,27,35,25,35,true,"2021-09-28 23:01:23",99.234.127.84,"Mozilla/5.0 (Windows NT 10.0; Win64; x64) AppleWebKit/537.36 (KHTML, like Gecko) Chrome/93.0.4577.82 Safari/537.36",WebKit,Chrome,93.0.4577.82,Windows,10.0,fe3c1d035a65c549f7011c5446f73ede
10,1,null,null,psychophysics,71,189961,0.0-3.0-1.33,"""",key,null,16.662966101694757,768,361,"""","""","""","""","""","""","""","""","2021-09-28 23:01:23",99.234.127.84,"Mozilla/5.0 (Windows NT 10.0; Win64; x64) AppleWebKit/537.36 (KHTML, like Gecko) Chrome/93.0.4577.82 Safari/537.36",WebKit,Chrome,93.0.4577.82,Windows,10.0,fe3c1d035a65c549f7011c5446f73ede
10,1,2955.5999999046326,arrowright,psychophysics,72,192920,0.0-3.0-0.34,"""",key,arrowright,16.666977401129905,768,361,35,2,1,24,15,25,35,true,"2021-09-28 23:01:23",99.234.127.84,"Mozilla/5.0 (Windows NT 10.0; Win64; x64) AppleWebKit/537.36 (KHTML, like Gecko) Chrome/93.0.4577.82 Safari/537.36",WebKit,Chrome,93.0.4577.82,Windows,10.0,fe3c1d035a65c549f7011c5446f73ede
10,1,null,null,psychophysics,73,193923,0.0-3.0-1.34,"""",key,null,16.66654237288137,768,361,"""","""","""","""","""","""","""","""","2021-09-28 23:01:23",99.234.127.84,"Mozilla/5.0 (Windows NT 10.0; Win64; x64) AppleWebKit/537.36 (KHTML, like Gecko) Chrome/93.0.4577.82 Safari/537.36",WebKit,Chrome,93.0.4577.82,Windows,10.0,fe3c1d035a65c549f7011c5446f73ede
10,1,985.9000000953674,arrowleft,psychophysics,74,194911,0.0-3.0-0.35,"""",key,arrowleft,16.662103448275893,768,361,36,2,1,20,35,25,35,false,"2021-09-28 23:01:23",99.234.127.84,"Mozilla/5.0 (Windows NT 10.0; Win64; x64) AppleWebKit/537.36 (KHTML, like Gecko) Chrome/93.0.4577.82 Safari/537.36",WebKit,Chrome,93.0.4577.82,Windows,10.0,fe3c1d035a65c549f7011c5446f73ede
10,1,null,null,psychophysics,75,195913,0.0-3.0-1.35,"""",key,null,16.671915254237472,768,361,"""","""","""","""","""","""","""","""","2021-09-28 23:01:23",99.234.127.84,"Mozilla/5.0 (Windows NT 10.0; Win64; x64) AppleWebKit/537.36 (KHTML, like Gecko) Chrome/93.0.4577.82 Safari/537.36",WebKit,Chrome,93.0.4577.82,Windows,10.0,fe3c1d035a65c549f7011c5446f73ede
10,1,1929.2000000476837,arrowright,psychophysics,76,197845,0.0-3.0-0.36,"""",key,arrowright,16.67072173913045,768,361,37,2,1,24,35,25,35,true,"2021-09-28 23:01:23",99.234.127.84,"Mozilla/5.0 (Windows NT 10.0; Win64; x64) AppleWebKit/537.36 (KHTML, like Gecko) Chrome/93.0.4577.82 Safari/537.36",WebKit,Chrome,93.0.4577.82,Windows,10.0,fe3c1d035a65c549f7011c5446f73ede
10,1,null,null,psychophysics,77,198847,0.0-3.0-1.36,"""",key,null,16.66794915254212,768,361,"""","""","""","""","""","""","""","""","2021-09-28 23:01:23",99.234.127.84,"Mozilla/5.0 (Windows NT 10.0; Win64; x64) AppleWebKit/537.36 (KHTML, like Gecko) Chrome/93.0.4577.82 Safari/537.36",WebKit,Chrome,93.0.4577.82,Windows,10.0,fe3c1d035a65c549f7011c5446f73ede
10,1,699.4000000953674,arrowright,psychophysics,78,199549,0.0-3.0-0.37,"""",key,arrowright,16.66768292682927,768,361,38,2,-1,20,35,25,35,false,"2021-09-28 23:01:23",99.234.127.84,"Mozilla/5.0 (Windows NT 10.0; Win64; x64) AppleWebKit/537.36 (KHTML, like Gecko) Chrome/93.0.4577.82 Safari/537.36",WebKit,Chrome,93.0.4577.82,Windows,10.0,fe3c1d035a65c549f7011c5446f73ede
10,1,null,null,psychophysics,79,200550,0.0-3.0-1.37,"""",key,null,16.664169491525698,768,361,"""","""","""","""","""","""","""","""","2021-09-28 23:01:23",99.234.127.84,"Mozilla/5.0 (Windows NT 10.0; Win64; x64) AppleWebKit/537.36 (KHTML, like Gecko) Chrome/93.0.4577.82 Safari/537.36",WebKit,Chrome,93.0.4577.82,Windows,10.0,fe3c1d035a65c549f7011c5446f73ede
10,1,768.5,arrowleft,psychophysics,80,201321,0.0-3.0-0.38,"""",key,arrowleft,16.6596304347831,768,361,39,2,-1,25,15,25,35,true,"2021-09-28 23:01:23",99.234.127.84,"Mozilla/5.0 (Windows NT 10.0; Win64; x64) AppleWebKit/537.36 (KHTML, like Gecko) Chrome/93.0.4577.82 Safari/537.36",WebKit,Chrome,93.0.4577.82,Windows,10.0,fe3c1d035a65c549f7011c5446f73ede
10,1,null,null,psychophysics,81,202324,0.0-3.0-1.38,"""",key,null,16.673593220338955,768,361,"""","""","""","""","""","""","""","""","2021-09-28 23:01:23",99.234.127.84,"Mozilla/5.0 (Windows NT 10.0; Win64; x64) AppleWebKit/537.36 (KHTML, like Gecko) Chrome/93.0.4577.82 Safari/537.36",WebKit,Chrome,93.0.4577.82,Windows,10.0,fe3c1d035a65c549f7011c5446f73ede
10,1,1993,arrowright,psychophysics,82,204320,0.0-3.0-0.39,"""",key,arrowright,16.66530252100842,768,361,40,2,1,27,35,25,35,true,"2021-09-28 23:01:23",99.234.127.84,"Mozilla/5.0 (Windows NT 10.0; Win64; x64) AppleWebKit/537.36 (KHTML, like Gecko) Chrome/93.0.4577.82 Safari/537.36",WebKit,Chrome,93.0.4577.82,Windows,10.0,fe3c1d035a65c549f7011c5446f73ede
10,1,null,null,psychophysics,83,205322,0.0-3.0-1.39,"""",key,null,16.664355932203637,768,361,"""","""","""","""","""","""","""","""","2021-09-28 23:01:23",99.234.127.84,"Mozilla/5.0 (Windows NT 10.0; Win64; x64) AppleWebKit/537.36 (KHTML, like Gecko) Chrome/93.0.4577.82 Safari/537.36",WebKit,Chrome,93.0.4577.82,Windows,10.0,fe3c1d035a65c549f7011c5446f73ede
10,1,499.2000000476837,arrowleft,psychophysics,84,205828,0.0-3.0-0.40,"""",key,arrowleft,16.67551724137919,768,361,41,2,1,26,15,25,35,false,"2021-09-28 23:01:23",99.234.127.84,"Mozilla/5.0 (Windows NT 10.0; Win64; x64) AppleWebKit/537.36 (KHTML, like Gecko) Chrome/93.0.4577.82 Safari/537.36",WebKit,Chrome,93.0.4577.82,Windows,10.0,fe3c1d035a65c549f7011c5446f73ede
10,1,null,null,psychophysics,85,206830,0.0-3.0-1.40,"""",key,null,16.668067796610128,768,361,"""","""","""","""","""","""","""","""","2021-09-28 23:01:23",99.234.127.84,"Mozilla/5.0 (Windows NT 10.0; Win64; x64) AppleWebKit/537.36 (KHTML, like Gecko) Chrome/93.0.4577.82 Safari/537.36",WebKit,Chrome,93.0.4577.82,Windows,10.0,fe3c1d035a65c549f7011c5446f73ede
10,1,557.2999999523163,arrowright,psychophysics,86,207392,0.0-3.0-0.41,"""",key,arrowright,16.667515151514884,768,361,42,2,1,26,35,25,35,true,"2021-09-28 23:01:23",99.234.127.84,"Mozilla/5.0 (Windows NT 10.0; Win64; x64) AppleWebKit/537.36 (KHTML, like Gecko) Chrome/93.0.4577.82 Safari/537.36",WebKit,Chrome,93.0.4577.82,Windows,10.0,fe3c1d035a65c549f7011c5446f73ede
10,1,null,null,psychophysics,87,208394,0.0-3.0-1.41,"""",key,null,16.67298305084706,768,361,"""","""","""","""","""","""","""","""","2021-09-28 23:01:23",99.234.127.84,"Mozilla/5.0 (Windows NT 10.0; Win64; x64) AppleWebKit/537.36 (KHTML, like Gecko) Chrome/93.0.4577.82 Safari/537.36",WebKit,Chrome,93.0.4577.82,Windows,10.0,fe3c1d035a65c549f7011c5446f73ede
10,1,1040.7000000476837,arrowleft,psychophysics,88,209439,0.0-3.0-0.42,"""",key,arrowleft,16.66174193548373,768,361,43,2,1,20,35,25,35,false,"2021-09-28 23:01:23",99.234.127.84,"Mozilla/5.0 (Windows NT 10.0; Win64; x64) AppleWebKit/537.36 (KHTML, like Gecko) Chrome/93.0.4577.82 Safari/537.36",WebKit,Chrome,93.0.4577.82,Windows,10.0,fe3c1d035a65c549f7011c5446f73ede
10,1,null,null,psychophysics,89,210440,0.0-3.0-1.42,"""",key,null,16.667542372881513,768,361,"""","""","""","""","""","""","""","""","2021-09-28 23:01:23",99.234.127.84,"Mozilla/5.0 (Windows NT 10.0; Win64; x64) AppleWebKit/537.36 (KHTML, like Gecko) Chrome/93.0.4577.82 Safari/537.36",WebKit,Chrome,93.0.4577.82,Windows,10.0,fe3c1d035a65c549f7011c5446f73ede
10,1,3313.7999999523163,arrowleft,psychophysics,90,213757,0.0-3.0-0.43,"""",key,arrowleft,16.66722222222215,768,361,44,2,1,27,15,25,35,false,"2021-09-28 23:01:23",99.234.127.84,"Mozilla/5.0 (Windows NT 10.0; Win64; x64) AppleWebKit/537.36 (KHTML, like Gecko) Chrome/93.0.4577.82 Safari/537.36",WebKit,Chrome,93.0.4577.82,Windows,10.0,fe3c1d035a65c549f7011c5446f73ede
10,1,null,null,psychophysics,91,214761,0.0-3.0-1.43,"""",key,null,16.66189830508468,768,361,"""","""","""","""","""","""","""","""","2021-09-28 23:01:23",99.234.127.84,"Mozilla/5.0 (Windows NT 10.0; Win64; x64) AppleWebKit/537.36 (KHTML, like Gecko) Chrome/93.0.4577.82 Safari/537.36",WebKit,Chrome,93.0.4577.82,Windows,10.0,fe3c1d035a65c549f7011c5446f73ede
10,1,2469.2000000476837,arrowright,psychophysics,92,217233,0.0-3.0-0.44,"""",key,arrowright,16.669435374149508,768,361,45,2,1,27,35,25,35,true,"2021-09-28 23:01:23",99.234.127.84,"Mozilla/5.0 (Windows NT 10.0; Win64; x64) AppleWebKit/537.36 (KHTML, like Gecko) Chrome/93.0.4577.82 Safari/537.36",WebKit,Chrome,93.0.4577.82,Windows,10.0,fe3c1d035a65c549f7011c5446f73ede
10,1,null,null,psychophysics,93,218235,0.0-3.0-1.44,"""",key,null,16.671406779661222,768,361,"""","""","""","""","""","""","""","""","2021-09-28 23:01:23",99.234.127.84,"Mozilla/5.0 (Windows NT 10.0; Win64; x64) AppleWebKit/537.36 (KHTML, like Gecko) Chrome/93.0.4577.82 Safari/537.36",WebKit,Chrome,93.0.4577.82,Windows,10.0,fe3c1d035a65c549f7011c5446f73ede
10,1,1117.3000001907349,arrowright,psychophysics,94,219355,0.0-3.0-0.45,"""",key,arrowright,16.67177611940285,768,361,46,2,1,27,35,25,35,true,"2021-09-28 23:01:23",99.234.127.84,"Mozilla/5.0 (Windows NT 10.0; Win64; x64) AppleWebKit/537.36 (KHTML, like Gecko) Chrome/93.0.4577.82 Safari/537.36",WebKit,Chrome,93.0.4577.82,Windows,10.0,fe3c1d035a65c549f7011c5446f73ede
10,1,null,null,psychophysics,95,220358,0.0-3.0-1.45,"""",key,null,16.67388135593205,768,361,"""","""","""","""","""","""","""","""","2021-09-28 23:01:23",99.234.127.84,"Mozilla/5.0 (Windows NT 10.0; Win64; x64) AppleWebKit/537.36 (KHTML, like Gecko) Chrome/93.0.4577.82 Safari/537.36",WebKit,Chrome,93.0.4577.82,Windows,10.0,fe3c1d035a65c549f7011c5446f73ede
10,1,2125.199999809265,arrowright,psychophysics,96,222489,0.0-3.0-0.46,"""",key,arrowright,16.67333858267713,768,361,47,2,1,26,15,25,35,true,"2021-09-28 23:01:23",99.234.127.84,"Mozilla/5.0 (Windows NT 10.0; Win64; x64) AppleWebKit/537.36 (KHTML, like Gecko) Chrome/93.0.4577.82 Safari/537.36",WebKit,Chrome,93.0.4577.82,Windows,10.0,fe3c1d035a65c549f7011c5446f73ede
10,1,null,null,psychophysics,97,223492,0.0-3.0-1.46,"""",key,null,16.662372881355715,768,361,"""","""","""","""","""","""","""","""","2021-09-28 23:01:23",99.234.127.84,"Mozilla/5.0 (Windows NT 10.0; Win64; x64) AppleWebKit/537.36 (KHTML, like Gecko) Chrome/93.0.4577.82 Safari/537.36",WebKit,Chrome,93.0.4577.82,Windows,10.0,fe3c1d035a65c549f7011c5446f73ede
10,1,918.0999999046326,arrowleft,psychophysics,98,224412,0.0-3.0-0.47,"""",key,arrowleft,16.66894444444484,768,361,48,2,-1,30,15,25,35,true,"2021-09-28 23:01:23",99.234.127.84,"Mozilla/5.0 (Windows NT 10.0; Win64; x64) AppleWebKit/537.36 (KHTML, like Gecko) Chrome/93.0.4577.82 Safari/537.36",WebKit,Chrome,93.0.4577.82,Windows,10.0,fe3c1d035a65c549f7011c5446f73ede
10,1,null,null,psychophysics,99,225414,0.0-3.0-1.47,"""",key,null,16.665491525423654,768,361,"""","""","""","""","""","""","""","""","2021-09-28 23:01:23",99.234.127.84,"Mozilla/5.0 (Windows NT 10.0; Win64; x64) AppleWebKit/537.36 (KHTML, like Gecko) Chrome/93.0.4577.82 Safari/537.36",WebKit,Chrome,93.0.4577.82,Windows,10.0,fe3c1d035a65c549f7011c5446f73ede
10,1,2275,arrowleft,psychophysics,100,227692,0.0-3.0-0.48,"""",key,arrowleft,16.66831617647061,768,361,49,2,1,25,35,25,35,false,"2021-09-28 23:01:23",99.234.127.84,"Mozilla/5.0 (Windows NT 10.0; Win64; x64) AppleWebKit/537.36 (KHTML, like Gecko) Chrome/93.0.4577.82 Safari/537.36",WebKit,Chrome,93.0.4577.82,Windows,10.0,fe3c1d035a65c549f7011c5446f73ede
10,1,null,null,psychophysics,101,228695,0.0-3.0-1.48,"""",key,null,16.670779661016965,768,361,"""","""","""","""","""","""","""","""","2021-09-28 23:01:23",99.234.127.84,"Mozilla/5.0 (Windows NT 10.0; Win64; x64) AppleWebKit/537.36 (KHTML, like Gecko) Chrome/93.0.4577.82 Safari/537.36",WebKit,Chrome,93.0.4577.82,Windows,10.0,fe3c1d035a65c549f7011c5446f73ede
10,1,1040.5,arrowright,psychophysics,102,229739,0.0-3.0-0.49,"""",key,arrowright,16.66775806451633,768,361,50,2,1,26,15,25,35,true,"2021-09-28 23:01:23",99.234.127.84,"Mozilla/5.0 (Windows NT 10.0; Win64; x64) AppleWebKit/537.36 (KHTML, like Gecko) Chrome/93.0.4577.82 Safari/537.36",WebKit,Chrome,93.0.4577.82,Windows,10.0,fe3c1d035a65c549f7011c5446f73ede
10,1,null,null,psychophysics,103,230742,0.0-3.0-1.49,"""",key,null,16.664576271186796,768,361,"""","""","""","""","""","""","""","""","2021-09-28 23:01:23",99.234.127.84,"Mozilla/5.0 (Windows NT 10.0; Win64; x64) AppleWebKit/537.36 (KHTML, like Gecko) Chrome/93.0.4577.82 Safari/537.36",WebKit,Chrome,93.0.4577.82,Windows,10.0,fe3c1d035a65c549f7011c5446f73ede
10,1,1579.2999999523163,arrowright,psychophysics,104,232323,0.0-3.0-0.50,"""",key,arrowright,16.66456382978736,768,361,51,2,-1,20,35,25,35,false,"2021-09-28 23:01:23",99.234.127.84,"Mozilla/5.0 (Windows NT 10.0; Win64; x64) AppleWebKit/537.36 (KHTML, like Gecko) Chrome/93.0.4577.82 Safari/537.36",WebKit,Chrome,93.0.4577.82,Windows,10.0,fe3c1d035a65c549f7011c5446f73ede
10,1,null,null,psychophysics,105,233325,0.0-3.0-1.50,"""",key,null,16.660983050847822,768,361,"""","""","""","""","""","""","""","""","2021-09-28 23:01:23",99.234.127.84,"Mozilla/5.0 (Windows NT 10.0; Win64; x64) AppleWebKit/537.36 (KHTML, like Gecko) Chrome/93.0.4577.82 Safari/537.36",WebKit,Chrome,93.0.4577.82,Windows,10.0,fe3c1d035a65c549f7011c5446f73ede
10,1,593.6999998092651,arrowleft,psychophysics,106,233923,0.0-3.0-0.51,"""",key,arrowleft,16.658999999999235,768,361,52,2,-1,30,35,25,35,true,"2021-09-28 23:01:23",99.234.127.84,"Mozilla/5.0 (Windows NT 10.0; Win64; x64) AppleWebKit/537.36 (KHTML, like Gecko) Chrome/93.0.4577.82 Safari/537.36",WebKit,Chrome,93.0.4577.82,Windows,10.0,fe3c1d035a65c549f7011c5446f73ede
10,1,null,null,psychophysics,107,234925,0.0-3.0-1.51,"""",key,null,16.670254237288354,768,361,"""","""","""","""","""","""","""","""","2021-09-28 23:01:23",99.234.127.84,"Mozilla/5.0 (Windows NT 10.0; Win64; x64) AppleWebKit/537.36 (KHTML, like Gecko) Chrome/93.0.4577.82 Safari/537.36",WebKit,Chrome,93.0.4577.82,Windows,10.0,fe3c1d035a65c549f7011c5446f73ede
10,1,1093.2999999523163,arrowleft,psychophysics,108,236020,0.0-3.0-0.52,"""",key,arrowleft,16.662046875000215,768,361,53,2,-1,27,15,25,35,true,"2021-09-28 23:01:23",99.234.127.84,"Mozilla/5.0 (Windows NT 10.0; Win64; x64) AppleWebKit/537.36 (KHTML, like Gecko) Chrome/93.0.4577.82 Safari/537.36",WebKit,Chrome,93.0.4577.82,Windows,10.0,fe3c1d035a65c549f7011c5446f73ede
10,1,null,null,psychophysics,109,237021,0.0-3.0-1.52,"""",key,null,16.673508474576163,768,361,"""","""","""","""","""","""","""","""","2021-09-28 23:01:23",99.234.127.84,"Mozilla/5.0 (Windows NT 10.0; Win64; x64) AppleWebKit/537.36 (KHTML, like Gecko) Chrome/93.0.4577.82 Safari/537.36",WebKit,Chrome,93.0.4577.82,Windows,10.0,fe3c1d035a65c549f7011c5446f73ede
10,1,2343.7000000476837,arrowright,psychophysics,110,239370,0.0-3.0-0.53,"""",key,arrowright,16.66739285714305,768,361,54,2,1,24,35,25,35,true,"2021-09-28 23:01:23",99.234.127.84,"Mozilla/5.0 (Windows NT 10.0; Win64; x64) AppleWebKit/537.36 (KHTML, like Gecko) Chrome/93.0.4577.82 Safari/537.36",WebKit,Chrome,93.0.4577.82,Windows,10.0,fe3c1d035a65c549f7011c5446f73ede
10,1,null,null,psychophysics,111,240374,0.0-3.0-1.53,"""",key,null,16.672216666666404,768,361,"""","""","""","""","""","""","""","""","2021-09-28 23:01:23",99.234.127.84,"Mozilla/5.0 (Windows NT 10.0; Win64; x64) AppleWebKit/537.36 (KHTML, like Gecko) Chrome/93.0.4577.82 Safari/537.36",WebKit,Chrome,93.0.4577.82,Windows,10.0,fe3c1d035a65c549f7011c5446f73ede
10,1,890.7999999523163,arrowright,psychophysics,112,241267,0.0-3.0-0.54,"""",key,arrowright,16.671980769231315,768,361,55,2,1,26,35,25,35,true,"2021-09-28 23:01:23",99.234.127.84,"Mozilla/5.0 (Windows NT 10.0; Win64; x64) AppleWebKit/537.36 (KHTML, like Gecko) Chrome/93.0.4577.82 Safari/537.36",WebKit,Chrome,93.0.4577.82,Windows,10.0,fe3c1d035a65c549f7011c5446f73ede
10,1,null,null,psychophysics,113,242269,0.0-3.0-1.54,"""",key,null,16.66752542372866,768,361,"""","""","""","""","""","""","""","""","2021-09-28 23:01:23",99.234.127.84,"Mozilla/5.0 (Windows NT 10.0; Win64; x64) AppleWebKit/537.36 (KHTML, like Gecko) Chrome/93.0.4577.82 Safari/537.36",WebKit,Chrome,93.0.4577.82,Windows,10.0,fe3c1d035a65c549f7011c5446f73ede
10,1,700.7000000476837,arrowleft,psychophysics,114,242972,0.0-3.0-0.55,"""",key,arrowleft,16.666904761904984,768,361,56,3,-1,27,35,25,35,true,"2021-09-28 23:01:23",99.234.127.84,"Mozilla/5.0 (Windows NT 10.0; Win64; x64) AppleWebKit/537.36 (KHTML, like Gecko) Chrome/93.0.4577.82 Safari/537.36",WebKit,Chrome,93.0.4577.82,Windows,10.0,fe3c1d035a65c549f7011c5446f73ede
10,1,null,null,psychophysics,115,243975,0.0-3.0-1.55,"""",key,null,16.67076271186411,768,361,"""","""","""","""","""","""","""","""","2021-09-28 23:01:23",99.234.127.84,"Mozilla/5.0 (Windows NT 10.0; Win64; x64) AppleWebKit/537.36 (KHTML, like Gecko) Chrome/93.0.4577.82 Safari/537.36",WebKit,Chrome,93.0.4577.82,Windows,10.0,fe3c1d035a65c549f7011c5446f73ede
10,1,4814.400000095367," ",html-keyboard-response,116,248790,0.0-3.0-2.55-0.55,"<div style=""color: white; text-align: center; vertical-align: top; display: inline-block; width: 800px; margin: auto""><p>You have completed 20% of the trials. You are on block 3 of 10. <br>Good job! Take a break if you need to.</p><p>Press any key to continue the experiment.</p></div>","""","""","""","""","""","""","""","""","""","""","""","""","""","2021-09-28 23:01:23",99.234.127.84,"Mozilla/5.0 (Windows NT 10.0; Win64; x64) AppleWebKit/537.36 (KHTML, like Gecko) Chrome/93.0.4577.82 Safari/537.36",WebKit,Chrome,93.0.4577.82,Windows,10.0,fe3c1d035a65c549f7011c5446f73ede
10,1,2036,arrowleft,psychophysics,117,251832,0.0-3.0-0.56,"""",key,arrowleft,16.670409836065403,768,361,57,3,1,20,15,25,35,false,"2021-09-28 23:01:23",99.234.127.84,"Mozilla/5.0 (Windows NT 10.0; Win64; x64) AppleWebKit/537.36 (KHTML, like Gecko) Chrome/93.0.4577.82 Safari/537.36",WebKit,Chrome,93.0.4577.82,Windows,10.0,fe3c1d035a65c549f7011c5446f73ede
10,1,null,null,psychophysics,118,252834,0.0-3.0-1.56,"""",key,null,16.66989830508483,768,361,"""","""","""","""","""","""","""","""","2021-09-28 23:01:23",99.234.127.84,"Mozilla/5.0 (Windows NT 10.0; Win64; x64) AppleWebKit/537.36 (KHTML, like Gecko) Chrome/93.0.4577.82 Safari/537.36",WebKit,Chrome,93.0.4577.82,Windows,10.0,fe3c1d035a65c549f7011c5446f73ede
10,1,2027.7999999523163,arrowright,psychophysics,119,254864,0.0-3.0-0.57,"""",key,arrowright,16.66436363636369,768,361,58,3,-1,24,15,25,35,false,"2021-09-28 23:01:23",99.234.127.84,"Mozilla/5.0 (Windows NT 10.0; Win64; x64) AppleWebKit/537.36 (KHTML, like Gecko) Chrome/93.0.4577.82 Safari/537.36",WebKit,Chrome,93.0.4577.82,Windows,10.0,fe3c1d035a65c549f7011c5446f73ede
10,1,null,null,psychophysics,120,255868,0.0-3.0-1.57,"""",key,null,16.67303389830513,768,361,"""","""","""","""","""","""","""","""","2021-09-28 23:01:23",99.234.127.84,"Mozilla/5.0 (Windows NT 10.0; Win64; x64) AppleWebKit/537.36 (KHTML, like Gecko) Chrome/93.0.4577.82 Safari/537.36",WebKit,Chrome,93.0.4577.82,Windows,10.0,fe3c1d035a65c549f7011c5446f73ede
10,1,976.7999999523163,arrowright,psychophysics,121,256848,0.0-3.0-0.58,"""",key,arrowright,16.668672413793033,768,361,59,3,1,24,15,25,35,true,"2021-09-28 23:01:23",99.234.127.84,"Mozilla/5.0 (Windows NT 10.0; Win64; x64) AppleWebKit/537.36 (KHTML, like Gecko) Chrome/93.0.4577.82 Safari/537.36",WebKit,Chrome,93.0.4577.82,Windows,10.0,fe3c1d035a65c549f7011c5446f73ede
10,1,null,null,psychophysics,122,257849,0.0-3.0-1.58,"""",key,null,16.663932203389685,768,361,"""","""","""","""","""","""","""","""","2021-09-28 23:01:23",99.234.127.84,"Mozilla/5.0 (Windows NT 10.0; Win64; x64) AppleWebKit/537.36 (KHTML, like Gecko) Chrome/93.0.4577.82 Safari/537.36",WebKit,Chrome,93.0.4577.82,Windows,10.0,fe3c1d035a65c549f7011c5446f73ede
10,1,737.5999999046326,arrowleft,psychophysics,123,258590,0.0-3.0-0.59,"""",key,arrowleft,16.66586363636386,768,361,60,3,-1,27,15,25,35,true,"2021-09-28 23:01:23",99.234.127.84,"Mozilla/5.0 (Windows NT 10.0; Win64; x64) AppleWebKit/537.36 (KHTML, like Gecko) Chrome/93.0.4577.82 Safari/537.36",WebKit,Chrome,93.0.4577.82,Windows,10.0,fe3c1d035a65c549f7011c5446f73ede
10,1,null,null,psychophysics,124,259592,0.0-3.0-1.59,"""",key,null,16.66769491525424,768,361,"""","""","""","""","""","""","""","""","2021-09-28 23:01:23",99.234.127.84,"Mozilla/5.0 (Windows NT 10.0; Win64; x64) AppleWebKit/537.36 (KHTML, like Gecko) Chrome/93.0.4577.82 Safari/537.36",WebKit,Chrome,93.0.4577.82,Windows,10.0,fe3c1d035a65c549f7011c5446f73ede
10,1,1111.5,arrowleft,psychophysics,125,260707,0.0-3.0-0.60,"""",key,arrowleft,16.66986363636335,768,361,61,3,1,23,35,25,35,false,"2021-09-28 23:01:23",99.234.127.84,"Mozilla/5.0 (Windows NT 10.0; Win64; x64) AppleWebKit/537.36 (KHTML, like Gecko) Chrome/93.0.4577.82 Safari/537.36",WebKit,Chrome,93.0.4577.82,Windows,10.0,fe3c1d035a65c549f7011c5446f73ede
10,1,null,null,psychophysics,126,261711,0.0-3.0-1.60,"""",key,null,16.673847457627822,768,361,"""","""","""","""","""","""","""","""","2021-09-28 23:01:23",99.234.127.84,"Mozilla/5.0 (Windows NT 10.0; Win64; x64) AppleWebKit/537.36 (KHTML, like Gecko) Chrome/93.0.4577.82 Safari/537.36",WebKit,Chrome,93.0.4577.82,Windows,10.0,fe3c1d035a65c549f7011c5446f73ede
10,1,3270.9000000953674,arrowright,psychophysics,127,264985,0.0-3.0-0.61,"""",key,arrowright,16.666230769230662,768,361,62,3,1,20,15,25,35,true,"2021-09-28 23:01:23",99.234.127.84,"Mozilla/5.0 (Windows NT 10.0; Win64; x64) AppleWebKit/537.36 (KHTML, like Gecko) Chrome/93.0.4577.82 Safari/537.36",WebKit,Chrome,93.0.4577.82,Windows,10.0,fe3c1d035a65c549f7011c5446f73ede
10,1,null,null,psychophysics,128,265986,0.0-3.0-1.61,"""",key,null,16.6631525423727,768,361,"""","""","""","""","""","""","""","""","2021-09-28 23:01:23",99.234.127.84,"Mozilla/5.0 (Windows NT 10.0; Win64; x64) AppleWebKit/537.36 (KHTML, like Gecko) Chrome/93.0.4577.82 Safari/537.36",WebKit,Chrome,93.0.4577.82,Windows,10.0,fe3c1d035a65c549f7011c5446f73ede
10,1,2512.399999856949,arrowleft,psychophysics,129,268501,0.0-3.0-0.62,"""",key,arrowleft,16.668673333333185,768,361,63,3,-1,25,15,25,35,true,"2021-09-28 23:01:23",99.234.127.84,"Mozilla/5.0 (Windows NT 10.0; Win64; x64) AppleWebKit/537.36 (KHTML, like Gecko) Chrome/93.0.4577.82 Safari/537.36",WebKit,Chrome,93.0.4577.82,Windows,10.0,fe3c1d035a65c549f7011c5446f73ede
10,1,null,null,psychophysics,130,269504,0.0-3.0-1.62,"""",key,null,16.669220338982996,768,361,"""","""","""","""","""","""","""","""","2021-09-28 23:01:23",99.234.127.84,"Mozilla/5.0 (Windows NT 10.0; Win64; x64) AppleWebKit/537.36 (KHTML, like Gecko) Chrome/93.0.4577.82 Safari/537.36",WebKit,Chrome,93.0.4577.82,Windows,10.0,fe3c1d035a65c549f7011c5446f73ede
10,1,1025.8999998569489,arrowright,psychophysics,131,270532,0.0-3.0-0.63,"""",key,arrowright,16.673737704918004,768,361,64,3,-1,20,15,25,35,false,"2021-09-28 23:01:23",99.234.127.84,"Mozilla/5.0 (Windows NT 10.0; Win64; x64) AppleWebKit/537.36 (KHTML, like Gecko) Chrome/93.0.4577.82 Safari/537.36",WebKit,Chrome,93.0.4577.82,Windows,10.0,fe3c1d035a65c549f7011c5446f73ede
10,1,null,null,psychophysics,132,271534,0.0-3.0-1.63,"""",key,null,16.663728813558887,768,361,"""","""","""","""","""","""","""","""","2021-09-28 23:01:23",99.234.127.84,"Mozilla/5.0 (Windows NT 10.0; Win64; x64) AppleWebKit/537.36 (KHTML, like Gecko) Chrome/93.0.4577.82 Safari/537.36",WebKit,Chrome,93.0.4577.82,Windows,10.0,fe3c1d035a65c549f7011c5446f73ede
10,1,1570.6000001430511,arrowright,psychophysics,133,273108,0.0-3.0-0.64,"""",key,arrowright,16.668404255319324,768,361,65,3,-1,23,35,25,35,false,"2021-09-28 23:01:23",99.234.127.84,"Mozilla/5.0 (Windows NT 10.0; Win64; x64) AppleWebKit/537.36 (KHTML, like Gecko) Chrome/93.0.4577.82 Safari/537.36",WebKit,Chrome,93.0.4577.82,Windows,10.0,fe3c1d035a65c549f7011c5446f73ede
10,1,null,null,psychophysics,134,274111,0.0-3.0-1.64,"""",key,null,16.6608305084746,768,361,"""","""","""","""","""","""","""","""","2021-09-28 23:01:23",99.234.127.84,"Mozilla/5.0 (Windows NT 10.0; Win64; x64) AppleWebKit/537.36 (KHTML, like Gecko) Chrome/93.0.4577.82 Safari/537.36",WebKit,Chrome,93.0.4577.82,Windows,10.0,fe3c1d035a65c549f7011c5446f73ede
10,1,2325.300000190735,arrowleft,psychophysics,135,276440,0.0-3.0-0.65,"""",key,arrowleft,16.66895652173907,768,361,66,3,1,23,35,25,35,false,"2021-09-28 23:01:23",99.234.127.84,"Mozilla/5.0 (Windows NT 10.0; Win64; x64) AppleWebKit/537.36 (KHTML, like Gecko) Chrome/93.0.4577.82 Safari/537.36",WebKit,Chrome,93.0.4577.82,Windows,10.0,fe3c1d035a65c549f7011c5446f73ede
10,1,null,null,psychophysics,136,277441,0.0-3.0-1.65,"""",key,null,16.673233333332853,768,361,"""","""","""","""","""","""","""","""","2021-09-28 23:01:23",99.234.127.84,"Mozilla/5.0 (Windows NT 10.0; Win64; x64) AppleWebKit/537.36 (KHTML, like Gecko) Chrome/93.0.4577.82 Safari/537.36",WebKit,Chrome,93.0.4577.82,Windows,10.0,fe3c1d035a65c549f7011c5446f73ede
10,1,2172.7999999523163,arrowleft,psychophysics,137,279618,0.0-3.0-0.66,"""",key,arrowleft,16.667604651162673,768,361,67,3,1,23,35,25,35,false,"2021-09-28 23:01:23",99.234.127.84,"Mozilla/5.0 (Windows NT 10.0; Win64; x64) AppleWebKit/537.36 (KHTML, like Gecko) Chrome/93.0.4577.82 Safari/537.36",WebKit,Chrome,93.0.4577.82,Windows,10.0,fe3c1d035a65c549f7011c5446f73ede
10,1,null,null,psychophysics,138,280621,0.0-3.0-1.66,"""",key,null,16.671254237288,768,361,"""","""","""","""","""","""","""","""","2021-09-28 23:01:23",99.234.127.84,"Mozilla/5.0 (Windows NT 10.0; Win64; x64) AppleWebKit/537.36 (KHTML, like Gecko) Chrome/93.0.4577.82 Safari/537.36",WebKit,Chrome,93.0.4577.82,Windows,10.0,fe3c1d035a65c549f7011c5446f73ede
10,1,1652.7999999523163,arrowleft,psychophysics,139,282277,0.0-3.0-0.67,"""",key,arrowleft,16.66763636363656,768,361,68,3,1,25,35,25,35,false,"2021-09-28 23:01:23",99.234.127.84,"Mozilla/5.0 (Windows NT 10.0; Win64; x64) AppleWebKit/537.36 (KHTML, like Gecko) Chrome/93.0.4577.82 Safari/537.36",WebKit,Chrome,93.0.4577.82,Windows,10.0,fe3c1d035a65c549f7011c5446f73ede
10,1,null,null,psychophysics,140,283278,0.0-3.0-1.67,"""",key,null,16.665661016948743,768,361,"""","""","""","""","""","""","""","""","2021-09-28 23:01:23",99.234.127.84,"Mozilla/5.0 (Windows NT 10.0; Win64; x64) AppleWebKit/537.36 (KHTML, like Gecko) Chrome/93.0.4577.82 Safari/537.36",WebKit,Chrome,93.0.4577.82,Windows,10.0,fe3c1d035a65c549f7011c5446f73ede
10,1,2511.9000000953674,arrowright,psychophysics,141,285793,0.0-3.0-0.68,"""",key,arrowright,16.66992000000008,768,361,69,3,1,27,15,25,35,true,"2021-09-28 23:01:23",99.234.127.84,"Mozilla/5.0 (Windows NT 10.0; Win64; x64) AppleWebKit/537.36 (KHTML, like Gecko) Chrome/93.0.4577.82 Safari/537.36",WebKit,Chrome,93.0.4577.82,Windows,10.0,fe3c1d035a65c549f7011c5446f73ede
10,1,null,null,psychophysics,142,286797,0.0-3.0-1.68,"""",key,null,16.66549152542316,768,361,"""","""","""","""","""","""","""","""","2021-09-28 23:01:23",99.234.127.84,"Mozilla/5.0 (Windows NT 10.0; Win64; x64) AppleWebKit/537.36 (KHTML, like Gecko) Chrome/93.0.4577.82 Safari/537.36",WebKit,Chrome,93.0.4577.82,Windows,10.0,fe3c1d035a65c549f7011c5446f73ede
10,1,3934.7000000476837,arrowright,psychophysics,143,290734,0.0-3.0-0.69,"""",key,arrowright,16.666382978723554,768,361,70,3,-1,20,35,25,35,false,"2021-09-28 23:01:23",99.234.127.84,"Mozilla/5.0 (Windows NT 10.0; Win64; x64) AppleWebKit/537.36 (KHTML, like Gecko) Chrome/93.0.4577.82 Safari/537.36",WebKit,Chrome,93.0.4577.82,Windows,10.0,fe3c1d035a65c549f7011c5446f73ede
10,1,null,null,psychophysics,144,291736,0.0-3.0-1.69,"""",key,null,16.666559322033734,768,361,"""","""","""","""","""","""","""","""","2021-09-28 23:01:23",99.234.127.84,"Mozilla/5.0 (Windows NT 10.0; Win64; x64) AppleWebKit/537.36 (KHTML, like Gecko) Chrome/93.0.4577.82 Safari/537.36",WebKit,Chrome,93.0.4577.82,Windows,10.0,fe3c1d035a65c549f7011c5446f73ede
10,1,1424.5,arrowleft,psychophysics,145,293164,0.0-3.0-0.70,"""",key,arrowleft,16.67223529411781,768,361,71,3,1,23,15,25,35,false,"2021-09-28 23:01:23",99.234.127.84,"Mozilla/5.0 (Windows NT 10.0; Win64; x64) AppleWebKit/537.36 (KHTML, like Gecko) Chrome/93.0.4577.82 Safari/537.36",WebKit,Chrome,93.0.4577.82,Windows,10.0,fe3c1d035a65c549f7011c5446f73ede
10,1,null,null,psychophysics,146,294165,0.0-3.0-1.70,"""",key,null,16.66393220338919,768,361,"""","""","""","""","""","""","""","""","2021-09-28 23:01:23",99.234.127.84,"Mozilla/5.0 (Windows NT 10.0; Win64; x64) AppleWebKit/537.36 (KHTML, like Gecko) Chrome/93.0.4577.82 Safari/537.36",WebKit,Chrome,93.0.4577.82,Windows,10.0,fe3c1d035a65c549f7011c5446f73ede
10,1,605.8999998569489,arrowleft,psychophysics,147,294773,0.0-3.0-0.71,"""",key,arrowleft,16.67108571428606,768,361,72,3,1,23,15,25,35,false,"2021-09-28 23:01:23",99.234.127.84,"Mozilla/5.0 (Windows NT 10.0; Win64; x64) AppleWebKit/537.36 (KHTML, like Gecko) Chrome/93.0.4577.82 Safari/537.36",WebKit,Chrome,93.0.4577.82,Windows,10.0,fe3c1d035a65c549f7011c5446f73ede
10,1,null,null,psychophysics,148,295774,0.0-3.0-1.71,"""",key,null,16.676406779660947,768,361,"""","""","""","""","""","""","""","""","2021-09-28 23:01:23",99.234.127.84,"Mozilla/5.0 (Windows NT 10.0; Win64; x64) AppleWebKit/537.36 (KHTML, like Gecko) Chrome/93.0.4577.82 Safari/537.36",WebKit,Chrome,93.0.4577.82,Windows,10.0,fe3c1d035a65c549f7011c5446f73ede
10,1,820.2999999523163,arrowright,psychophysics,149,296597,0.0-3.0-0.72,"""",key,arrowright,16.667571428571637,768,361,73,3,1,30,35,25,35,true,"2021-09-28 23:01:23",99.234.127.84,"Mozilla/5.0 (Windows NT 10.0; Win64; x64) AppleWebKit/537.36 (KHTML, like Gecko) Chrome/93.0.4577.82 Safari/537.36",WebKit,Chrome,93.0.4577.82,Windows,10.0,fe3c1d035a65c549f7011c5446f73ede
10,1,null,null,psychophysics,150,297599,0.0-3.0-1.72,"""",key,null,16.66701694915241,768,361,"""","""","""","""","""","""","""","""","2021-09-28 23:01:23",99.234.127.84,"Mozilla/5.0 (Windows NT 10.0; Win64; x64) AppleWebKit/537.36 (KHTML, like Gecko) Chrome/93.0.4577.82 Safari/537.36",WebKit,Chrome,93.0.4577.82,Windows,10.0,fe3c1d035a65c549f7011c5446f73ede
10,1,2140.7999999523163,arrowright,psychophysics,151,299743,0.0-3.0-0.73,"""",key,arrowright,16.6671953125001,768,361,74,3,-1,26,15,25,35,false,"2021-09-28 23:01:23",99.234.127.84,"Mozilla/5.0 (Windows NT 10.0; Win64; x64) AppleWebKit/537.36 (KHTML, like Gecko) Chrome/93.0.4577.82 Safari/537.36",WebKit,Chrome,93.0.4577.82,Windows,10.0,fe3c1d035a65c549f7011c5446f73ede
10,1,null,null,psychophysics,152,300746,0.0-3.0-1.73,"""",key,null,16.66952542372845,768,361,"""","""","""","""","""","""","""","""","2021-09-28 23:01:23",99.234.127.84,"Mozilla/5.0 (Windows NT 10.0; Win64; x64) AppleWebKit/537.36 (KHTML, like Gecko) Chrome/93.0.4577.82 Safari/537.36",WebKit,Chrome,93.0.4577.82,Windows,10.0,fe3c1d035a65c549f7011c5446f73ede
10,1,3058.5999999046326,arrowright,psychophysics,153,303808,0.0-3.0-0.74,"""",key,arrowright,16.666131868131732,768,361,75,3,1,27,35,25,35,true,"2021-09-28 23:01:23",99.234.127.84,"Mozilla/5.0 (Windows NT 10.0; Win64; x64) AppleWebKit/537.36 (KHTML, like Gecko) Chrome/93.0.4577.82 Safari/537.36",WebKit,Chrome,93.0.4577.82,Windows,10.0,fe3c1d035a65c549f7011c5446f73ede
10,1,null,null,psychophysics,154,304812,0.0-3.0-1.74,"""",key,null,16.677766666667107,768,361,"""","""","""","""","""","""","""","""","2021-09-28 23:01:23",99.234.127.84,"Mozilla/5.0 (Windows NT 10.0; Win64; x64) AppleWebKit/537.36 (KHTML, like Gecko) Chrome/93.0.4577.82 Safari/537.36",WebKit,Chrome,93.0.4577.82,Windows,10.0,fe3c1d035a65c549f7011c5446f73ede
10,1,1558,arrowleft,psychophysics,155,306373,0.0-3.0-0.75,"""",key,arrowleft,16.668032608695363,768,361,76,3,1,23,15,25,35,false,"2021-09-28 23:01:23",99.234.127.84,"Mozilla/5.0 (Windows NT 10.0; Win64; x64) AppleWebKit/537.36 (KHTML, like Gecko) Chrome/93.0.4577.82 Safari/537.36",WebKit,Chrome,93.0.4577.82,Windows,10.0,fe3c1d035a65c549f7011c5446f73ede
10,1,null,null,psychophysics,156,307375,0.0-3.0-1.75,"""",key,null,16.66822033898384,768,361,"""","""","""","""","""","""","""","""","2021-09-28 23:01:23",99.234.127.84,"Mozilla/5.0 (Windows NT 10.0; Win64; x64) AppleWebKit/537.36 (KHTML, like Gecko) Chrome/93.0.4577.82 Safari/537.36",WebKit,Chrome,93.0.4577.82,Windows,10.0,fe3c1d035a65c549f7011c5446f73ede
10,1,862.5999999046326,arrowright,psychophysics,157,308240,0.0-3.0-0.76,"""",key,arrowright,16.659647058824525,768,361,77,3,1,27,15,25,35,true,"2021-09-28 23:01:23",99.234.127.84,"Mozilla/5.0 (Windows NT 10.0; Win64; x64) AppleWebKit/537.36 (KHTML, like Gecko) Chrome/93.0.4577.82 Safari/537.36",WebKit,Chrome,93.0.4577.82,Windows,10.0,fe3c1d035a65c549f7011c5446f73ede
10,1,null,null,psychophysics,158,309242,0.0-3.0-1.76,"""",key,null,16.67433898305023,768,361,"""","""","""","""","""","""","""","""","2021-09-28 23:01:23",99.234.127.84,"Mozilla/5.0 (Windows NT 10.0; Win64; x64) AppleWebKit/537.36 (KHTML, like Gecko) Chrome/93.0.4577.82 Safari/537.36",WebKit,Chrome,93.0.4577.82,Windows,10.0,fe3c1d035a65c549f7011c5446f73ede
10,1,1145.4000000953674,arrowleft,psychophysics,159,310392,0.0-3.0-0.77,"""",key,arrowleft,16.663217391305015,768,361,78,3,1,23,35,25,35,false,"2021-09-28 23:01:23",99.234.127.84,"Mozilla/5.0 (Windows NT 10.0; Win64; x64) AppleWebKit/537.36 (KHTML, like Gecko) Chrome/93.0.4577.82 Safari/537.36",WebKit,Chrome,93.0.4577.82,Windows,10.0,fe3c1d035a65c549f7011c5446f73ede
10,1,null,null,psychophysics,160,311394,0.0-3.0-1.77,"""",key,null,16.663966101695888,768,361,"""","""","""","""","""","""","""","""","2021-09-28 23:01:23",99.234.127.84,"Mozilla/5.0 (Windows NT 10.0; Win64; x64) AppleWebKit/537.36 (KHTML, like Gecko) Chrome/93.0.4577.82 Safari/537.36",WebKit,Chrome,93.0.4577.82,Windows,10.0,fe3c1d035a65c549f7011c5446f73ede
10,1,1660.2000000476837,arrowleft,psychophysics,161,313057,0.0-3.0-0.78,"""",key,arrowleft,16.667540816326472,768,361,79,3,-1,30,35,25,35,true,"2021-09-28 23:01:23",99.234.127.84,"Mozilla/5.0 (Windows NT 10.0; Win64; x64) AppleWebKit/537.36 (KHTML, like Gecko) Chrome/93.0.4577.82 Safari/537.36",WebKit,Chrome,93.0.4577.82,Windows,10.0,fe3c1d035a65c549f7011c5446f73ede
10,1,null,null,psychophysics,162,314058,0.0-3.0-1.78,"""",key,null,16.66859322033874,768,361,"""","""","""","""","""","""","""","""","2021-09-28 23:01:23",99.234.127.84,"Mozilla/5.0 (Windows NT 10.0; Win64; x64) AppleWebKit/537.36 (KHTML, like Gecko) Chrome/93.0.4577.82 Safari/537.36",WebKit,Chrome,93.0.4577.82,Windows,10.0,fe3c1d035a65c549f7011c5446f73ede
10,1,698.1000001430511,arrowright,psychophysics,163,314760,0.0-3.0-0.79,"""",key,arrowright,16.667333333333122,768,361,80,3,1,30,35,25,35,true,"2021-09-28 23:01:23",99.234.127.84,"Mozilla/5.0 (Windows NT 10.0; Win64; x64) AppleWebKit/537.36 (KHTML, like Gecko) Chrome/93.0.4577.82 Safari/537.36",WebKit,Chrome,93.0.4577.82,Windows,10.0,fe3c1d035a65c549f7011c5446f73ede
10,1,null,null,psychophysics,164,315764,0.0-3.0-1.79,"""",key,null,16.675322033898013,768,361,"""","""","""","""","""","""","""","""","2021-09-28 23:01:23",99.234.127.84,"Mozilla/5.0 (Windows NT 10.0; Win64; x64) AppleWebKit/537.36 (KHTML, like Gecko) Chrome/93.0.4577.82 Safari/537.36",WebKit,Chrome,93.0.4577.82,Windows,10.0,fe3c1d035a65c549f7011c5446f73ede
10,1,4059.9000000953674,arrowright,psychophysics,165,319826,0.0-3.0-0.80,"""",key,arrowright,16.667390946501964,768,361,81,3,-1,23,15,25,35,false,"2021-09-28 23:01:23",99.234.127.84,"Mozilla/5.0 (Windows NT 10.0; Win64; x64) AppleWebKit/537.36 (KHTML, like Gecko) Chrome/93.0.4577.82 Safari/537.36",WebKit,Chrome,93.0.4577.82,Windows,10.0,fe3c1d035a65c549f7011c5446f73ede
10,1,null,null,psychophysics,166,320827,0.0-3.0-1.80,"""",key,null,16.67279661016961,768,361,"""","""","""","""","""","""","""","""","2021-09-28 23:01:23",99.234.127.84,"Mozilla/5.0 (Windows NT 10.0; Win64; x64) AppleWebKit/537.36 (KHTML, like Gecko) Chrome/93.0.4577.82 Safari/537.36",WebKit,Chrome,93.0.4577.82,Windows,10.0,fe3c1d035a65c549f7011c5446f73ede
10,1,1278.6999998092651,arrowleft,psychophysics,167,322111,0.0-3.0-0.81,"""",key,arrowleft,16.664210526315543,768,361,82,3,1,20,15,25,35,false,"2021-09-28 23:01:23",99.234.127.84,"Mozilla/5.0 (Windows NT 10.0; Win64; x64) AppleWebKit/537.36 (KHTML, like Gecko) Chrome/93.0.4577.82 Safari/537.36",WebKit,Chrome,93.0.4577.82,Windows,10.0,fe3c1d035a65c549f7011c5446f73ede
10,1,null,null,psychophysics,168,323114,0.0-3.0-1.81,"""",key,null,16.666796610168756,768,361,"""","""","""","""","""","""","""","""","2021-09-28 23:01:23",99.234.127.84,"Mozilla/5.0 (Windows NT 10.0; Win64; x64) AppleWebKit/537.36 (KHTML, like Gecko) Chrome/93.0.4577.82 Safari/537.36",WebKit,Chrome,93.0.4577.82,Windows,10.0,fe3c1d035a65c549f7011c5446f73ede
10,1,1803.1000001430511,arrowleft,psychophysics,169,324920,0.0-3.0-0.82,"""",key,arrowleft,16.67189719626151,768,361,83,3,-1,30,15,25,35,true,"2021-09-28 23:01:23",99.234.127.84,"Mozilla/5.0 (Windows NT 10.0; Win64; x64) AppleWebKit/537.36 (KHTML, like Gecko) Chrome/93.0.4577.82 Safari/537.36",WebKit,Chrome,93.0.4577.82,Windows,10.0,fe3c1d035a65c549f7011c5446f73ede
10,1,null,null,psychophysics,170,325921,0.0-3.0-1.82,"""",key,null,16.671627118643887,768,361,"""","""","""","""","""","""","""","""","2021-09-28 23:01:23",99.234.127.84,"Mozilla/5.0 (Windows NT 10.0; Win64; x64) AppleWebKit/537.36 (KHTML, like Gecko) Chrome/93.0.4577.82 Safari/537.36",WebKit,Chrome,93.0.4577.82,Windows,10.0,fe3c1d035a65c549f7011c5446f73ede
10,1,2235.5,arrowleft,psychophysics,171,328159,0.0-3.0-0.83,"""",key,arrowleft,16.665887218044855,768,361,84,4,-1,26,15,25,35,true,"2021-09-28 23:01:23",99.234.127.84,"Mozilla/5.0 (Windows NT 10.0; Win64; x64) AppleWebKit/537.36 (KHTML, like Gecko) Chrome/93.0.4577.82 Safari/537.36",WebKit,Chrome,93.0.4577.82,Windows,10.0,fe3c1d035a65c549f7011c5446f73ede
10,1,null,null,psychophysics,172,329162,0.0-3.0-1.83,"""",key,null,16.66748333333332,768,361,"""","""","""","""","""","""","""","""","2021-09-28 23:01:23",99.234.127.84,"Mozilla/5.0 (Windows NT 10.0; Win64; x64) AppleWebKit/537.36 (KHTML, like Gecko) Chrome/93.0.4577.82 Safari/537.36",WebKit,Chrome,93.0.4577.82,Windows,10.0,fe3c1d035a65c549f7011c5446f73ede
10,1,2163.9000000953674,arrowright,html-keyboard-response,173,331327,0.0-3.0-2.83-0.83,"<div style=""color: white; text-align: center; vertical-align: top; display: inline-block; width: 800px; margin: auto""><p>You have completed 30% of the trials. You are on block 4 of 10. <br>Good job! Take a break if you need to.</p><p>Press any key to continue the experiment.</p></div>","""","""","""","""","""","""","""","""","""","""","""","""","""","2021-09-28 23:01:23",99.234.127.84,"Mozilla/5.0 (Windows NT 10.0; Win64; x64) AppleWebKit/537.36 (KHTML, like Gecko) Chrome/93.0.4577.82 Safari/537.36",WebKit,Chrome,93.0.4577.82,Windows,10.0,fe3c1d035a65c549f7011c5446f73ede
10,1,2358,arrowright,psychophysics,174,334688,0.0-3.0-0.84,"""",key,arrowright,16.66470212765956,768,361,85,4,-1,23,15,25,35,false,"2021-09-28 23:01:23",99.234.127.84,"Mozilla/5.0 (Windows NT 10.0; Win64; x64) AppleWebKit/537.36 (KHTML, like Gecko) Chrome/93.0.4577.82 Safari/537.36",WebKit,Chrome,93.0.4577.82,Windows,10.0,fe3c1d035a65c549f7011c5446f73ede
10,1,null,null,psychophysics,175,335689,0.0-3.0-1.84,"""",key,null,16.66852542372831,768,361,"""","""","""","""","""","""","""","""","2021-09-28 23:01:23",99.234.127.84,"Mozilla/5.0 (Windows NT 10.0; Win64; x64) AppleWebKit/537.36 (KHTML, like Gecko) Chrome/93.0.4577.82 Safari/537.36",WebKit,Chrome,93.0.4577.82,Windows,10.0,fe3c1d035a65c549f7011c5446f73ede
10,1,1255.2000000476837,arrowright,psychophysics,176,336950,0.0-3.0-0.85,"""",key,arrowright,16.671039999999728,768,361,86,4,-1,23,15,25,35,false,"2021-09-28 23:01:23",99.234.127.84,"Mozilla/5.0 (Windows NT 10.0; Win64; x64) AppleWebKit/537.36 (KHTML, like Gecko) Chrome/93.0.4577.82 Safari/537.36",WebKit,Chrome,93.0.4577.82,Windows,10.0,fe3c1d035a65c549f7011c5446f73ede
10,1,null,null,psychophysics,177,337951,0.0-3.0-1.85,"""",key,null,16.662525423728443,768,361,"""","""","""","""","""","""","""","""","2021-09-28 23:01:23",99.234.127.84,"Mozilla/5.0 (Windows NT 10.0; Win64; x64) AppleWebKit/537.36 (KHTML, like Gecko) Chrome/93.0.4577.82 Safari/537.36",WebKit,Chrome,93.0.4577.82,Windows,10.0,fe3c1d035a65c549f7011c5446f73ede
10,1,1118.5,arrowleft,psychophysics,178,339071,0.0-3.0-0.86,"""",key,arrowleft,16.667742424242366,768,361,87,4,-1,27,15,25,35,true,"2021-09-28 23:01:23",99.234.127.84,"Mozilla/5.0 (Windows NT 10.0; Win64; x64) AppleWebKit/537.36 (KHTML, like Gecko) Chrome/93.0.4577.82 Safari/537.36",WebKit,Chrome,93.0.4577.82,Windows,10.0,fe3c1d035a65c549f7011c5446f73ede
10,1,null,null,psychophysics,179,340072,0.0-3.0-1.86,"""",key,null,16.663050847457548,768,361,"""","""","""","""","""","""","""","""","2021-09-28 23:01:23",99.234.127.84,"Mozilla/5.0 (Windows NT 10.0; Win64; x64) AppleWebKit/537.36 (KHTML, like Gecko) Chrome/93.0.4577.82 Safari/537.36",WebKit,Chrome,93.0.4577.82,Windows,10.0,fe3c1d035a65c549f7011c5446f73ede
10,1,2214.5999999046326,arrowleft,psychophysics,180,342289,0.0-3.0-0.87,"""",key,arrowleft,16.667310606060767,768,361,88,4,-1,26,35,25,35,true,"2021-09-28 23:01:23",99.234.127.84,"Mozilla/5.0 (Windows NT 10.0; Win64; x64) AppleWebKit/537.36 (KHTML, like Gecko) Chrome/93.0.4577.82 Safari/537.36",WebKit,Chrome,93.0.4577.82,Windows,10.0,fe3c1d035a65c549f7011c5446f73ede
10,1,null,null,psychophysics,181,343293,0.0-3.0-1.87,"""",key,null,16.673220338983565,768,361,"""","""","""","""","""","""","""","""","2021-09-28 23:01:23",99.234.127.84,"Mozilla/5.0 (Windows NT 10.0; Win64; x64) AppleWebKit/537.36 (KHTML, like Gecko) Chrome/93.0.4577.82 Safari/537.36",WebKit,Chrome,93.0.4577.82,Windows,10.0,fe3c1d035a65c549f7011c5446f73ede
10,1,861.2000000476837,arrowright,psychophysics,182,344157,0.0-3.0-0.88,"""",key,arrowright,16.669000000000118,768,361,89,4,1,30,15,25,35,true,"2021-09-28 23:01:23",99.234.127.84,"Mozilla/5.0 (Windows NT 10.0; Win64; x64) AppleWebKit/537.36 (KHTML, like Gecko) Chrome/93.0.4577.82 Safari/537.36",WebKit,Chrome,93.0.4577.82,Windows,10.0,fe3c1d035a65c549f7011c5446f73ede
10,1,null,null,psychophysics,183,345159,0.0-3.0-1.88,"""",key,null,16.66718644067799,768,361,"""","""","""","""","""","""","""","""","2021-09-28 23:01:23",99.234.127.84,"Mozilla/5.0 (Windows NT 10.0; Win64; x64) AppleWebKit/537.36 (KHTML, like Gecko) Chrome/93.0.4577.82 Safari/537.36",WebKit,Chrome,93.0.4577.82,Windows,10.0,fe3c1d035a65c549f7011c5446f73ede
10,1,2986.0999999046326,arrowright,psychophysics,184,348148,0.0-3.0-0.89,"""",key,arrowright,16.668586592178585,768,361,90,4,1,30,35,25,35,true,"2021-09-28 23:01:23",99.234.127.84,"Mozilla/5.0 (Windows NT 10.0; Win64; x64) AppleWebKit/537.36 (KHTML, like Gecko) Chrome/93.0.4577.82 Safari/537.36",WebKit,Chrome,93.0.4577.82,Windows,10.0,fe3c1d035a65c549f7011c5446f73ede
10,1,null,null,psychophysics,185,349151,0.0-3.0-1.89,"""",key,null,16.67481355932127,768,361,"""","""","""","""","""","""","""","""","2021-09-28 23:01:23",99.234.127.84,"Mozilla/5.0 (Windows NT 10.0; Win64; x64) AppleWebKit/537.36 (KHTML, like Gecko) Chrome/93.0.4577.82 Safari/537.36",WebKit,Chrome,93.0.4577.82,Windows,10.0,fe3c1d035a65c549f7011c5446f73ede
10,1,1046.2999999523163,arrowleft,psychophysics,186,350199,0.0-3.0-0.90,"""",key,arrowleft,16.663096774192976,768,361,91,4,-1,24,35,25,35,true,"2021-09-28 23:01:23",99.234.127.84,"Mozilla/5.0 (Windows NT 10.0; Win64; x64) AppleWebKit/537.36 (KHTML, like Gecko) Chrome/93.0.4577.82 Safari/537.36",WebKit,Chrome,93.0.4577.82,Windows,10.0,fe3c1d035a65c549f7011c5446f73ede
10,1,null,null,psychophysics,187,351201,0.0-3.0-1.90,"""",key,null,16.659525423729004,768,361,"""","""","""","""","""","""","""","""","2021-09-28 23:01:23",99.234.127.84,"Mozilla/5.0 (Windows NT 10.0; Win64; x64) AppleWebKit/537.36 (KHTML, like Gecko) Chrome/93.0.4577.82 Safari/537.36",WebKit,Chrome,93.0.4577.82,Windows,10.0,fe3c1d035a65c549f7011c5446f73ede
10,1,1520.7999999523163,arrowleft,psychophysics,188,352725,0.0-3.0-0.91,"""",key,arrowleft,16.66756666666673,768,361,92,4,1,23,35,25,35,false,"2021-09-28 23:01:23",99.234.127.84,"Mozilla/5.0 (Windows NT 10.0; Win64; x64) AppleWebKit/537.36 (KHTML, like Gecko) Chrome/93.0.4577.82 Safari/537.36",WebKit,Chrome,93.0.4577.82,Windows,10.0,fe3c1d035a65c549f7011c5446f73ede
10,1,null,null,psychophysics,189,353727,0.0-3.0-1.91,"""",key,null,16.66788135593169,768,361,"""","""","""","""","""","""","""","""","2021-09-28 23:01:23",99.234.127.84,"Mozilla/5.0 (Windows NT 10.0; Win64; x64) AppleWebKit/537.36 (KHTML, like Gecko) Chrome/93.0.4577.82 Safari/537.36",WebKit,Chrome,93.0.4577.82,Windows,10.0,fe3c1d035a65c549f7011c5446f73ede
10,1,920.4000000953674,arrowright,psychophysics,190,354652,0.0-3.0-0.92,"""",key,arrowright,16.668727272726723,768,361,93,4,-1,20,15,25,35,false,"2021-09-28 23:01:23",99.234.127.84,"Mozilla/5.0 (Windows NT 10.0; Win64; x64) AppleWebKit/537.36 (KHTML, like Gecko) Chrome/93.0.4577.82 Safari/537.36",WebKit,Chrome,93.0.4577.82,Windows,10.0,fe3c1d035a65c549f7011c5446f73ede
10,1,null,null,psychophysics,191,355654,0.0-3.0-1.92,"""",key,null,16.66738983050829,768,361,"""","""","""","""","""","""","""","""","2021-09-28 23:01:23",99.234.127.84,"Mozilla/5.0 (Windows NT 10.0; Win64; x64) AppleWebKit/537.36 (KHTML, like Gecko) Chrome/93.0.4577.82 Safari/537.36",WebKit,Chrome,93.0.4577.82,Windows,10.0,fe3c1d035a65c549f7011c5446f73ede
10,1,5785.099999904633,arrowright,psychophysics,192,361442,0.0-3.0-0.93,"""",key,arrowright,16.66828612716767,768,361,94,4,-1,23,35,25,35,false,"2021-09-28 23:01:23",99.234.127.84,"Mozilla/5.0 (Windows NT 10.0; Win64; x64) AppleWebKit/537.36 (KHTML, like Gecko) Chrome/93.0.4577.82 Safari/537.36",WebKit,Chrome,93.0.4577.82,Windows,10.0,fe3c1d035a65c549f7011c5446f73ede
10,1,null,null,psychophysics,193,362445,0.0-3.0-1.93,"""",key,null,16.6724166666662,768,361,"""","""","""","""","""","""","""","""","2021-09-28 23:01:23",99.234.127.84,"Mozilla/5.0 (Windows NT 10.0; Win64; x64) AppleWebKit/537.36 (KHTML, like Gecko) Chrome/93.0.4577.82 Safari/537.36",WebKit,Chrome,93.0.4577.82,Windows,10.0,fe3c1d035a65c549f7011c5446f73ede
10,1,1294.2000000476837,arrowleft,psychophysics,194,363742,0.0-3.0-0.94,"""",key,arrowleft,16.66331578947383,768,361,95,4,1,24,15,25,35,false,"2021-09-28 23:01:23",99.234.127.84,"Mozilla/5.0 (Windows NT 10.0; Win64; x64) AppleWebKit/537.36 (KHTML, like Gecko) Chrome/93.0.4577.82 Safari/537.36",WebKit,Chrome,93.0.4577.82,Windows,10.0,fe3c1d035a65c549f7011c5446f73ede
10,1,null,null,psychophysics,195,364744,0.0-3.0-1.94,"""",key,null,16.66789830508405,768,361,"""","""","""","""","""","""","""","""","2021-09-28 23:01:23",99.234.127.84,"Mozilla/5.0 (Windows NT 10.0; Win64; x64) AppleWebKit/537.36 (KHTML, like Gecko) Chrome/93.0.4577.82 Safari/537.36",WebKit,Chrome,93.0.4577.82,Windows,10.0,fe3c1d035a65c549f7011c5446f73ede
10,1,783.2000000476837,arrowright,psychophysics,196,365530,0.0-3.0-0.95,"""",key,arrowright,16.668404255318702,768,361,96,4,-1,20,15,25,35,false,"2021-09-28 23:01:23",99.234.127.84,"Mozilla/5.0 (Windows NT 10.0; Win64; x64) AppleWebKit/537.36 (KHTML, like Gecko) Chrome/93.0.4577.82 Safari/537.36",WebKit,Chrome,93.0.4577.82,Windows,10.0,fe3c1d035a65c549f7011c5446f73ede
10,1,null,null,psychophysics,197,366531,0.0-3.0-1.95,"""",key,null,16.665288135593844,768,361,"""","""","""","""","""","""","""","""","2021-09-28 23:01:23",99.234.127.84,"Mozilla/5.0 (Windows NT 10.0; Win64; x64) AppleWebKit/537.36 (KHTML, like Gecko) Chrome/93.0.4577.82 Safari/537.36",WebKit,Chrome,93.0.4577.82,Windows,10.0,fe3c1d035a65c549f7011c5446f73ede
10,1,1059.0999999046326,arrowright,psychophysics,198,367593,0.0-3.0-0.96,"""",key,arrowright,16.6735322580639,768,361,97,4,-1,26,35,25,35,false,"2021-09-28 23:01:23",99.234.127.84,"Mozilla/5.0 (Windows NT 10.0; Win64; x64) AppleWebKit/537.36 (KHTML, like Gecko) Chrome/93.0.4577.82 Safari/537.36",WebKit,Chrome,93.0.4577.82,Windows,10.0,fe3c1d035a65c549f7011c5446f73ede
10,1,null,null,psychophysics,199,368601,0.0-3.0-1.96,"""",key,null,16.668800000000434,768,361,"""","""","""","""","""","""","""","""","2021-09-28 23:01:23",99.234.127.84,"Mozilla/5.0 (Windows NT 10.0; Win64; x64) AppleWebKit/537.36 (KHTML, like Gecko) Chrome/93.0.4577.82 Safari/537.36",WebKit,Chrome,93.0.4577.82,Windows,10.0,fe3c1d035a65c549f7011c5446f73ede
10,1,1206.2999999523163,arrowleft,psychophysics,200,369810,0.0-3.0-0.97,"""",key,arrowleft,16.670746478873543,768,361,98,4,1,23,35,25,35,false,"2021-09-28 23:01:23",99.234.127.84,"Mozilla/5.0 (Windows NT 10.0; Win64; x64) AppleWebKit/537.36 (KHTML, like Gecko) Chrome/93.0.4577.82 Safari/537.36",WebKit,Chrome,93.0.4577.82,Windows,10.0,fe3c1d035a65c549f7011c5446f73ede
10,1,null,null,psychophysics,201,370811,0.0-3.0-1.97,"""",key,null,16.67279661016961,768,361,"""","""","""","""","""","""","""","""","2021-09-28 23:01:23",99.234.127.84,"Mozilla/5.0 (Windows NT 10.0; Win64; x64) AppleWebKit/537.36 (KHTML, like Gecko) Chrome/93.0.4577.82 Safari/537.36",WebKit,Chrome,93.0.4577.82,Windows,10.0,fe3c1d035a65c549f7011c5446f73ede
10,1,863.4000000953674,arrowleft,psychophysics,202,371678,0.0-3.0-0.98,"""",key,arrowleft,16.666058823529074,768,361,99,4,-1,27,15,25,35,true,"2021-09-28 23:01:23",99.234.127.84,"Mozilla/5.0 (Windows NT 10.0; Win64; x64) AppleWebKit/537.36 (KHTML, like Gecko) Chrome/93.0.4577.82 Safari/537.36",WebKit,Chrome,93.0.4577.82,Windows,10.0,fe3c1d035a65c549f7011c5446f73ede
10,1,null,null,psychophysics,203,372679,0.0-3.0-1.98,"""",key,null,16.673666666667366,768,361,"""","""","""","""","""","""","""","""","2021-09-28 23:01:23",99.234.127.84,"Mozilla/5.0 (Windows NT 10.0; Win64; x64) AppleWebKit/537.36 (KHTML, like Gecko) Chrome/93.0.4577.82 Safari/537.36",WebKit,Chrome,93.0.4577.82,Windows,10.0,fe3c1d035a65c549f7011c5446f73ede
10,1,797.5999999046326,arrowleft,psychophysics,204,373480,0.0-3.0-0.99,"""",key,arrowleft,16.659340425531944,768,361,100,4,-1,26,15,25,35,true,"2021-09-28 23:01:23",99.234.127.84,"Mozilla/5.0 (Windows NT 10.0; Win64; x64) AppleWebKit/537.36 (KHTML, like Gecko) Chrome/93.0.4577.82 Safari/537.36",WebKit,Chrome,93.0.4577.82,Windows,10.0,fe3c1d035a65c549f7011c5446f73ede
10,1,null,null,psychophysics,205,374485,0.0-3.0-1.99,"""",key,null,16.676474576271374,768,361,"""","""","""","""","""","""","""","""","2021-09-28 23:01:23",99.234.127.84,"Mozilla/5.0 (Windows NT 10.0; Win64; x64) AppleWebKit/537.36 (KHTML, like Gecko) Chrome/93.0.4577.82 Safari/537.36",WebKit,Chrome,93.0.4577.82,Windows,10.0,fe3c1d035a65c549f7011c5446f73ede
10,1,1872.2999999523163,arrowleft,psychophysics,206,376360,0.0-3.0-0.100,"""",key,arrowleft,16.664738738738937,768,361,101,4,-1,26,35,25,35,true,"2021-09-28 23:01:23",99.234.127.84,"Mozilla/5.0 (Windows NT 10.0; Win64; x64) AppleWebKit/537.36 (KHTML, like Gecko) Chrome/93.0.4577.82 Safari/537.36",WebKit,Chrome,93.0.4577.82,Windows,10.0,fe3c1d035a65c549f7011c5446f73ede
10,1,null,null,psychophysics,207,377362,0.0-3.0-1.100,"""",key,null,16.666898305084896,768,361,"""","""","""","""","""","""","""","""","2021-09-28 23:01:23",99.234.127.84,"Mozilla/5.0 (Windows NT 10.0; Win64; x64) AppleWebKit/537.36 (KHTML, like Gecko) Chrome/93.0.4577.82 Safari/537.36",WebKit,Chrome,93.0.4577.82,Windows,10.0,fe3c1d035a65c549f7011c5446f73ede
10,1,1066.4000000953674,arrowleft,psychophysics,208,378431,0.0-3.0-0.101,"""",key,arrowleft,16.67346875000021,768,361,102,4,-1,25,15,25,35,true,"2021-09-28 23:01:23",99.234.127.84,"Mozilla/5.0 (Windows NT 10.0; Win64; x64) AppleWebKit/537.36 (KHTML, like Gecko) Chrome/93.0.4577.82 Safari/537.36",WebKit,Chrome,93.0.4577.82,Windows,10.0,fe3c1d035a65c549f7011c5446f73ede
10,1,null,null,psychophysics,209,379433,0.0-3.0-1.101,"""",key,null,16.66810169491534,768,361,"""","""","""","""","""","""","""","""","2021-09-28 23:01:23",99.234.127.84,"Mozilla/5.0 (Windows NT 10.0; Win64; x64) AppleWebKit/537.36 (KHTML, like Gecko) Chrome/93.0.4577.82 Safari/537.36",WebKit,Chrome,93.0.4577.82,Windows,10.0,fe3c1d035a65c549f7011c5446f73ede
10,1,773.2000000476837,arrowright,psychophysics,210,380210,0.0-3.0-0.102,"""",key,arrowright,16.664444444443667,768,361,103,4,1,30,15,25,35,true,"2021-09-28 23:01:23",99.234.127.84,"Mozilla/5.0 (Windows NT 10.0; Win64; x64) AppleWebKit/537.36 (KHTML, like Gecko) Chrome/93.0.4577.82 Safari/537.36",WebKit,Chrome,93.0.4577.82,Windows,10.0,fe3c1d035a65c549f7011c5446f73ede
10,1,null,null,psychophysics,211,381213,0.0-3.0-1.102,"""",key,null,16.66535000000052,768,361,"""","""","""","""","""","""","""","""","2021-09-28 23:01:23",99.234.127.84,"Mozilla/5.0 (Windows NT 10.0; Win64; x64) AppleWebKit/537.36 (KHTML, like Gecko) Chrome/93.0.4577.82 Safari/537.36",WebKit,Chrome,93.0.4577.82,Windows,10.0,fe3c1d035a65c549f7011c5446f73ede
10,1,1052.5,arrowleft,psychophysics,212,382268,0.0-3.0-0.103,"""",key,arrowleft,16.66462903225798,768,361,104,4,-1,30,35,25,35,true,"2021-09-28 23:01:23",99.234.127.84,"Mozilla/5.0 (Windows NT 10.0; Win64; x64) AppleWebKit/537.36 (KHTML, like Gecko) Chrome/93.0.4577.82 Safari/537.36",WebKit,Chrome,93.0.4577.82,Windows,10.0,fe3c1d035a65c549f7011c5446f73ede
10,1,null,null,psychophysics,213,383269,0.0-3.0-1.103,"""",key,null,16.66662711864416,768,361,"""","""","""","""","""","""","""","""","2021-09-28 23:01:23",99.234.127.84,"Mozilla/5.0 (Windows NT 10.0; Win64; x64) AppleWebKit/537.36 (KHTML, like Gecko) Chrome/93.0.4577.82 Safari/537.36",WebKit,Chrome,93.0.4577.82,Windows,10.0,fe3c1d035a65c549f7011c5446f73ede
10,1,1122.5999999046326,arrowleft,psychophysics,214,384393,0.0-3.0-0.104,"""",key,arrowleft,16.67409090909077,768,361,105,4,-1,26,35,25,35,true,"2021-09-28 23:01:23",99.234.127.84,"Mozilla/5.0 (Windows NT 10.0; Win64; x64) AppleWebKit/537.36 (KHTML, like Gecko) Chrome/93.0.4577.82 Safari/537.36",WebKit,Chrome,93.0.4577.82,Windows,10.0,fe3c1d035a65c549f7011c5446f73ede
10,1,null,null,psychophysics,215,385396,0.0-3.0-1.104,"""",key,null,16.66716949152563,768,361,"""","""","""","""","""","""","""","""","2021-09-28 23:01:23",99.234.127.84,"Mozilla/5.0 (Windows NT 10.0; Win64; x64) AppleWebKit/537.36 (KHTML, like Gecko) Chrome/93.0.4577.82 Safari/537.36",WebKit,Chrome,93.0.4577.82,Windows,10.0,fe3c1d035a65c549f7011c5446f73ede
10,1,561.1999998092651,arrowright,psychophysics,216,385972,0.0-3.0-0.105,"""",key,arrowright,16.665823529412805,768,361,106,4,-1,26,35,25,35,false,"2021-09-28 23:01:23",99.234.127.84,"Mozilla/5.0 (Windows NT 10.0; Win64; x64) AppleWebKit/537.36 (KHTML, like Gecko) Chrome/93.0.4577.82 Safari/537.36",WebKit,Chrome,93.0.4577.82,Windows,10.0,fe3c1d035a65c549f7011c5446f73ede
10,1,null,null,psychophysics,217,386973,0.0-3.0-1.105,"""",key,null,16.66737288135593,768,361,"""","""","""","""","""","""","""","""","2021-09-28 23:01:23",99.234.127.84,"Mozilla/5.0 (Windows NT 10.0; Win64; x64) AppleWebKit/537.36 (KHTML, like Gecko) Chrome/93.0.4577.82 Safari/537.36",WebKit,Chrome,93.0.4577.82,Windows,10.0,fe3c1d035a65c549f7011c5446f73ede
10,1,372.2000000476837,arrowleft,psychophysics,218,387349,0.0-3.0-0.106,"""",key,arrowleft,16.686000000000192,768,361,107,4,1,25,15,25,35,false,"2021-09-28 23:01:23",99.234.127.84,"Mozilla/5.0 (Windows NT 10.0; Win64; x64) AppleWebKit/537.36 (KHTML, like Gecko) Chrome/93.0.4577.82 Safari/537.36",WebKit,Chrome,93.0.4577.82,Windows,10.0,fe3c1d035a65c549f7011c5446f73ede
10,1,null,null,psychophysics,219,388357,0.0-3.0-1.106,"""",key,null,16.9570689655174,768,361,"""","""","""","""","""","""","""","""","2021-09-28 23:01:23",99.234.127.84,"Mozilla/5.0 (Windows NT 10.0; Win64; x64) AppleWebKit/537.36 (KHTML, like Gecko) Chrome/93.0.4577.82 Safari/537.36",WebKit,Chrome,93.0.4577.82,Windows,10.0,fe3c1d035a65c549f7011c5446f73ede
10,1,1273.5,arrowleft,psychophysics,220,389633,0.0-3.0-0.107,"""",key,arrowleft,16.667171052631794,768,361,108,4,-1,25,35,25,35,true,"2021-09-28 23:01:23",99.234.127.84,"Mozilla/5.0 (Windows NT 10.0; Win64; x64) AppleWebKit/537.36 (KHTML, like Gecko) Chrome/93.0.4577.82 Safari/537.36",WebKit,Chrome,93.0.4577.82,Windows,10.0,fe3c1d035a65c549f7011c5446f73ede
10,1,null,null,psychophysics,221,390634,0.0-3.0-1.107,"""",key,null,16.672932203389482,768,361,"""","""","""","""","""","""","""","""","2021-09-28 23:01:23",99.234.127.84,"Mozilla/5.0 (Windows NT 10.0; Win64; x64) AppleWebKit/537.36 (KHTML, like Gecko) Chrome/93.0.4577.82 Safari/537.36",WebKit,Chrome,93.0.4577.82,Windows,10.0,fe3c1d035a65c549f7011c5446f73ede
10,1,1208.7000000476837,arrowleft,psychophysics,222,391845,0.0-3.0-0.108,"""",key,arrowleft,16.666450704225753,768,361,109,4,1,20,35,25,35,false,"2021-09-28 23:01:23",99.234.127.84,"Mozilla/5.0 (Windows NT 10.0; Win64; x64) AppleWebKit/537.36 (KHTML, like Gecko) Chrome/93.0.4577.82 Safari/537.36",WebKit,Chrome,93.0.4577.82,Windows,10.0,fe3c1d035a65c549f7011c5446f73ede
10,1,null,null,psychophysics,223,392851,0.0-3.0-1.108,"""",key,null,16.673283333333288,768,361,"""","""","""","""","""","""","""","""","2021-09-28 23:01:23",99.234.127.84,"Mozilla/5.0 (Windows NT 10.0; Win64; x64) AppleWebKit/537.36 (KHTML, like Gecko) Chrome/93.0.4577.82 Safari/537.36",WebKit,Chrome,93.0.4577.82,Windows,10.0,fe3c1d035a65c549f7011c5446f73ede
10,1,1099.5999999046326,arrowleft,psychophysics,224,393953,0.0-3.0-0.109,"""",key,arrowleft,16.66243076923106,768,361,110,4,-1,27,35,25,35,true,"2021-09-28 23:01:23",99.234.127.84,"Mozilla/5.0 (Windows NT 10.0; Win64; x64) AppleWebKit/537.36 (KHTML, like Gecko) Chrome/93.0.4577.82 Safari/537.36",WebKit,Chrome,93.0.4577.82,Windows,10.0,fe3c1d035a65c549f7011c5446f73ede
10,1,null,null,psychophysics,225,394955,0.0-3.0-1.109,"""",key,null,16.954017241379038,768,361,"""","""","""","""","""","""","""","""","2021-09-28 23:01:23",99.234.127.84,"Mozilla/5.0 (Windows NT 10.0; Win64; x64) AppleWebKit/537.36 (KHTML, like Gecko) Chrome/93.0.4577.82 Safari/537.36",WebKit,Chrome,93.0.4577.82,Windows,10.0,fe3c1d035a65c549f7011c5446f73ede
10,1,3133.699999809265,arrowleft,psychophysics,226,398091,0.0-3.0-0.110,"""",key,arrowleft,16.668588235293875,768,361,111,4,-1,25,15,25,35,true,"2021-09-28 23:01:23",99.234.127.84,"Mozilla/5.0 (Windows NT 10.0; Win64; x64) AppleWebKit/537.36 (KHTML, like Gecko) Chrome/93.0.4577.82 Safari/537.36",WebKit,Chrome,93.0.4577.82,Windows,10.0,fe3c1d035a65c549f7011c5446f73ede
10,1,null,null,psychophysics,227,399095,0.0-3.0-1.110,"""",key,null,16.668864406779473,768,361,"""","""","""","""","""","""","""","""","2021-09-28 23:01:23",99.234.127.84,"Mozilla/5.0 (Windows NT 10.0; Win64; x64) AppleWebKit/537.36 (KHTML, like Gecko) Chrome/93.0.4577.82 Safari/537.36",WebKit,Chrome,93.0.4577.82,Windows,10.0,fe3c1d035a65c549f7011c5446f73ede
10,1,1520.5,arrowright,psychophysics,228,400621,0.0-3.0-0.111,"""",key,arrowright,16.674329670329687,768,361,112,5,-1,24,35,25,35,false,"2021-09-28 23:01:23",99.234.127.84,"Mozilla/5.0 (Windows NT 10.0; Win64; x64) AppleWebKit/537.36 (KHTML, like Gecko) Chrome/93.0.4577.82 Safari/537.36",WebKit,Chrome,93.0.4577.82,Windows,10.0,fe3c1d035a65c549f7011c5446f73ede
10,1,null,null,psychophysics,229,401622,0.0-3.0-1.111,"""",key,null,16.66500000000075,768,361,"""","""","""","""","""","""","""","""","2021-09-28 23:01:23",99.234.127.84,"Mozilla/5.0 (Windows NT 10.0; Win64; x64) AppleWebKit/537.36 (KHTML, like Gecko) Chrome/93.0.4577.82 Safari/537.36",WebKit,Chrome,93.0.4577.82,Windows,10.0,fe3c1d035a65c549f7011c5446f73ede
10,1,765.7999999523163,arrowleft,html-keyboard-response,230,402389,0.0-3.0-2.111-0.111,"<div style=""color: white; text-align: center; vertical-align: top; display: inline-block; width: 800px; margin: auto""><p>You have completed 40% of the trials. You are on block 5 of 10. <br>Good job! Take a break if you need to.</p><p>Press any key to continue the experiment.</p></div>","""","""","""","""","""","""","""","""","""","""","""","""","""","2021-09-28 23:01:23",99.234.127.84,"Mozilla/5.0 (Windows NT 10.0; Win64; x64) AppleWebKit/537.36 (KHTML, like Gecko) Chrome/93.0.4577.82 Safari/537.36",WebKit,Chrome,93.0.4577.82,Windows,10.0,fe3c1d035a65c549f7011c5446f73ede
10,1,3250.2999999523163,arrowleft,psychophysics,231,406644,0.0-3.0-0.112,"""",key,arrowleft,16.669292307692245,768,361,113,5,-1,26,15,25,35,true,"2021-09-28 23:01:23",99.234.127.84,"Mozilla/5.0 (Windows NT 10.0; Win64; x64) AppleWebKit/537.36 (KHTML, like Gecko) Chrome/93.0.4577.82 Safari/537.36",WebKit,Chrome,93.0.4577.82,Windows,10.0,fe3c1d035a65c549f7011c5446f73ede
10,1,null,null,psychophysics,232,407647,0.0-3.0-1.112,"""",key,null,16.674728813559465,768,361,"""","""","""","""","""","""","""","""","2021-09-28 23:01:23",99.234.127.84,"Mozilla/5.0 (Windows NT 10.0; Win64; x64) AppleWebKit/537.36 (KHTML, like Gecko) Chrome/93.0.4577.82 Safari/537.36",WebKit,Chrome,93.0.4577.82,Windows,10.0,fe3c1d035a65c549f7011c5446f73ede
10,1,5661.900000095367,arrowright,psychophysics,233,413313,0.0-3.0-0.113,"""",key,arrowright,16.667619469026473,768,361,114,5,-1,24,35,25,35,false,"2021-09-28 23:01:23",99.234.127.84,"Mozilla/5.0 (Windows NT 10.0; Win64; x64) AppleWebKit/537.36 (KHTML, like Gecko) Chrome/93.0.4577.82 Safari/537.36",WebKit,Chrome,93.0.4577.82,Windows,10.0,fe3c1d035a65c549f7011c5446f73ede
10,1,null,null,psychophysics,234,414317,0.0-3.0-1.113,"""",key,null,16.674216666666325,768,361,"""","""","""","""","""","""","""","""","2021-09-28 23:01:23",99.234.127.84,"Mozilla/5.0 (Windows NT 10.0; Win64; x64) AppleWebKit/537.36 (KHTML, like Gecko) Chrome/93.0.4577.82 Safari/537.36",WebKit,Chrome,93.0.4577.82,Windows,10.0,fe3c1d035a65c549f7011c5446f73ede
10,1,1797,arrowright,psychophysics,235,416117,0.0-3.0-0.114,"""",key,arrowright,16.667271028037803,768,361,115,5,-1,25,35,25,35,false,"2021-09-28 23:01:23",99.234.127.84,"Mozilla/5.0 (Windows NT 10.0; Win64; x64) AppleWebKit/537.36 (KHTML, like Gecko) Chrome/93.0.4577.82 Safari/537.36",WebKit,Chrome,93.0.4577.82,Windows,10.0,fe3c1d035a65c549f7011c5446f73ede
10,1,null,null,psychophysics,236,417118,0.0-3.0-1.114,"""",key,null,16.666237288135918,768,361,"""","""","""","""","""","""","""","""","2021-09-28 23:01:23",99.234.127.84,"Mozilla/5.0 (Windows NT 10.0; Win64; x64) AppleWebKit/537.36 (KHTML, like Gecko) Chrome/93.0.4577.82 Safari/537.36",WebKit,Chrome,93.0.4577.82,Windows,10.0,fe3c1d035a65c549f7011c5446f73ede
10,1,2143.7000000476837,arrowright,psychophysics,237,419265,0.0-3.0-0.115,"""",key,arrowright,16.66773437499978,768,361,116,5,-1,23,15,25,35,false,"2021-09-28 23:01:23",99.234.127.84,"Mozilla/5.0 (Windows NT 10.0; Win64; x64) AppleWebKit/537.36 (KHTML, like Gecko) Chrome/93.0.4577.82 Safari/537.36",WebKit,Chrome,93.0.4577.82,Windows,10.0,fe3c1d035a65c549f7011c5446f73ede
10,1,null,null,psychophysics,238,420270,0.0-3.0-1.115,"""",key,null,16.661779661016674,768,361,"""","""","""","""","""","""","""","""","2021-09-28 23:01:23",99.234.127.84,"Mozilla/5.0 (Windows NT 10.0; Win64; x64) AppleWebKit/537.36 (KHTML, like Gecko) Chrome/93.0.4577.82 Safari/537.36",WebKit,Chrome,93.0.4577.82,Windows,10.0,fe3c1d035a65c549f7011c5446f73ede
10,1,1198.8999998569489,arrowright,psychophysics,239,421471,0.0-3.0-0.116,"""",key,arrowright,16.662676056337865,768,361,117,5,1,30,35,25,35,true,"2021-09-28 23:01:23",99.234.127.84,"Mozilla/5.0 (Windows NT 10.0; Win64; x64) AppleWebKit/537.36 (KHTML, like Gecko) Chrome/93.0.4577.82 Safari/537.36",WebKit,Chrome,93.0.4577.82,Windows,10.0,fe3c1d035a65c549f7011c5446f73ede
10,1,null,null,psychophysics,240,422473,0.0-3.0-1.116,"""",key,null,16.670288135592582,768,361,"""","""","""","""","""","""","""","""","2021-09-28 23:01:23",99.234.127.84,"Mozilla/5.0 (Windows NT 10.0; Win64; x64) AppleWebKit/537.36 (KHTML, like Gecko) Chrome/93.0.4577.82 Safari/537.36",WebKit,Chrome,93.0.4577.82,Windows,10.0,fe3c1d035a65c549f7011c5446f73ede
10,1,948.3999998569489,arrowleft,psychophysics,241,423424,0.0-3.0-0.117,"""",key,arrowleft,16.66374999999971,768,361,118,5,-1,30,35,25,35,true,"2021-09-28 23:01:23",99.234.127.84,"Mozilla/5.0 (Windows NT 10.0; Win64; x64) AppleWebKit/537.36 (KHTML, like Gecko) Chrome/93.0.4577.82 Safari/537.36",WebKit,Chrome,93.0.4577.82,Windows,10.0,fe3c1d035a65c549f7011c5446f73ede
10,1,null,null,psychophysics,242,424425,0.0-3.0-1.117,"""",key,null,16.665999999999904,768,361,"""","""","""","""","""","""","""","""","2021-09-28 23:01:23",99.234.127.84,"Mozilla/5.0 (Windows NT 10.0; Win64; x64) AppleWebKit/537.36 (KHTML, like Gecko) Chrome/93.0.4577.82 Safari/537.36",WebKit,Chrome,93.0.4577.82,Windows,10.0,fe3c1d035a65c549f7011c5446f73ede
10,1,720.6999998092651,arrowright,psychophysics,243,425149,0.0-3.0-0.118,"""",key,arrowright,16.66534883721033,768,361,119,5,1,30,35,25,35,true,"2021-09-28 23:01:23",99.234.127.84,"Mozilla/5.0 (Windows NT 10.0; Win64; x64) AppleWebKit/537.36 (KHTML, like Gecko) Chrome/93.0.4577.82 Safari/537.36",WebKit,Chrome,93.0.4577.82,Windows,10.0,fe3c1d035a65c549f7011c5446f73ede
10,1,null,null,psychophysics,244,426155,0.0-3.0-1.118,"""",key,null,16.670118644067987,768,361,"""","""","""","""","""","""","""","""","2021-09-28 23:01:23",99.234.127.84,"Mozilla/5.0 (Windows NT 10.0; Win64; x64) AppleWebKit/537.36 (KHTML, like Gecko) Chrome/93.0.4577.82 Safari/537.36",WebKit,Chrome,93.0.4577.82,Windows,10.0,fe3c1d035a65c549f7011c5446f73ede
10,1,3160,arrowright,psychophysics,245,429317,0.0-3.0-0.119,"""",key,arrowright,16.66767195767197,768,361,120,5,-1,24,15,25,35,false,"2021-09-28 23:01:23",99.234.127.84,"Mozilla/5.0 (Windows NT 10.0; Win64; x64) AppleWebKit/537.36 (KHTML, like Gecko) Chrome/93.0.4577.82 Safari/537.36",WebKit,Chrome,93.0.4577.82,Windows,10.0,fe3c1d035a65c549f7011c5446f73ede
10,1,null,null,psychophysics,246,430319,0.0-3.0-1.119,"""",key,null,16.671644067796247,768,361,"""","""","""","""","""","""","""","""","2021-09-28 23:01:23",99.234.127.84,"Mozilla/5.0 (Windows NT 10.0; Win64; x64) AppleWebKit/537.36 (KHTML, like Gecko) Chrome/93.0.4577.82 Safari/537.36",WebKit,Chrome,93.0.4577.82,Windows,10.0,fe3c1d035a65c549f7011c5446f73ede
10,1,2929.0999999046326,arrowright,psychophysics,247,433251,0.0-3.0-0.120,"""",key,arrowright,16.668114285714193,768,361,121,5,1,25,15,25,35,true,"2021-09-28 23:01:23",99.234.127.84,"Mozilla/5.0 (Windows NT 10.0; Win64; x64) AppleWebKit/537.36 (KHTML, like Gecko) Chrome/93.0.4577.82 Safari/537.36",WebKit,Chrome,93.0.4577.82,Windows,10.0,fe3c1d035a65c549f7011c5446f73ede
10,1,null,null,psychophysics,248,434257,0.0-3.0-1.120,"""",key,null,16.673305084746353,768,361,"""","""","""","""","""","""","""","""","2021-09-28 23:01:23",99.234.127.84,"Mozilla/5.0 (Windows NT 10.0; Win64; x64) AppleWebKit/537.36 (KHTML, like Gecko) Chrome/93.0.4577.82 Safari/537.36",WebKit,Chrome,93.0.4577.82,Windows,10.0,fe3c1d035a65c549f7011c5446f73ede
10,1,945,arrowleft,psychophysics,249,435204,0.0-3.0-0.121,"""",key,arrowleft,16.66616071428663,768,361,122,5,-1,27,15,25,35,true,"2021-09-28 23:01:23",99.234.127.84,"Mozilla/5.0 (Windows NT 10.0; Win64; x64) AppleWebKit/537.36 (KHTML, like Gecko) Chrome/93.0.4577.82 Safari/537.36",WebKit,Chrome,93.0.4577.82,Windows,10.0,fe3c1d035a65c549f7011c5446f73ede
10,1,null,null,psychophysics,250,436205,0.0-3.0-1.121,"""",key,null,16.671186440677573,768,361,"""","""","""","""","""","""","""","""","2021-09-28 23:01:23",99.234.127.84,"Mozilla/5.0 (Windows NT 10.0; Win64; x64) AppleWebKit/537.36 (KHTML, like Gecko) Chrome/93.0.4577.82 Safari/537.36",WebKit,Chrome,93.0.4577.82,Windows,10.0,fe3c1d035a65c549f7011c5446f73ede
10,1,992.6999998092651,arrowleft,psychophysics,251,437201,0.0-3.0-0.122,"""",key,arrowleft,16.666694915254592,768,361,123,5,-1,26,35,25,35,true,"2021-09-28 23:01:23",99.234.127.84,"Mozilla/5.0 (Windows NT 10.0; Win64; x64) AppleWebKit/537.36 (KHTML, like Gecko) Chrome/93.0.4577.82 Safari/537.36",WebKit,Chrome,93.0.4577.82,Windows,10.0,fe3c1d035a65c549f7011c5446f73ede
10,1,null,null,psychophysics,252,438202,0.0-3.0-1.122,"""",key,null,16.666101694915056,768,361,"""","""","""","""","""","""","""","""","2021-09-28 23:01:23",99.234.127.84,"Mozilla/5.0 (Windows NT 10.0; Win64; x64) AppleWebKit/537.36 (KHTML, like Gecko) Chrome/93.0.4577.82 Safari/537.36",WebKit,Chrome,93.0.4577.82,Windows,10.0,fe3c1d035a65c549f7011c5446f73ede
10,1,969.1999998092651,arrowleft,psychophysics,253,439174,0.0-3.0-0.123,"""",key,arrowleft,16.66803508771996,768,361,124,5,1,23,15,25,35,false,"2021-09-28 23:01:23",99.234.127.84,"Mozilla/5.0 (Windows NT 10.0; Win64; x64) AppleWebKit/537.36 (KHTML, like Gecko) Chrome/93.0.4577.82 Safari/537.36",WebKit,Chrome,93.0.4577.82,Windows,10.0,fe3c1d035a65c549f7011c5446f73ede
10,1,null,null,psychophysics,254,440182,0.0-3.0-1.123,"""",key,null,16.674203389830357,768,361,"""","""","""","""","""","""","""","""","2021-09-28 23:01:23",99.234.127.84,"Mozilla/5.0 (Windows NT 10.0; Win64; x64) AppleWebKit/537.36 (KHTML, like Gecko) Chrome/93.0.4577.82 Safari/537.36",WebKit,Chrome,93.0.4577.82,Windows,10.0,fe3c1d035a65c549f7011c5446f73ede
10,1,1853.1000001430511,arrowright,psychophysics,255,442038,0.0-3.0-0.124,"""",key,arrowright,16.667900900900793,768,361,125,5,-1,23,15,25,35,false,"2021-09-28 23:01:23",99.234.127.84,"Mozilla/5.0 (Windows NT 10.0; Win64; x64) AppleWebKit/537.36 (KHTML, like Gecko) Chrome/93.0.4577.82 Safari/537.36",WebKit,Chrome,93.0.4577.82,Windows,10.0,fe3c1d035a65c549f7011c5446f73ede
10,1,null,null,psychophysics,256,443040,0.0-3.0-1.124,"""",key,null,16.67289830508476,768,361,"""","""","""","""","""","""","""","""","2021-09-28 23:01:23",99.234.127.84,"Mozilla/5.0 (Windows NT 10.0; Win64; x64) AppleWebKit/537.36 (KHTML, like Gecko) Chrome/93.0.4577.82 Safari/537.36",WebKit,Chrome,93.0.4577.82,Windows,10.0,fe3c1d035a65c549f7011c5446f73ede
10,1,827.2999999523163,arrowleft,psychophysics,257,443870,0.0-3.0-0.125,"""",key,arrowleft,16.660163265306085,768,361,126,5,-1,24,15,25,35,true,"2021-09-28 23:01:23",99.234.127.84,"Mozilla/5.0 (Windows NT 10.0; Win64; x64) AppleWebKit/537.36 (KHTML, like Gecko) Chrome/93.0.4577.82 Safari/537.36",WebKit,Chrome,93.0.4577.82,Windows,10.0,fe3c1d035a65c549f7011c5446f73ede
10,1,null,null,psychophysics,258,444871,0.0-3.0-1.125,"""",key,null,16.668864406779473,768,361,"""","""","""","""","""","""","""","""","2021-09-28 23:01:23",99.234.127.84,"Mozilla/5.0 (Windows NT 10.0; Win64; x64) AppleWebKit/537.36 (KHTML, like Gecko) Chrome/93.0.4577.82 Safari/537.36",WebKit,Chrome,93.0.4577.82,Windows,10.0,fe3c1d035a65c549f7011c5446f73ede
10,1,807.7000000476837,arrowleft,psychophysics,259,445684,0.0-3.0-0.126,"""",key,arrowleft,16.663062499999796,768,361,127,5,1,20,15,25,35,false,"2021-09-28 23:01:23",99.234.127.84,"Mozilla/5.0 (Windows NT 10.0; Win64; x64) AppleWebKit/537.36 (KHTML, like Gecko) Chrome/93.0.4577.82 Safari/537.36",WebKit,Chrome,93.0.4577.82,Windows,10.0,fe3c1d035a65c549f7011c5446f73ede
10,1,null,null,psychophysics,260,446687,0.0-3.0-1.126,"""",key,null,16.661762711864313,768,361,"""","""","""","""","""","""","""","""","2021-09-28 23:01:23",99.234.127.84,"Mozilla/5.0 (Windows NT 10.0; Win64; x64) AppleWebKit/537.36 (KHTML, like Gecko) Chrome/93.0.4577.82 Safari/537.36",WebKit,Chrome,93.0.4577.82,Windows,10.0,fe3c1d035a65c549f7011c5446f73ede
10,1,1411.6000001430511,arrowleft,psychophysics,261,448101,0.0-3.0-0.127,"""",key,arrowleft,16.672249999999796,768,361,128,5,-1,25,35,25,35,true,"2021-09-28 23:01:23",99.234.127.84,"Mozilla/5.0 (Windows NT 10.0; Win64; x64) AppleWebKit/537.36 (KHTML, like Gecko) Chrome/93.0.4577.82 Safari/537.36",WebKit,Chrome,93.0.4577.82,Windows,10.0,fe3c1d035a65c549f7011c5446f73ede
10,1,null,null,psychophysics,262,449103,0.0-3.0-1.127,"""",key,null,16.664322033898422,768,361,"""","""","""","""","""","""","""","""","2021-09-28 23:01:23",99.234.127.84,"Mozilla/5.0 (Windows NT 10.0; Win64; x64) AppleWebKit/537.36 (KHTML, like Gecko) Chrome/93.0.4577.82 Safari/537.36",WebKit,Chrome,93.0.4577.82,Windows,10.0,fe3c1d035a65c549f7011c5446f73ede
10,1,902.5999999046326,arrowright,psychophysics,263,450008,0.0-3.0-0.128,"""",key,arrowright,16.66445283018896,768,361,129,5,1,27,15,25,35,true,"2021-09-28 23:01:23",99.234.127.84,"Mozilla/5.0 (Windows NT 10.0; Win64; x64) AppleWebKit/537.36 (KHTML, like Gecko) Chrome/93.0.4577.82 Safari/537.36",WebKit,Chrome,93.0.4577.82,Windows,10.0,fe3c1d035a65c549f7011c5446f73ede
10,1,null,null,psychophysics,264,451009,0.0-3.0-1.128,"""",key,null,16.673169491525496,768,361,"""","""","""","""","""","""","""","""","2021-09-28 23:01:23",99.234.127.84,"Mozilla/5.0 (Windows NT 10.0; Win64; x64) AppleWebKit/537.36 (KHTML, like Gecko) Chrome/93.0.4577.82 Safari/537.36",WebKit,Chrome,93.0.4577.82,Windows,10.0,fe3c1d035a65c549f7011c5446f73ede
10,1,899.2999999523163,arrowleft,psychophysics,265,451914,0.0-3.0-0.129,"""",key,arrowleft,16.66150943396222,768,361,130,5,-1,27,15,25,35,true,"2021-09-28 23:01:23",99.234.127.84,"Mozilla/5.0 (Windows NT 10.0; Win64; x64) AppleWebKit/537.36 (KHTML, like Gecko) Chrome/93.0.4577.82 Safari/537.36",WebKit,Chrome,93.0.4577.82,Windows,10.0,fe3c1d035a65c549f7011c5446f73ede
10,1,null,null,psychophysics,266,452915,0.0-3.0-1.129,"""",key,null,16.67422033898272,768,361,"""","""","""","""","""","""","""","""","2021-09-28 23:01:23",99.234.127.84,"Mozilla/5.0 (Windows NT 10.0; Win64; x64) AppleWebKit/537.36 (KHTML, like Gecko) Chrome/93.0.4577.82 Safari/537.36",WebKit,Chrome,93.0.4577.82,Windows,10.0,fe3c1d035a65c549f7011c5446f73ede
10,1,1784.9000000953674,arrowleft,psychophysics,267,454703,0.0-3.0-0.130,"""",key,arrowleft,16.668448598130613,768,361,131,5,1,23,35,25,35,false,"2021-09-28 23:01:23",99.234.127.84,"Mozilla/5.0 (Windows NT 10.0; Win64; x64) AppleWebKit/537.36 (KHTML, like Gecko) Chrome/93.0.4577.82 Safari/537.36",WebKit,Chrome,93.0.4577.82,Windows,10.0,fe3c1d035a65c549f7011c5446f73ede
10,1,null,null,psychophysics,268,455705,0.0-3.0-1.130,"""",key,null,16.668305084745644,768,361,"""","""","""","""","""","""","""","""","2021-09-28 23:01:23",99.234.127.84,"Mozilla/5.0 (Windows NT 10.0; Win64; x64) AppleWebKit/537.36 (KHTML, like Gecko) Chrome/93.0.4577.82 Safari/537.36",WebKit,Chrome,93.0.4577.82,Windows,10.0,fe3c1d035a65c549f7011c5446f73ede
10,1,888.0999999046326,arrowright,psychophysics,269,456596,0.0-3.0-0.131,"""",key,arrowright,16.666019230769823,768,361,132,5,1,26,15,25,35,true,"2021-09-28 23:01:23",99.234.127.84,"Mozilla/5.0 (Windows NT 10.0; Win64; x64) AppleWebKit/537.36 (KHTML, like Gecko) Chrome/93.0.4577.82 Safari/537.36",WebKit,Chrome,93.0.4577.82,Windows,10.0,fe3c1d035a65c549f7011c5446f73ede
