run_id,condition,rt,response,trial_type,trial_index,time_elapsed,internal_node_id,stimulus,response_type,key_press,avg_frame_time,center_x,center_y,trial,block,test_pos,test_inner_radius,test_outer_radius,ref_inner_radius,ref_outer_radius,test_bigger,recorded_at,ip,user_agent,device,browser,browser_version,platform,platform_version,source_code_version
16,1,42909.5,"{""p_id"":""6323"",""age"":""21"",""handedness"":""right"",""sex"":""male"",""other_sex"":""}",survey-html-form,0,42911,0.0-0.0,"""","""","""","""","""","""","""","""","""","""","""","""","""","""","2021-10-03 01:19:55",99.232.133.236,"Mozilla/5.0 (Windows NT 10.0; Win64; x64) AppleWebKit/537.36 (KHTML, like Gecko) Chrome/94.0.4606.61 Safari/537.36",WebKit,Chrome,94.0.4606.61,Windows,10.0,fe3c1d035a65c549f7011c5446f73ede
16,1,17610.799999952316,f,html-keyboard-response,1,60524,0.0-1.0,"<p style=""color: white"">Welcome to the Size Judgment Experiment. <br>There will be 10 blocks in this experiment. <br>There will be 28 trials in each block. <br>You will be given a chance to take a break between blocks. <br>Press any key to start the experiment.</p>","""","""","""","""","""","""","""","""","""","""","""","""","""","2021-10-03 01:19:55",99.232.133.236,"Mozilla/5.0 (Windows NT 10.0; Win64; x64) AppleWebKit/537.36 (KHTML, like Gecko) Chrome/94.0.4606.61 Safari/537.36",WebKit,Chrome,94.0.4606.61,Windows,10.0,fe3c1d035a65c549f7011c5446f73ede
16,1,16771.699999809265," ",psychophysics,2,77305,0.0-2.0,"""",key," ",16.658501489572988,768,361,"""","""","""","""","""","""","""","""","2021-10-03 01:19:55",99.232.133.236,"Mozilla/5.0 (Windows NT 10.0; Win64; x64) AppleWebKit/537.36 (KHTML, like Gecko) Chrome/94.0.4606.61 Safari/537.36",WebKit,Chrome,94.0.4606.61,Windows,10.0,fe3c1d035a65c549f7011c5446f73ede
16,1,1388.7000000476837,arrowright,psychophysics,3,78697,0.0-3.0-0.0,"""",key,arrowright,16.65879518072281,768,361,1,1,1,23,35,25,35,true,"2021-10-03 01:19:55",99.232.133.236,"Mozilla/5.0 (Windows NT 10.0; Win64; x64) AppleWebKit/537.36 (KHTML, like Gecko) Chrome/94.0.4606.61 Safari/537.36",WebKit,Chrome,94.0.4606.61,Windows,10.0,fe3c1d035a65c549f7011c5446f73ede
16,1,null,null,psychophysics,4,79699,0.0-3.0-1.0,"""",key,null,16.658033898305217,768,361,"""","""","""","""","""","""","""","""","2021-10-03 01:19:55",99.232.133.236,"Mozilla/5.0 (Windows NT 10.0; Win64; x64) AppleWebKit/537.36 (KHTML, like Gecko) Chrome/94.0.4606.61 Safari/537.36",WebKit,Chrome,94.0.4606.61,Windows,10.0,fe3c1d035a65c549f7011c5446f73ede
16,1,818.7000000476837,arrowright,psychophysics,5,80522,0.0-3.0-0.1,"""",key,arrowright,16.65902083333337,768,361,2,1,-1,30,15,25,35,false,"2021-10-03 01:19:55",99.232.133.236,"Mozilla/5.0 (Windows NT 10.0; Win64; x64) AppleWebKit/537.36 (KHTML, like Gecko) Chrome/94.0.4606.61 Safari/537.36",WebKit,Chrome,94.0.4606.61,Windows,10.0,fe3c1d035a65c549f7011c5446f73ede
16,1,null,null,psychophysics,6,81523,0.0-3.0-1.1,"""",key,null,16.658796610169595,768,361,"""","""","""","""","""","""","""","""","2021-10-03 01:19:55",99.232.133.236,"Mozilla/5.0 (Windows NT 10.0; Win64; x64) AppleWebKit/537.36 (KHTML, like Gecko) Chrome/94.0.4606.61 Safari/537.36",WebKit,Chrome,94.0.4606.61,Windows,10.0,fe3c1d035a65c549f7011c5446f73ede
16,1,969.3000001907349,arrowleft,psychophysics,7,82495,0.0-3.0-0.2,"""",key,arrowleft,16.659706896551832,768,361,3,1,-1,26,35,25,35,true,"2021-10-03 01:19:55",99.232.133.236,"Mozilla/5.0 (Windows NT 10.0; Win64; x64) AppleWebKit/537.36 (KHTML, like Gecko) Chrome/94.0.4606.61 Safari/537.36",WebKit,Chrome,94.0.4606.61,Windows,10.0,fe3c1d035a65c549f7011c5446f73ede
16,1,null,null,psychophysics,8,83495,0.0-3.0-1.2,"""",key,null,16.658474576271285,768,361,"""","""","""","""","""","""","""","""","2021-10-03 01:19:55",99.232.133.236,"Mozilla/5.0 (Windows NT 10.0; Win64; x64) AppleWebKit/537.36 (KHTML, like Gecko) Chrome/94.0.4606.61 Safari/537.36",WebKit,Chrome,94.0.4606.61,Windows,10.0,fe3c1d035a65c549f7011c5446f73ede
16,1,979.4000000953674,arrowleft,psychophysics,9,84477,0.0-3.0-0.3,"""",key,arrowleft,16.658551724137865,768,361,4,1,-1,24,35,25,35,true,"2021-10-03 01:19:55",99.232.133.236,"Mozilla/5.0 (Windows NT 10.0; Win64; x64) AppleWebKit/537.36 (KHTML, like Gecko) Chrome/94.0.4606.61 Safari/537.36",WebKit,Chrome,94.0.4606.61,Windows,10.0,fe3c1d035a65c549f7011c5446f73ede
16,1,null,null,psychophysics,10,85479,0.0-3.0-1.3,"""",key,null,16.659016949152505,768,361,"""","""","""","""","""","""","""","""","2021-10-03 01:19:55",99.232.133.236,"Mozilla/5.0 (Windows NT 10.0; Win64; x64) AppleWebKit/537.36 (KHTML, like Gecko) Chrome/94.0.4606.61 Safari/537.36",WebKit,Chrome,94.0.4606.61,Windows,10.0,fe3c1d035a65c549f7011c5446f73ede
16,1,579.7999999523163,arrowright,psychophysics,11,86062,0.0-3.0-0.4,"""",key,arrowright,16.659558823529498,768,361,5,1,-1,24,15,25,35,false,"2021-10-03 01:19:55",99.232.133.236,"Mozilla/5.0 (Windows NT 10.0; Win64; x64) AppleWebKit/537.36 (KHTML, like Gecko) Chrome/94.0.4606.61 Safari/537.36",WebKit,Chrome,94.0.4606.61,Windows,10.0,fe3c1d035a65c549f7011c5446f73ede
16,1,null,null,psychophysics,12,87064,0.0-3.0-1.4,"""",key,null,16.65884745762717,768,361,"""","""","""","""","""","""","""","""","2021-10-03 01:19:55",99.232.133.236,"Mozilla/5.0 (Windows NT 10.0; Win64; x64) AppleWebKit/537.36 (KHTML, like Gecko) Chrome/94.0.4606.61 Safari/537.36",WebKit,Chrome,94.0.4606.61,Windows,10.0,fe3c1d035a65c549f7011c5446f73ede
16,1,831.0999999046326,arrowleft,psychophysics,13,87897,0.0-3.0-0.5,"""",key,arrowleft,16.658897959183527,768,361,6,1,1,26,35,25,35,false,"2021-10-03 01:19:55",99.232.133.236,"Mozilla/5.0 (Windows NT 10.0; Win64; x64) AppleWebKit/537.36 (KHTML, like Gecko) Chrome/94.0.4606.61 Safari/537.36",WebKit,Chrome,94.0.4606.61,Windows,10.0,fe3c1d035a65c549f7011c5446f73ede
16,1,null,null,psychophysics,14,88900,0.0-3.0-1.5,"""",key,null,16.658864406779532,768,361,"""","""","""","""","""","""","""","""","2021-10-03 01:19:55",99.232.133.236,"Mozilla/5.0 (Windows NT 10.0; Win64; x64) AppleWebKit/537.36 (KHTML, like Gecko) Chrome/94.0.4606.61 Safari/537.36",WebKit,Chrome,94.0.4606.61,Windows,10.0,fe3c1d035a65c549f7011c5446f73ede
16,1,635.1000001430511,arrowright,psychophysics,15,89539,0.0-3.0-0.6,"""",key,arrowright,16.65700000000001,768,361,7,1,-1,23,15,25,35,false,"2021-10-03 01:19:55",99.232.133.236,"Mozilla/5.0 (Windows NT 10.0; Win64; x64) AppleWebKit/537.36 (KHTML, like Gecko) Chrome/94.0.4606.61 Safari/537.36",WebKit,Chrome,94.0.4606.61,Windows,10.0,fe3c1d035a65c549f7011c5446f73ede
16,1,null,null,psychophysics,16,90541,0.0-3.0-1.6,"""",key,null,16.65852542372886,768,361,"""","""","""","""","""","""","""","""","2021-10-03 01:19:55",99.232.133.236,"Mozilla/5.0 (Windows NT 10.0; Win64; x64) AppleWebKit/537.36 (KHTML, like Gecko) Chrome/94.0.4606.61 Safari/537.36",WebKit,Chrome,94.0.4606.61,Windows,10.0,fe3c1d035a65c549f7011c5446f73ede
16,1,637.2999999523163,arrowleft,psychophysics,17,91181,0.0-3.0-0.7,"""",key,arrowleft,16.658054054054002,768,361,8,1,1,20,15,25,35,false,"2021-10-03 01:19:55",99.232.133.236,"Mozilla/5.0 (Windows NT 10.0; Win64; x64) AppleWebKit/537.36 (KHTML, like Gecko) Chrome/94.0.4606.61 Safari/537.36",WebKit,Chrome,94.0.4606.61,Windows,10.0,fe3c1d035a65c549f7011c5446f73ede
16,1,null,null,psychophysics,18,92183,0.0-3.0-1.7,"""",key,null,16.65938983050839,768,361,"""","""","""","""","""","""","""","""","2021-10-03 01:19:55",99.232.133.236,"Mozilla/5.0 (Windows NT 10.0; Win64; x64) AppleWebKit/537.36 (KHTML, like Gecko) Chrome/94.0.4606.61 Safari/537.36",WebKit,Chrome,94.0.4606.61,Windows,10.0,fe3c1d035a65c549f7011c5446f73ede
16,1,582.2999999523163,arrowright,psychophysics,19,92768,0.0-3.0-0.8,"""",key,arrowright,16.659264705882165,768,361,9,1,-1,20,15,25,35,false,"2021-10-03 01:19:55",99.232.133.236,"Mozilla/5.0 (Windows NT 10.0; Win64; x64) AppleWebKit/537.36 (KHTML, like Gecko) Chrome/94.0.4606.61 Safari/537.36",WebKit,Chrome,94.0.4606.61,Windows,10.0,fe3c1d035a65c549f7011c5446f73ede
16,1,null,null,psychophysics,20,93769,0.0-3.0-1.8,"""",key,null,16.659220338983054,768,361,"""","""","""","""","""","""","""","""","2021-10-03 01:19:55",99.232.133.236,"Mozilla/5.0 (Windows NT 10.0; Win64; x64) AppleWebKit/537.36 (KHTML, like Gecko) Chrome/94.0.4606.61 Safari/537.36",WebKit,Chrome,94.0.4606.61,Windows,10.0,fe3c1d035a65c549f7011c5446f73ede
16,1,1313.5,arrowright,psychophysics,21,95086,0.0-3.0-0.9,"""",key,arrowright,16.658410256410253,768,361,10,1,1,25,35,25,35,true,"2021-10-03 01:19:55",99.232.133.236,"Mozilla/5.0 (Windows NT 10.0; Win64; x64) AppleWebKit/537.36 (KHTML, like Gecko) Chrome/94.0.4606.61 Safari/537.36",WebKit,Chrome,94.0.4606.61,Windows,10.0,fe3c1d035a65c549f7011c5446f73ede
16,1,null,null,psychophysics,22,96088,0.0-3.0-1.9,"""",key,null,16.658383333333525,768,361,"""","""","""","""","""","""","""","""","2021-10-03 01:19:55",99.232.133.236,"Mozilla/5.0 (Windows NT 10.0; Win64; x64) AppleWebKit/537.36 (KHTML, like Gecko) Chrome/94.0.4606.61 Safari/537.36",WebKit,Chrome,94.0.4606.61,Windows,10.0,fe3c1d035a65c549f7011c5446f73ede
16,1,817.2000000476837,arrowleft,psychophysics,23,96908,0.0-3.0-0.10,"""",key,arrowleft,16.658583333333507,768,361,11,1,1,23,15,25,35,false,"2021-10-03 01:19:55",99.232.133.236,"Mozilla/5.0 (Windows NT 10.0; Win64; x64) AppleWebKit/537.36 (KHTML, like Gecko) Chrome/94.0.4606.61 Safari/537.36",WebKit,Chrome,94.0.4606.61,Windows,10.0,fe3c1d035a65c549f7011c5446f73ede
16,1,null,null,psychophysics,24,97910,0.0-3.0-1.10,"""",key,null,16.65928813559324,768,361,"""","""","""","""","""","""","""","""","2021-10-03 01:19:55",99.232.133.236,"Mozilla/5.0 (Windows NT 10.0; Win64; x64) AppleWebKit/537.36 (KHTML, like Gecko) Chrome/94.0.4606.61 Safari/537.36",WebKit,Chrome,94.0.4606.61,Windows,10.0,fe3c1d035a65c549f7011c5446f73ede
16,1,3394.199999809265,arrowleft,psychophysics,25,101307,0.0-3.0-0.11,"""",key,arrowleft,16.65826108374381,768,361,12,1,-1,25,15,25,35,true,"2021-10-03 01:19:55",99.232.133.236,"Mozilla/5.0 (Windows NT 10.0; Win64; x64) AppleWebKit/537.36 (KHTML, like Gecko) Chrome/94.0.4606.61 Safari/537.36",WebKit,Chrome,94.0.4606.61,Windows,10.0,fe3c1d035a65c549f7011c5446f73ede
16,1,null,null,psychophysics,26,102310,0.0-3.0-1.11,"""",key,null,16.659067796610326,768,361,"""","""","""","""","""","""","""","""","2021-10-03 01:19:55",99.232.133.236,"Mozilla/5.0 (Windows NT 10.0; Win64; x64) AppleWebKit/537.36 (KHTML, like Gecko) Chrome/94.0.4606.61 Safari/537.36",WebKit,Chrome,94.0.4606.61,Windows,10.0,fe3c1d035a65c549f7011c5446f73ede
16,1,1815.7000000476837,arrowright,psychophysics,27,104129,0.0-3.0-0.12,"""",key,arrowright,16.65811111111112,768,361,13,1,1,25,15,25,35,true,"2021-10-03 01:19:55",99.232.133.236,"Mozilla/5.0 (Windows NT 10.0; Win64; x64) AppleWebKit/537.36 (KHTML, like Gecko) Chrome/94.0.4606.61 Safari/537.36",WebKit,Chrome,94.0.4606.61,Windows,10.0,fe3c1d035a65c549f7011c5446f73ede
16,1,null,null,psychophysics,28,105130,0.0-3.0-1.12,"""",key,null,16.65864406779662,768,361,"""","""","""","""","""","""","""","""","2021-10-03 01:19:55",99.232.133.236,"Mozilla/5.0 (Windows NT 10.0; Win64; x64) AppleWebKit/537.36 (KHTML, like Gecko) Chrome/94.0.4606.61 Safari/537.36",WebKit,Chrome,94.0.4606.61,Windows,10.0,fe3c1d035a65c549f7011c5446f73ede
16,1,1449.7000000476837,arrowleft,psychophysics,29,106582,0.0-3.0-0.13,"""",key,arrowleft,16.659172413793083,768,361,14,1,-1,27,35,25,35,true,"2021-10-03 01:19:55",99.232.133.236,"Mozilla/5.0 (Windows NT 10.0; Win64; x64) AppleWebKit/537.36 (KHTML, like Gecko) Chrome/94.0.4606.61 Safari/537.36",WebKit,Chrome,94.0.4606.61,Windows,10.0,fe3c1d035a65c549f7011c5446f73ede
16,1,null,null,psychophysics,30,107585,0.0-3.0-1.13,"""",key,null,16.65903389830511,768,361,"""","""","""","""","""","""","""","""","2021-10-03 01:19:55",99.232.133.236,"Mozilla/5.0 (Windows NT 10.0; Win64; x64) AppleWebKit/537.36 (KHTML, like Gecko) Chrome/94.0.4606.61 Safari/537.36",WebKit,Chrome,94.0.4606.61,Windows,10.0,fe3c1d035a65c549f7011c5446f73ede
16,1,2478.0999999046326,arrowleft,psychophysics,31,110066,0.0-3.0-0.14,"""",key,arrowleft,16.658425675675677,768,361,15,1,-1,25,35,25,35,true,"2021-10-03 01:19:55",99.232.133.236,"Mozilla/5.0 (Windows NT 10.0; Win64; x64) AppleWebKit/537.36 (KHTML, like Gecko) Chrome/94.0.4606.61 Safari/537.36",WebKit,Chrome,94.0.4606.61,Windows,10.0,fe3c1d035a65c549f7011c5446f73ede
16,1,null,null,psychophysics,32,111067,0.0-3.0-1.14,"""",key,null,16.659305084745846,768,361,"""","""","""","""","""","""","""","""","2021-10-03 01:19:55",99.232.133.236,"Mozilla/5.0 (Windows NT 10.0; Win64; x64) AppleWebKit/537.36 (KHTML, like Gecko) Chrome/94.0.4606.61 Safari/537.36",WebKit,Chrome,94.0.4606.61,Windows,10.0,fe3c1d035a65c549f7011c5446f73ede
16,1,845.5999999046326,arrowright,psychophysics,33,111915,0.0-3.0-0.15,"""",key,arrowright,16.659379999999945,768,361,16,1,1,30,35,25,35,true,"2021-10-03 01:19:55",99.232.133.236,"Mozilla/5.0 (Windows NT 10.0; Win64; x64) AppleWebKit/537.36 (KHTML, like Gecko) Chrome/94.0.4606.61 Safari/537.36",WebKit,Chrome,94.0.4606.61,Windows,10.0,fe3c1d035a65c549f7011c5446f73ede
16,1,null,null,psychophysics,34,112918,0.0-3.0-1.15,"""",key,null,16.658694915254195,768,361,"""","""","""","""","""","""","""","""","2021-10-03 01:19:55",99.232.133.236,"Mozilla/5.0 (Windows NT 10.0; Win64; x64) AppleWebKit/537.36 (KHTML, like Gecko) Chrome/94.0.4606.61 Safari/537.36",WebKit,Chrome,94.0.4606.61,Windows,10.0,fe3c1d035a65c549f7011c5446f73ede
16,1,1152.2000000476837,arrowleft,psychophysics,35,114073,0.0-3.0-0.16,"""",key,arrowleft,16.65926470588238,768,361,17,1,-1,23,15,25,35,true,"2021-10-03 01:19:55",99.232.133.236,"Mozilla/5.0 (Windows NT 10.0; Win64; x64) AppleWebKit/537.36 (KHTML, like Gecko) Chrome/94.0.4606.61 Safari/537.36",WebKit,Chrome,94.0.4606.61,Windows,10.0,fe3c1d035a65c549f7011c5446f73ede
16,1,null,null,psychophysics,36,115074,0.0-3.0-1.16,"""",key,null,16.659559322033726,768,361,"""","""","""","""","""","""","""","""","2021-10-03 01:19:55",99.232.133.236,"Mozilla/5.0 (Windows NT 10.0; Win64; x64) AppleWebKit/537.36 (KHTML, like Gecko) Chrome/94.0.4606.61 Safari/537.36",WebKit,Chrome,94.0.4606.61,Windows,10.0,fe3c1d035a65c549f7011c5446f73ede
16,1,947.7000000476837,arrowleft,psychophysics,37,116025,0.0-3.0-0.17,"""",key,arrowleft,16.65896428571432,768,361,18,1,-1,30,35,25,35,true,"2021-10-03 01:19:55",99.232.133.236,"Mozilla/5.0 (Windows NT 10.0; Win64; x64) AppleWebKit/537.36 (KHTML, like Gecko) Chrome/94.0.4606.61 Safari/537.36",WebKit,Chrome,94.0.4606.61,Windows,10.0,fe3c1d035a65c549f7011c5446f73ede
16,1,null,null,psychophysics,38,117027,0.0-3.0-1.17,"""",key,null,16.65776666666667,768,361,"""","""","""","""","""","""","""","""","2021-10-03 01:19:55",99.232.133.236,"Mozilla/5.0 (Windows NT 10.0; Win64; x64) AppleWebKit/537.36 (KHTML, like Gecko) Chrome/94.0.4606.61 Safari/537.36",WebKit,Chrome,94.0.4606.61,Windows,10.0,fe3c1d035a65c549f7011c5446f73ede
16,1,1226.7000000476837,arrowleft,psychophysics,39,118257,0.0-3.0-0.18,"""",key,arrowleft,16.658361111111137,768,361,19,1,-1,25,15,25,35,true,"2021-10-03 01:19:55",99.232.133.236,"Mozilla/5.0 (Windows NT 10.0; Win64; x64) AppleWebKit/537.36 (KHTML, like Gecko) Chrome/94.0.4606.61 Safari/537.36",WebKit,Chrome,94.0.4606.61,Windows,10.0,fe3c1d035a65c549f7011c5446f73ede
16,1,null,null,psychophysics,40,119260,0.0-3.0-1.18,"""",key,null,16.658449999999963,768,361,"""","""","""","""","""","""","""","""","2021-10-03 01:19:55",99.232.133.236,"Mozilla/5.0 (Windows NT 10.0; Win64; x64) AppleWebKit/537.36 (KHTML, like Gecko) Chrome/94.0.4606.61 Safari/537.36",WebKit,Chrome,94.0.4606.61,Windows,10.0,fe3c1d035a65c549f7011c5446f73ede
16,1,3014.5999999046326,arrowleft,psychophysics,41,122278,0.0-3.0-0.19,"""",key,arrowleft,16.658427777777817,768,361,20,1,1,23,35,25,35,false,"2021-10-03 01:19:55",99.232.133.236,"Mozilla/5.0 (Windows NT 10.0; Win64; x64) AppleWebKit/537.36 (KHTML, like Gecko) Chrome/94.0.4606.61 Safari/537.36",WebKit,Chrome,94.0.4606.61,Windows,10.0,fe3c1d035a65c549f7011c5446f73ede
16,1,null,null,psychophysics,42,123279,0.0-3.0-1.19,"""",key,null,16.658627118644013,768,361,"""","""","""","""","""","""","""","""","2021-10-03 01:19:55",99.232.133.236,"Mozilla/5.0 (Windows NT 10.0; Win64; x64) AppleWebKit/537.36 (KHTML, like Gecko) Chrome/94.0.4606.61 Safari/537.36",WebKit,Chrome,94.0.4606.61,Windows,10.0,fe3c1d035a65c549f7011c5446f73ede
16,1,2799.7999999523163,arrowright,psychophysics,43,126081,0.0-3.0-0.20,"""",key,arrowright,16.658449101796382,768,361,21,1,-1,25,15,25,35,false,"2021-10-03 01:19:55",99.232.133.236,"Mozilla/5.0 (Windows NT 10.0; Win64; x64) AppleWebKit/537.36 (KHTML, like Gecko) Chrome/94.0.4606.61 Safari/537.36",WebKit,Chrome,94.0.4606.61,Windows,10.0,fe3c1d035a65c549f7011c5446f73ede
16,1,null,null,psychophysics,44,127084,0.0-3.0-1.20,"""",key,null,16.659118644067657,768,361,"""","""","""","""","""","""","""","""","2021-10-03 01:19:55",99.232.133.236,"Mozilla/5.0 (Windows NT 10.0; Win64; x64) AppleWebKit/537.36 (KHTML, like Gecko) Chrome/94.0.4606.61 Safari/537.36",WebKit,Chrome,94.0.4606.61,Windows,10.0,fe3c1d035a65c549f7011c5446f73ede
16,1,2499.9000000953674,arrowright,psychophysics,45,129588,0.0-3.0-0.21,"""",key,arrowright,16.65805999999992,768,361,22,1,1,24,35,25,35,true,"2021-10-03 01:19:55",99.232.133.236,"Mozilla/5.0 (Windows NT 10.0; Win64; x64) AppleWebKit/537.36 (KHTML, like Gecko) Chrome/94.0.4606.61 Safari/537.36",WebKit,Chrome,94.0.4606.61,Windows,10.0,fe3c1d035a65c549f7011c5446f73ede
16,1,null,null,psychophysics,46,130589,0.0-3.0-1.21,"""",key,null,16.658423728813215,768,361,"""","""","""","""","""","""","""","""","2021-10-03 01:19:55",99.232.133.236,"Mozilla/5.0 (Windows NT 10.0; Win64; x64) AppleWebKit/537.36 (KHTML, like Gecko) Chrome/94.0.4606.61 Safari/537.36",WebKit,Chrome,94.0.4606.61,Windows,10.0,fe3c1d035a65c549f7011c5446f73ede
16,1,2730.7000000476837,arrowleft,psychophysics,47,133323,0.0-3.0-0.22,"""",key,arrowleft,16.65814110429449,768,361,23,1,-1,23,15,25,35,true,"2021-10-03 01:19:55",99.232.133.236,"Mozilla/5.0 (Windows NT 10.0; Win64; x64) AppleWebKit/537.36 (KHTML, like Gecko) Chrome/94.0.4606.61 Safari/537.36",WebKit,Chrome,94.0.4606.61,Windows,10.0,fe3c1d035a65c549f7011c5446f73ede
16,1,null,null,psychophysics,48,134326,0.0-3.0-1.22,"""",key,null,16.658627118644013,768,361,"""","""","""","""","""","""","""","""","2021-10-03 01:19:55",99.232.133.236,"Mozilla/5.0 (Windows NT 10.0; Win64; x64) AppleWebKit/537.36 (KHTML, like Gecko) Chrome/94.0.4606.61 Safari/537.36",WebKit,Chrome,94.0.4606.61,Windows,10.0,fe3c1d035a65c549f7011c5446f73ede
16,1,1723.2000000476837,arrowleft,psychophysics,49,136052,0.0-3.0-0.23,"""",key,arrowleft,16.65952427184449,768,361,24,1,1,24,35,25,35,false,"2021-10-03 01:19:55",99.232.133.236,"Mozilla/5.0 (Windows NT 10.0; Win64; x64) AppleWebKit/537.36 (KHTML, like Gecko) Chrome/94.0.4606.61 Safari/537.36",WebKit,Chrome,94.0.4606.61,Windows,10.0,fe3c1d035a65c549f7011c5446f73ede
16,1,null,null,psychophysics,50,137054,0.0-3.0-1.23,"""",key,null,16.65754237288108,768,361,"""","""","""","""","""","""","""","""","2021-10-03 01:19:55",99.232.133.236,"Mozilla/5.0 (Windows NT 10.0; Win64; x64) AppleWebKit/537.36 (KHTML, like Gecko) Chrome/94.0.4606.61 Safari/537.36",WebKit,Chrome,94.0.4606.61,Windows,10.0,fe3c1d035a65c549f7011c5446f73ede
16,1,947.0999999046326,arrowleft,psychophysics,51,138004,0.0-3.0-0.24,"""",key,arrowleft,16.658089285714336,768,361,25,1,-1,30,35,25,35,true,"2021-10-03 01:19:55",99.232.133.236,"Mozilla/5.0 (Windows NT 10.0; Win64; x64) AppleWebKit/537.36 (KHTML, like Gecko) Chrome/94.0.4606.61 Safari/537.36",WebKit,Chrome,94.0.4606.61,Windows,10.0,fe3c1d035a65c549f7011c5446f73ede
16,1,null,null,psychophysics,52,139006,0.0-3.0-1.24,"""",key,null,16.65828813559334,768,361,"""","""","""","""","""","""","""","""","2021-10-03 01:19:55",99.232.133.236,"Mozilla/5.0 (Windows NT 10.0; Win64; x64) AppleWebKit/537.36 (KHTML, like Gecko) Chrome/94.0.4606.61 Safari/537.36",WebKit,Chrome,94.0.4606.61,Windows,10.0,fe3c1d035a65c549f7011c5446f73ede
16,1,1626.7000000476837,arrowright,psychophysics,53,140636,0.0-3.0-0.25,"""",key,arrowright,16.65811340206185,768,361,26,1,1,23,15,25,35,true,"2021-10-03 01:19:55",99.232.133.236,"Mozilla/5.0 (Windows NT 10.0; Win64; x64) AppleWebKit/537.36 (KHTML, like Gecko) Chrome/94.0.4606.61 Safari/537.36",WebKit,Chrome,94.0.4606.61,Windows,10.0,fe3c1d035a65c549f7011c5446f73ede
16,1,null,null,psychophysics,54,141637,0.0-3.0-1.25,"""",key,null,16.657728813559515,768,361,"""","""","""","""","""","""","""","""","2021-10-03 01:19:55",99.232.133.236,"Mozilla/5.0 (Windows NT 10.0; Win64; x64) AppleWebKit/537.36 (KHTML, like Gecko) Chrome/94.0.4606.61 Safari/537.36",WebKit,Chrome,94.0.4606.61,Windows,10.0,fe3c1d035a65c549f7011c5446f73ede
16,1,1348.7999999523163,arrowright,psychophysics,55,142989,0.0-3.0-0.26,"""",key,arrowright,16.657974999999716,768,361,27,1,1,30,35,25,35,true,"2021-10-03 01:19:55",99.232.133.236,"Mozilla/5.0 (Windows NT 10.0; Win64; x64) AppleWebKit/537.36 (KHTML, like Gecko) Chrome/94.0.4606.61 Safari/537.36",WebKit,Chrome,94.0.4606.61,Windows,10.0,fe3c1d035a65c549f7011c5446f73ede
16,1,null,null,psychophysics,56,143990,0.0-3.0-1.26,"""",key,null,16.657661016949085,768,361,"""","""","""","""","""","""","""","""","2021-10-03 01:19:55",99.232.133.236,"Mozilla/5.0 (Windows NT 10.0; Win64; x64) AppleWebKit/537.36 (KHTML, like Gecko) Chrome/94.0.4606.61 Safari/537.36",WebKit,Chrome,94.0.4606.61,Windows,10.0,fe3c1d035a65c549f7011c5446f73ede
16,1,1549.5,arrowleft,psychophysics,57,145542,0.0-3.0-0.27,"""",key,arrowleft,16.657934782608685,768,361,28,2,-1,27,35,25,35,true,"2021-10-03 01:19:55",99.232.133.236,"Mozilla/5.0 (Windows NT 10.0; Win64; x64) AppleWebKit/537.36 (KHTML, like Gecko) Chrome/94.0.4606.61 Safari/537.36",WebKit,Chrome,94.0.4606.61,Windows,10.0,fe3c1d035a65c549f7011c5446f73ede
16,1,null,null,psychophysics,58,146545,0.0-3.0-1.27,"""",key,null,16.658233333332948,768,361,"""","""","""","""","""","""","""","""","2021-10-03 01:19:55",99.232.133.236,"Mozilla/5.0 (Windows NT 10.0; Win64; x64) AppleWebKit/537.36 (KHTML, like Gecko) Chrome/94.0.4606.61 Safari/537.36",WebKit,Chrome,94.0.4606.61,Windows,10.0,fe3c1d035a65c549f7011c5446f73ede
16,1,11829.700000047684," ",html-keyboard-response,59,158376,0.0-3.0-2.27-0.27,"<div style=""color: white; text-align: center; vertical-align: top; display: inline-block; width: 800px; margin: auto""><p>You have completed 10% of the trials. You are on block 2 of 10. <br>Good job! Take a break if you need to.</p><p>Press any key to continue the experiment.</p></div>","""","""","""","""","""","""","""","""","""","""","""","""","""","2021-10-03 01:19:55",99.232.133.236,"Mozilla/5.0 (Windows NT 10.0; Win64; x64) AppleWebKit/537.36 (KHTML, like Gecko) Chrome/94.0.4606.61 Safari/537.36",WebKit,Chrome,94.0.4606.61,Windows,10.0,fe3c1d035a65c549f7011c5446f73ede
16,1,833.5999999046326,arrowleft,psychophysics,60,160213,0.0-3.0-0.28,"""",key,arrowleft,16.66064000000013,768,361,29,2,-1,27,15,25,35,true,"2021-10-03 01:19:55",99.232.133.236,"Mozilla/5.0 (Windows NT 10.0; Win64; x64) AppleWebKit/537.36 (KHTML, like Gecko) Chrome/94.0.4606.61 Safari/537.36",WebKit,Chrome,94.0.4606.61,Windows,10.0,fe3c1d035a65c549f7011c5446f73ede
16,1,null,null,psychophysics,61,161215,0.0-3.0-1.28,"""",key,null,16.659305084745846,768,361,"""","""","""","""","""","""","""","""","2021-10-03 01:19:55",99.232.133.236,"Mozilla/5.0 (Windows NT 10.0; Win64; x64) AppleWebKit/537.36 (KHTML, like Gecko) Chrome/94.0.4606.61 Safari/537.36",WebKit,Chrome,94.0.4606.61,Windows,10.0,fe3c1d035a65c549f7011c5446f73ede
16,1,1096.1000001430511,arrowright,psychophysics,62,162314,0.0-3.0-0.29,"""",key,arrowright,16.65770769230753,768,361,30,2,1,25,35,25,35,true,"2021-10-03 01:19:55",99.232.133.236,"Mozilla/5.0 (Windows NT 10.0; Win64; x64) AppleWebKit/537.36 (KHTML, like Gecko) Chrome/94.0.4606.61 Safari/537.36",WebKit,Chrome,94.0.4606.61,Windows,10.0,fe3c1d035a65c549f7011c5446f73ede
16,1,null,null,psychophysics,63,163315,0.0-3.0-1.29,"""",key,null,16.658966101695174,768,361,"""","""","""","""","""","""","""","""","2021-10-03 01:19:55",99.232.133.236,"Mozilla/5.0 (Windows NT 10.0; Win64; x64) AppleWebKit/537.36 (KHTML, like Gecko) Chrome/94.0.4606.61 Safari/537.36",WebKit,Chrome,94.0.4606.61,Windows,10.0,fe3c1d035a65c549f7011c5446f73ede
16,1,721.1999998092651,arrowleft,psychophysics,64,164039,0.0-3.0-0.30,"""",key,arrowleft,16.659093023255483,768,361,31,2,-1,26,35,25,35,true,"2021-10-03 01:19:55",99.232.133.236,"Mozilla/5.0 (Windows NT 10.0; Win64; x64) AppleWebKit/537.36 (KHTML, like Gecko) Chrome/94.0.4606.61 Safari/537.36",WebKit,Chrome,94.0.4606.61,Windows,10.0,fe3c1d035a65c549f7011c5446f73ede
16,1,null,null,psychophysics,65,165041,0.0-3.0-1.30,"""",key,null,16.65822033898291,768,361,"""","""","""","""","""","""","""","""","2021-10-03 01:19:55",99.232.133.236,"Mozilla/5.0 (Windows NT 10.0; Win64; x64) AppleWebKit/537.36 (KHTML, like Gecko) Chrome/94.0.4606.61 Safari/537.36",WebKit,Chrome,94.0.4606.61,Windows,10.0,fe3c1d035a65c549f7011c5446f73ede
16,1,742.2999999523163,arrowleft,psychophysics,66,165786,0.0-3.0-0.31,"""",key,arrowleft,16.658704545454714,768,361,32,2,-1,25,15,25,35,true,"2021-10-03 01:19:55",99.232.133.236,"Mozilla/5.0 (Windows NT 10.0; Win64; x64) AppleWebKit/537.36 (KHTML, like Gecko) Chrome/94.0.4606.61 Safari/537.36",WebKit,Chrome,94.0.4606.61,Windows,10.0,fe3c1d035a65c549f7011c5446f73ede
16,1,null,null,psychophysics,67,166789,0.0-3.0-1.31,"""",key,null,16.659322033898206,768,361,"""","""","""","""","""","""","""","""","2021-10-03 01:19:55",99.232.133.236,"Mozilla/5.0 (Windows NT 10.0; Win64; x64) AppleWebKit/537.36 (KHTML, like Gecko) Chrome/94.0.4606.61 Safari/537.36",WebKit,Chrome,94.0.4606.61,Windows,10.0,fe3c1d035a65c549f7011c5446f73ede
16,1,553.3999998569489,arrowright,psychophysics,68,167345,0.0-3.0-0.32,"""",key,arrowright,16.657187499999964,768,361,33,2,1,30,15,25,35,true,"2021-10-03 01:19:55",99.232.133.236,"Mozilla/5.0 (Windows NT 10.0; Win64; x64) AppleWebKit/537.36 (KHTML, like Gecko) Chrome/94.0.4606.61 Safari/537.36",WebKit,Chrome,94.0.4606.61,Windows,10.0,fe3c1d035a65c549f7011c5446f73ede
16,1,null,null,psychophysics,69,168348,0.0-3.0-1.32,"""",key,null,16.659305084745352,768,361,"""","""","""","""","""","""","""","""","2021-10-03 01:19:55",99.232.133.236,"Mozilla/5.0 (Windows NT 10.0; Win64; x64) AppleWebKit/537.36 (KHTML, like Gecko) Chrome/94.0.4606.61 Safari/537.36",WebKit,Chrome,94.0.4606.61,Windows,10.0,fe3c1d035a65c549f7011c5446f73ede
16,1,816,arrowleft,psychophysics,70,169165,0.0-3.0-0.33,"""",key,arrowleft,16.656687500000164,768,361,34,2,1,20,15,25,35,false,"2021-10-03 01:19:55",99.232.133.236,"Mozilla/5.0 (Windows NT 10.0; Win64; x64) AppleWebKit/537.36 (KHTML, like Gecko) Chrome/94.0.4606.61 Safari/537.36",WebKit,Chrome,94.0.4606.61,Windows,10.0,fe3c1d035a65c549f7011c5446f73ede
16,1,null,null,psychophysics,71,170167,0.0-3.0-1.33,"""",key,null,16.657816666666864,768,361,"""","""","""","""","""","""","""","""","2021-10-03 01:19:55",99.232.133.236,"Mozilla/5.0 (Windows NT 10.0; Win64; x64) AppleWebKit/537.36 (KHTML, like Gecko) Chrome/94.0.4606.61 Safari/537.36",WebKit,Chrome,94.0.4606.61,Windows,10.0,fe3c1d035a65c549f7011c5446f73ede
16,1,850.1000001430511,arrowright,psychophysics,72,171022,0.0-3.0-0.34,"""",key,arrowright,16.657719999999973,768,361,35,2,1,27,35,25,35,true,"2021-10-03 01:19:55",99.232.133.236,"Mozilla/5.0 (Windows NT 10.0; Win64; x64) AppleWebKit/537.36 (KHTML, like Gecko) Chrome/94.0.4606.61 Safari/537.36",WebKit,Chrome,94.0.4606.61,Windows,10.0,fe3c1d035a65c549f7011c5446f73ede
16,1,null,null,psychophysics,73,172024,0.0-3.0-1.34,"""",key,null,16.65772881355902,768,361,"""","""","""","""","""","""","""","""","2021-10-03 01:19:55",99.232.133.236,"Mozilla/5.0 (Windows NT 10.0; Win64; x64) AppleWebKit/537.36 (KHTML, like Gecko) Chrome/94.0.4606.61 Safari/537.36",WebKit,Chrome,94.0.4606.61,Windows,10.0,fe3c1d035a65c549f7011c5446f73ede
16,1,3512.699999809265,arrowleft,psychophysics,74,175539,0.0-3.0-0.35,"""",key,arrowleft,16.658604761904627,768,361,36,2,1,25,35,25,35,false,"2021-10-03 01:19:55",99.232.133.236,"Mozilla/5.0 (Windows NT 10.0; Win64; x64) AppleWebKit/537.36 (KHTML, like Gecko) Chrome/94.0.4606.61 Safari/537.36",WebKit,Chrome,94.0.4606.61,Windows,10.0,fe3c1d035a65c549f7011c5446f73ede
16,1,null,null,psychophysics,75,176542,0.0-3.0-1.35,"""",key,null,16.65918644067784,768,361,"""","""","""","""","""","""","""","""","2021-10-03 01:19:55",99.232.133.236,"Mozilla/5.0 (Windows NT 10.0; Win64; x64) AppleWebKit/537.36 (KHTML, like Gecko) Chrome/94.0.4606.61 Safari/537.36",WebKit,Chrome,94.0.4606.61,Windows,10.0,fe3c1d035a65c549f7011c5446f73ede
16,1,1151.2999999523163,arrowright,psychophysics,76,177697,0.0-3.0-0.36,"""",key,arrowright,16.659695652173916,768,361,37,2,1,26,15,25,35,true,"2021-10-03 01:19:55",99.232.133.236,"Mozilla/5.0 (Windows NT 10.0; Win64; x64) AppleWebKit/537.36 (KHTML, like Gecko) Chrome/94.0.4606.61 Safari/537.36",WebKit,Chrome,94.0.4606.61,Windows,10.0,fe3c1d035a65c549f7011c5446f73ede
16,1,null,null,psychophysics,77,178698,0.0-3.0-1.36,"""",key,null,16.657288135593202,768,361,"""","""","""","""","""","""","""","""","2021-10-03 01:19:55",99.232.133.236,"Mozilla/5.0 (Windows NT 10.0; Win64; x64) AppleWebKit/537.36 (KHTML, like Gecko) Chrome/94.0.4606.61 Safari/537.36",WebKit,Chrome,94.0.4606.61,Windows,10.0,fe3c1d035a65c549f7011c5446f73ede
16,1,784.7000000476837,arrowleft,psychophysics,78,179485,0.0-3.0-0.37,"""",key,arrowleft,16.657695652173615,768,361,38,2,-1,25,15,25,35,true,"2021-10-03 01:19:55",99.232.133.236,"Mozilla/5.0 (Windows NT 10.0; Win64; x64) AppleWebKit/537.36 (KHTML, like Gecko) Chrome/94.0.4606.61 Safari/537.36",WebKit,Chrome,94.0.4606.61,Windows,10.0,fe3c1d035a65c549f7011c5446f73ede
16,1,null,null,psychophysics,79,180487,0.0-3.0-1.37,"""",key,null,16.659237288135415,768,361,"""","""","""","""","""","""","""","""","2021-10-03 01:19:55",99.232.133.236,"Mozilla/5.0 (Windows NT 10.0; Win64; x64) AppleWebKit/537.36 (KHTML, like Gecko) Chrome/94.0.4606.61 Safari/537.36",WebKit,Chrome,94.0.4606.61,Windows,10.0,fe3c1d035a65c549f7011c5446f73ede
16,1,818.2999999523163,arrowleft,psychophysics,80,181308,0.0-3.0-0.38,"""",key,arrowleft,16.657624999999825,768,361,39,2,-1,24,15,25,35,true,"2021-10-03 01:19:55",99.232.133.236,"Mozilla/5.0 (Windows NT 10.0; Win64; x64) AppleWebKit/537.36 (KHTML, like Gecko) Chrome/94.0.4606.61 Safari/537.36",WebKit,Chrome,94.0.4606.61,Windows,10.0,fe3c1d035a65c549f7011c5446f73ede
16,1,null,null,psychophysics,81,182309,0.0-3.0-1.38,"""",key,null,16.658366666666794,768,361,"""","""","""","""","""","""","""","""","2021-10-03 01:19:55",99.232.133.236,"Mozilla/5.0 (Windows NT 10.0; Win64; x64) AppleWebKit/537.36 (KHTML, like Gecko) Chrome/94.0.4606.61 Safari/537.36",WebKit,Chrome,94.0.4606.61,Windows,10.0,fe3c1d035a65c549f7011c5446f73ede
16,1,857.0999999046326,arrowright,psychophysics,82,183170,0.0-3.0-0.39,"""",key,arrowright,16.65804000000004,768,361,40,2,1,27,35,25,35,true,"2021-10-03 01:19:55",99.232.133.236,"Mozilla/5.0 (Windows NT 10.0; Win64; x64) AppleWebKit/537.36 (KHTML, like Gecko) Chrome/94.0.4606.61 Safari/537.36",WebKit,Chrome,94.0.4606.61,Windows,10.0,fe3c1d035a65c549f7011c5446f73ede
16,1,null,null,psychophysics,83,184171,0.0-3.0-1.39,"""",key,null,16.659067796609833,768,361,"""","""","""","""","""","""","""","""","2021-10-03 01:19:55",99.232.133.236,"Mozilla/5.0 (Windows NT 10.0; Win64; x64) AppleWebKit/537.36 (KHTML, like Gecko) Chrome/94.0.4606.61 Safari/537.36",WebKit,Chrome,94.0.4606.61,Windows,10.0,fe3c1d035a65c549f7011c5446f73ede
16,1,2582.7000000476837,arrowright,psychophysics,84,186756,0.0-3.0-0.40,"""",key,arrowright,16.658194805194764,768,361,41,2,1,27,15,25,35,true,"2021-10-03 01:19:55",99.232.133.236,"Mozilla/5.0 (Windows NT 10.0; Win64; x64) AppleWebKit/537.36 (KHTML, like Gecko) Chrome/94.0.4606.61 Safari/537.36",WebKit,Chrome,94.0.4606.61,Windows,10.0,fe3c1d035a65c549f7011c5446f73ede
16,1,null,null,psychophysics,85,187756,0.0-3.0-1.40,"""",key,null,16.65876271186438,768,361,"""","""","""","""","""","""","""","""","2021-10-03 01:19:55",99.232.133.236,"Mozilla/5.0 (Windows NT 10.0; Win64; x64) AppleWebKit/537.36 (KHTML, like Gecko) Chrome/94.0.4606.61 Safari/537.36",WebKit,Chrome,94.0.4606.61,Windows,10.0,fe3c1d035a65c549f7011c5446f73ede
16,1,1481.7999999523163,arrowleft,psychophysics,86,189241,0.0-3.0-0.41,"""",key,arrowleft,16.65883146067414,768,361,42,2,-1,27,35,25,35,true,"2021-10-03 01:19:55",99.232.133.236,"Mozilla/5.0 (Windows NT 10.0; Win64; x64) AppleWebKit/537.36 (KHTML, like Gecko) Chrome/94.0.4606.61 Safari/537.36",WebKit,Chrome,94.0.4606.61,Windows,10.0,fe3c1d035a65c549f7011c5446f73ede
16,1,null,null,psychophysics,87,190245,0.0-3.0-1.41,"""",key,null,16.658576271186437,768,361,"""","""","""","""","""","""","""","""","2021-10-03 01:19:55",99.232.133.236,"Mozilla/5.0 (Windows NT 10.0; Win64; x64) AppleWebKit/537.36 (KHTML, like Gecko) Chrome/94.0.4606.61 Safari/537.36",WebKit,Chrome,94.0.4606.61,Windows,10.0,fe3c1d035a65c549f7011c5446f73ede
16,1,3379,arrowleft,psychophysics,88,193626,0.0-3.0-0.42,"""",key,arrowleft,16.658500000000107,768,361,43,2,1,23,35,25,35,false,"2021-10-03 01:19:55",99.232.133.236,"Mozilla/5.0 (Windows NT 10.0; Win64; x64) AppleWebKit/537.36 (KHTML, like Gecko) Chrome/94.0.4606.61 Safari/537.36",WebKit,Chrome,94.0.4606.61,Windows,10.0,fe3c1d035a65c549f7011c5446f73ede
16,1,null,null,psychophysics,89,194627,0.0-3.0-1.42,"""",key,null,16.657881355932243,768,361,"""","""","""","""","""","""","""","""","2021-10-03 01:19:55",99.232.133.236,"Mozilla/5.0 (Windows NT 10.0; Win64; x64) AppleWebKit/537.36 (KHTML, like Gecko) Chrome/94.0.4606.61 Safari/537.36",WebKit,Chrome,94.0.4606.61,Windows,10.0,fe3c1d035a65c549f7011c5446f73ede
16,1,1341.6000001430511,arrowright,psychophysics,90,195972,0.0-3.0-0.43,"""",key,arrowright,16.65827500000014,768,361,44,2,-1,20,35,25,35,false,"2021-10-03 01:19:55",99.232.133.236,"Mozilla/5.0 (Windows NT 10.0; Win64; x64) AppleWebKit/537.36 (KHTML, like Gecko) Chrome/94.0.4606.61 Safari/537.36",WebKit,Chrome,94.0.4606.61,Windows,10.0,fe3c1d035a65c549f7011c5446f73ede
16,1,null,null,psychophysics,91,196974,0.0-3.0-1.43,"""",key,null,16.657830508474667,768,361,"""","""","""","""","""","""","""","""","2021-10-03 01:19:55",99.232.133.236,"Mozilla/5.0 (Windows NT 10.0; Win64; x64) AppleWebKit/537.36 (KHTML, like Gecko) Chrome/94.0.4606.61 Safari/537.36",WebKit,Chrome,94.0.4606.61,Windows,10.0,fe3c1d035a65c549f7011c5446f73ede
16,1,1570.7999999523163,arrowright,psychophysics,92,198548,0.0-3.0-0.44,"""",key,arrowright,16.65803225806436,768,361,45,2,-1,20,35,25,35,false,"2021-10-03 01:19:55",99.232.133.236,"Mozilla/5.0 (Windows NT 10.0; Win64; x64) AppleWebKit/537.36 (KHTML, like Gecko) Chrome/94.0.4606.61 Safari/537.36",WebKit,Chrome,94.0.4606.61,Windows,10.0,fe3c1d035a65c549f7011c5446f73ede
16,1,null,null,psychophysics,93,199549,0.0-3.0-1.44,"""",key,null,16.657661016949085,768,361,"""","""","""","""","""","""","""","""","2021-10-03 01:19:55",99.232.133.236,"Mozilla/5.0 (Windows NT 10.0; Win64; x64) AppleWebKit/537.36 (KHTML, like Gecko) Chrome/94.0.4606.61 Safari/537.36",WebKit,Chrome,94.0.4606.61,Windows,10.0,fe3c1d035a65c549f7011c5446f73ede
16,1,2602.7000000476837,arrowleft,psychophysics,94,202153,0.0-3.0-0.45,"""",key,arrowleft,16.658320512820538,768,361,46,2,1,23,35,25,35,false,"2021-10-03 01:19:55",99.232.133.236,"Mozilla/5.0 (Windows NT 10.0; Win64; x64) AppleWebKit/537.36 (KHTML, like Gecko) Chrome/94.0.4606.61 Safari/537.36",WebKit,Chrome,94.0.4606.61,Windows,10.0,fe3c1d035a65c549f7011c5446f73ede
16,1,null,null,psychophysics,95,203156,0.0-3.0-1.45,"""",key,null,16.65835593220328,768,361,"""","""","""","""","""","""","""","""","2021-10-03 01:19:55",99.232.133.236,"Mozilla/5.0 (Windows NT 10.0; Win64; x64) AppleWebKit/537.36 (KHTML, like Gecko) Chrome/94.0.4606.61 Safari/537.36",WebKit,Chrome,94.0.4606.61,Windows,10.0,fe3c1d035a65c549f7011c5446f73ede
16,1,2294.7000000476837,arrowleft,psychophysics,96,205453,0.0-3.0-0.46,"""",key,arrowleft,16.65854014598541,768,361,47,2,-1,23,15,25,35,true,"2021-10-03 01:19:55",99.232.133.236,"Mozilla/5.0 (Windows NT 10.0; Win64; x64) AppleWebKit/537.36 (KHTML, like Gecko) Chrome/94.0.4606.61 Safari/537.36",WebKit,Chrome,94.0.4606.61,Windows,10.0,fe3c1d035a65c549f7011c5446f73ede
16,1,null,null,psychophysics,97,206454,0.0-3.0-1.46,"""",key,null,16.65933898305106,768,361,"""","""","""","""","""","""","""","""","2021-10-03 01:19:55",99.232.133.236,"Mozilla/5.0 (Windows NT 10.0; Win64; x64) AppleWebKit/537.36 (KHTML, like Gecko) Chrome/94.0.4606.61 Safari/537.36",WebKit,Chrome,94.0.4606.61,Windows,10.0,fe3c1d035a65c549f7011c5446f73ede
16,1,1225.1999998092651,arrowright,psychophysics,98,207682,0.0-3.0-0.47,"""",key,arrowright,16.658082191780537,768,361,48,2,1,30,35,25,35,true,"2021-10-03 01:19:55",99.232.133.236,"Mozilla/5.0 (Windows NT 10.0; Win64; x64) AppleWebKit/537.36 (KHTML, like Gecko) Chrome/94.0.4606.61 Safari/537.36",WebKit,Chrome,94.0.4606.61,Windows,10.0,fe3c1d035a65c549f7011c5446f73ede
16,1,null,null,psychophysics,99,208685,0.0-3.0-1.47,"""",key,null,16.658830508474317,768,361,"""","""","""","""","""","""","""","""","2021-10-03 01:19:55",99.232.133.236,"Mozilla/5.0 (Windows NT 10.0; Win64; x64) AppleWebKit/537.36 (KHTML, like Gecko) Chrome/94.0.4606.61 Safari/537.36",WebKit,Chrome,94.0.4606.61,Windows,10.0,fe3c1d035a65c549f7011c5446f73ede
16,1,1154.4000000953674,arrowleft,psychophysics,100,209842,0.0-3.0-0.48,"""",key,arrowleft,16.657985294117893,768,361,49,2,-1,30,35,25,35,true,"2021-10-03 01:19:55",99.232.133.236,"Mozilla/5.0 (Windows NT 10.0; Win64; x64) AppleWebKit/537.36 (KHTML, like Gecko) Chrome/94.0.4606.61 Safari/537.36",WebKit,Chrome,94.0.4606.61,Windows,10.0,fe3c1d035a65c549f7011c5446f73ede
16,1,null,null,psychophysics,101,210844,0.0-3.0-1.48,"""",key,null,16.659288135593485,768,361,"""","""","""","""","""","""","""","""","2021-10-03 01:19:55",99.232.133.236,"Mozilla/5.0 (Windows NT 10.0; Win64; x64) AppleWebKit/537.36 (KHTML, like Gecko) Chrome/94.0.4606.61 Safari/537.36",WebKit,Chrome,94.0.4606.61,Windows,10.0,fe3c1d035a65c549f7011c5446f73ede
16,1,1321.7000000476837,arrowright,psychophysics,102,212168,0.0-3.0-0.49,"""",key,arrowright,16.658620253164408,768,361,50,2,-1,20,15,25,35,false,"2021-10-03 01:19:55",99.232.133.236,"Mozilla/5.0 (Windows NT 10.0; Win64; x64) AppleWebKit/537.36 (KHTML, like Gecko) Chrome/94.0.4606.61 Safari/537.36",WebKit,Chrome,94.0.4606.61,Windows,10.0,fe3c1d035a65c549f7011c5446f73ede
16,1,null,null,psychophysics,103,213170,0.0-3.0-1.49,"""",key,null,16.659152542373118,768,361,"""","""","""","""","""","""","""","""","2021-10-03 01:19:55",99.232.133.236,"Mozilla/5.0 (Windows NT 10.0; Win64; x64) AppleWebKit/537.36 (KHTML, like Gecko) Chrome/94.0.4606.61 Safari/537.36",WebKit,Chrome,94.0.4606.61,Windows,10.0,fe3c1d035a65c549f7011c5446f73ede
16,1,2574.7999999523163,arrowright,psychophysics,104,215747,0.0-3.0-0.50,"""",key,arrowright,16.65820129870119,768,361,51,2,-1,23,35,25,35,false,"2021-10-03 01:19:55",99.232.133.236,"Mozilla/5.0 (Windows NT 10.0; Win64; x64) AppleWebKit/537.36 (KHTML, like Gecko) Chrome/94.0.4606.61 Safari/537.36",WebKit,Chrome,94.0.4606.61,Windows,10.0,fe3c1d035a65c549f7011c5446f73ede
16,1,null,null,psychophysics,105,216751,0.0-3.0-1.50,"""",key,null,16.65867796610159,768,361,"""","""","""","""","""","""","""","""","2021-10-03 01:19:55",99.232.133.236,"Mozilla/5.0 (Windows NT 10.0; Win64; x64) AppleWebKit/537.36 (KHTML, like Gecko) Chrome/94.0.4606.61 Safari/537.36",WebKit,Chrome,94.0.4606.61,Windows,10.0,fe3c1d035a65c549f7011c5446f73ede
16,1,3013.7000000476837,arrowright,psychophysics,106,219767,0.0-3.0-0.51,"""",key,arrowright,16.65822222222228,768,361,52,2,-1,25,35,25,35,false,"2021-10-03 01:19:55",99.232.133.236,"Mozilla/5.0 (Windows NT 10.0; Win64; x64) AppleWebKit/537.36 (KHTML, like Gecko) Chrome/94.0.4606.61 Safari/537.36",WebKit,Chrome,94.0.4606.61,Windows,10.0,fe3c1d035a65c549f7011c5446f73ede
16,1,null,null,psychophysics,107,220768,0.0-3.0-1.51,"""",key,null,16.65925423728827,768,361,"""","""","""","""","""","""","""","""","2021-10-03 01:19:55",99.232.133.236,"Mozilla/5.0 (Windows NT 10.0; Win64; x64) AppleWebKit/537.36 (KHTML, like Gecko) Chrome/94.0.4606.61 Safari/537.36",WebKit,Chrome,94.0.4606.61,Windows,10.0,fe3c1d035a65c549f7011c5446f73ede
16,1,879,arrowleft,psychophysics,108,221650,0.0-3.0-0.52,"""",key,arrowleft,16.657961538461116,768,361,53,2,1,20,35,25,35,false,"2021-10-03 01:19:55",99.232.133.236,"Mozilla/5.0 (Windows NT 10.0; Win64; x64) AppleWebKit/537.36 (KHTML, like Gecko) Chrome/94.0.4606.61 Safari/537.36",WebKit,Chrome,94.0.4606.61,Windows,10.0,fe3c1d035a65c549f7011c5446f73ede
16,1,null,null,psychophysics,109,222654,0.0-3.0-1.52,"""",key,null,16.657847457627522,768,361,"""","""","""","""","""","""","""","""","2021-10-03 01:19:55",99.232.133.236,"Mozilla/5.0 (Windows NT 10.0; Win64; x64) AppleWebKit/537.36 (KHTML, like Gecko) Chrome/94.0.4606.61 Safari/537.36",WebKit,Chrome,94.0.4606.61,Windows,10.0,fe3c1d035a65c549f7011c5446f73ede
16,1,785.2999999523163,arrowleft,psychophysics,110,223441,0.0-3.0-0.53,"""",key,arrowleft,16.658000000000143,768,361,54,2,-1,26,15,25,35,true,"2021-10-03 01:19:55",99.232.133.236,"Mozilla/5.0 (Windows NT 10.0; Win64; x64) AppleWebKit/537.36 (KHTML, like Gecko) Chrome/94.0.4606.61 Safari/537.36",WebKit,Chrome,94.0.4606.61,Windows,10.0,fe3c1d035a65c549f7011c5446f73ede
16,1,null,null,psychophysics,111,224443,0.0-3.0-1.53,"""",key,null,16.657898305085098,768,361,"""","""","""","""","""","""","""","""","2021-10-03 01:19:55",99.232.133.236,"Mozilla/5.0 (Windows NT 10.0; Win64; x64) AppleWebKit/537.36 (KHTML, like Gecko) Chrome/94.0.4606.61 Safari/537.36",WebKit,Chrome,94.0.4606.61,Windows,10.0,fe3c1d035a65c549f7011c5446f73ede
16,1,1031.5,arrowright,psychophysics,112,225477,0.0-3.0-0.54,"""",key,arrowright,16.659032786885263,768,361,55,2,-1,20,35,25,35,false,"2021-10-03 01:19:55",99.232.133.236,"Mozilla/5.0 (Windows NT 10.0; Win64; x64) AppleWebKit/537.36 (KHTML, like Gecko) Chrome/94.0.4606.61 Safari/537.36",WebKit,Chrome,94.0.4606.61,Windows,10.0,fe3c1d035a65c549f7011c5446f73ede
16,1,null,null,psychophysics,113,226479,0.0-3.0-1.54,"""",key,null,16.658254237288126,768,361,"""","""","""","""","""","""","""","""","2021-10-03 01:19:55",99.232.133.236,"Mozilla/5.0 (Windows NT 10.0; Win64; x64) AppleWebKit/537.36 (KHTML, like Gecko) Chrome/94.0.4606.61 Safari/537.36",WebKit,Chrome,94.0.4606.61,Windows,10.0,fe3c1d035a65c549f7011c5446f73ede
16,1,1063.5999999046326,arrowleft,psychophysics,114,227545,0.0-3.0-0.55,"""",key,arrowleft,16.658539682539413,768,361,56,3,-1,30,15,25,35,true,"2021-10-03 01:19:55",99.232.133.236,"Mozilla/5.0 (Windows NT 10.0; Win64; x64) AppleWebKit/537.36 (KHTML, like Gecko) Chrome/94.0.4606.61 Safari/537.36",WebKit,Chrome,94.0.4606.61,Windows,10.0,fe3c1d035a65c549f7011c5446f73ede
16,1,null,null,psychophysics,115,228548,0.0-3.0-1.55,"""",key,null,16.659423728813852,768,361,"""","""","""","""","""","""","""","""","2021-10-03 01:19:55",99.232.133.236,"Mozilla/5.0 (Windows NT 10.0; Win64; x64) AppleWebKit/537.36 (KHTML, like Gecko) Chrome/94.0.4606.61 Safari/537.36",WebKit,Chrome,94.0.4606.61,Windows,10.0,fe3c1d035a65c549f7011c5446f73ede
16,1,16753.5,d,html-keyboard-response,116,245302,0.0-3.0-2.55-0.55,"<div style=""color: white; text-align: center; vertical-align: top; display: inline-block; width: 800px; margin: auto""><p>You have completed 20% of the trials. You are on block 3 of 10. <br>Good job! Take a break if you need to.</p><p>Press any key to continue the experiment.</p></div>","""","""","""","""","""","""","""","""","""","""","""","""","""","2021-10-03 01:19:55",99.232.133.236,"Mozilla/5.0 (Windows NT 10.0; Win64; x64) AppleWebKit/537.36 (KHTML, like Gecko) Chrome/94.0.4606.61 Safari/537.36",WebKit,Chrome,94.0.4606.61,Windows,10.0,fe3c1d035a65c549f7011c5446f73ede
16,1,4897.100000143051,arrowleft,psychophysics,117,251204,0.0-3.0-0.56,"""",key,arrowleft,16.6584285714285,768,361,57,3,1,23,15,25,35,false,"2021-10-03 01:19:55",99.232.133.236,"Mozilla/5.0 (Windows NT 10.0; Win64; x64) AppleWebKit/537.36 (KHTML, like Gecko) Chrome/94.0.4606.61 Safari/537.36",WebKit,Chrome,94.0.4606.61,Windows,10.0,fe3c1d035a65c549f7011c5446f73ede
16,1,null,null,psychophysics,118,252207,0.0-3.0-1.56,"""",key,null,16.6581864406777,768,361,"""","""","""","""","""","""","""","""","2021-10-03 01:19:55",99.232.133.236,"Mozilla/5.0 (Windows NT 10.0; Win64; x64) AppleWebKit/537.36 (KHTML, like Gecko) Chrome/94.0.4606.61 Safari/537.36",WebKit,Chrome,94.0.4606.61,Windows,10.0,fe3c1d035a65c549f7011c5446f73ede
16,1,1176,arrowright,psychophysics,119,253387,0.0-3.0-0.57,"""",key,arrowright,16.657100000000042,768,361,58,3,1,25,15,25,35,true,"2021-10-03 01:19:55",99.232.133.236,"Mozilla/5.0 (Windows NT 10.0; Win64; x64) AppleWebKit/537.36 (KHTML, like Gecko) Chrome/94.0.4606.61 Safari/537.36",WebKit,Chrome,94.0.4606.61,Windows,10.0,fe3c1d035a65c549f7011c5446f73ede
16,1,null,null,psychophysics,120,254388,0.0-3.0-1.57,"""",key,null,16.658254237288126,768,361,"""","""","""","""","""","""","""","""","2021-10-03 01:19:55",99.232.133.236,"Mozilla/5.0 (Windows NT 10.0; Win64; x64) AppleWebKit/537.36 (KHTML, like Gecko) Chrome/94.0.4606.61 Safari/537.36",WebKit,Chrome,94.0.4606.61,Windows,10.0,fe3c1d035a65c549f7011c5446f73ede
16,1,911.0999999046326,arrowleft,psychophysics,121,255301,0.0-3.0-0.58,"""",key,arrowleft,16.658296296296477,768,361,59,3,-1,27,15,25,35,true,"2021-10-03 01:19:55",99.232.133.236,"Mozilla/5.0 (Windows NT 10.0; Win64; x64) AppleWebKit/537.36 (KHTML, like Gecko) Chrome/94.0.4606.61 Safari/537.36",WebKit,Chrome,94.0.4606.61,Windows,10.0,fe3c1d035a65c549f7011c5446f73ede
16,1,null,null,psychophysics,122,256302,0.0-3.0-1.58,"""",key,null,16.658576271186437,768,361,"""","""","""","""","""","""","""","""","2021-10-03 01:19:55",99.232.133.236,"Mozilla/5.0 (Windows NT 10.0; Win64; x64) AppleWebKit/537.36 (KHTML, like Gecko) Chrome/94.0.4606.61 Safari/537.36",WebKit,Chrome,94.0.4606.61,Windows,10.0,fe3c1d035a65c549f7011c5446f73ede
16,1,3338.699999809265,arrowleft,psychophysics,123,259644,0.0-3.0-0.59,"""",key,arrowleft,16.658359999999956,768,361,60,3,1,23,15,25,35,false,"2021-10-03 01:19:55",99.232.133.236,"Mozilla/5.0 (Windows NT 10.0; Win64; x64) AppleWebKit/537.36 (KHTML, like Gecko) Chrome/94.0.4606.61 Safari/537.36",WebKit,Chrome,94.0.4606.61,Windows,10.0,fe3c1d035a65c549f7011c5446f73ede
16,1,null,null,psychophysics,124,260646,0.0-3.0-1.59,"""",key,null,16.658406779661348,768,361,"""","""","""","""","""","""","""","""","2021-10-03 01:19:55",99.232.133.236,"Mozilla/5.0 (Windows NT 10.0; Win64; x64) AppleWebKit/537.36 (KHTML, like Gecko) Chrome/94.0.4606.61 Safari/537.36",WebKit,Chrome,94.0.4606.61,Windows,10.0,fe3c1d035a65c549f7011c5446f73ede
16,1,1406.5999999046326,arrowright,psychophysics,125,262055,0.0-3.0-0.60,"""",key,arrowright,16.65895238095185,768,361,61,3,1,26,15,25,35,true,"2021-10-03 01:19:55",99.232.133.236,"Mozilla/5.0 (Windows NT 10.0; Win64; x64) AppleWebKit/537.36 (KHTML, like Gecko) Chrome/94.0.4606.61 Safari/537.36",WebKit,Chrome,94.0.4606.61,Windows,10.0,fe3c1d035a65c549f7011c5446f73ede
16,1,null,null,psychophysics,126,263056,0.0-3.0-1.60,"""",key,null,16.65772881355902,768,361,"""","""","""","""","""","""","""","""","2021-10-03 01:19:55",99.232.133.236,"Mozilla/5.0 (Windows NT 10.0; Win64; x64) AppleWebKit/537.36 (KHTML, like Gecko) Chrome/94.0.4606.61 Safari/537.36",WebKit,Chrome,94.0.4606.61,Windows,10.0,fe3c1d035a65c549f7011c5446f73ede
16,1,2400.399999856949,arrowleft,psychophysics,127,265460,0.0-3.0-0.61,"""",key,arrowleft,16.658979020978997,768,361,62,3,-1,24,15,25,35,true,"2021-10-03 01:19:55",99.232.133.236,"Mozilla/5.0 (Windows NT 10.0; Win64; x64) AppleWebKit/537.36 (KHTML, like Gecko) Chrome/94.0.4606.61 Safari/537.36",WebKit,Chrome,94.0.4606.61,Windows,10.0,fe3c1d035a65c549f7011c5446f73ede
16,1,null,null,psychophysics,128,266463,0.0-3.0-1.61,"""",key,null,16.65854237288122,768,361,"""","""","""","""","""","""","""","""","2021-10-03 01:19:55",99.232.133.236,"Mozilla/5.0 (Windows NT 10.0; Win64; x64) AppleWebKit/537.36 (KHTML, like Gecko) Chrome/94.0.4606.61 Safari/537.36",WebKit,Chrome,94.0.4606.61,Windows,10.0,fe3c1d035a65c549f7011c5446f73ede
16,1,929.7000000476837,arrowright,psychophysics,129,267397,0.0-3.0-0.62,"""",key,arrowright,16.658072727273048,768,361,63,3,1,30,15,25,35,true,"2021-10-03 01:19:55",99.232.133.236,"Mozilla/5.0 (Windows NT 10.0; Win64; x64) AppleWebKit/537.36 (KHTML, like Gecko) Chrome/94.0.4606.61 Safari/537.36",WebKit,Chrome,94.0.4606.61,Windows,10.0,fe3c1d035a65c549f7011c5446f73ede
16,1,null,null,psychophysics,130,268399,0.0-3.0-1.62,"""",key,null,16.65923728813591,768,361,"""","""","""","""","""","""","""","""","2021-10-03 01:19:55",99.232.133.236,"Mozilla/5.0 (Windows NT 10.0; Win64; x64) AppleWebKit/537.36 (KHTML, like Gecko) Chrome/94.0.4606.61 Safari/537.36",WebKit,Chrome,94.0.4606.61,Windows,10.0,fe3c1d035a65c549f7011c5446f73ede
16,1,754.6000001430511,arrowleft,psychophysics,131,269156,0.0-3.0-0.63,"""",key,arrowleft,16.65853333333378,768,361,64,3,1,20,35,25,35,false,"2021-10-03 01:19:55",99.232.133.236,"Mozilla/5.0 (Windows NT 10.0; Win64; x64) AppleWebKit/537.36 (KHTML, like Gecko) Chrome/94.0.4606.61 Safari/537.36",WebKit,Chrome,94.0.4606.61,Windows,10.0,fe3c1d035a65c549f7011c5446f73ede
16,1,null,null,psychophysics,132,270158,0.0-3.0-1.63,"""",key,null,16.659542372881365,768,361,"""","""","""","""","""","""","""","""","2021-10-03 01:19:55",99.232.133.236,"Mozilla/5.0 (Windows NT 10.0; Win64; x64) AppleWebKit/537.36 (KHTML, like Gecko) Chrome/94.0.4606.61 Safari/537.36",WebKit,Chrome,94.0.4606.61,Windows,10.0,fe3c1d035a65c549f7011c5446f73ede
16,1,894.5,arrowright,psychophysics,133,271055,0.0-3.0-0.64,"""",key,arrowright,16.658094339621833,768,361,65,3,1,27,15,25,35,true,"2021-10-03 01:19:55",99.232.133.236,"Mozilla/5.0 (Windows NT 10.0; Win64; x64) AppleWebKit/537.36 (KHTML, like Gecko) Chrome/94.0.4606.61 Safari/537.36",WebKit,Chrome,94.0.4606.61,Windows,10.0,fe3c1d035a65c549f7011c5446f73ede
16,1,null,null,psychophysics,134,272058,0.0-3.0-1.64,"""",key,null,16.658847457626678,768,361,"""","""","""","""","""","""","""","""","2021-10-03 01:19:55",99.232.133.236,"Mozilla/5.0 (Windows NT 10.0; Win64; x64) AppleWebKit/537.36 (KHTML, like Gecko) Chrome/94.0.4606.61 Safari/537.36",WebKit,Chrome,94.0.4606.61,Windows,10.0,fe3c1d035a65c549f7011c5446f73ede
16,1,881,arrowright,psychophysics,135,272942,0.0-3.0-0.65,"""",key,arrowright,16.657423076922825,768,361,66,3,-1,23,35,25,35,false,"2021-10-03 01:19:55",99.232.133.236,"Mozilla/5.0 (Windows NT 10.0; Win64; x64) AppleWebKit/537.36 (KHTML, like Gecko) Chrome/94.0.4606.61 Safari/537.36",WebKit,Chrome,94.0.4606.61,Windows,10.0,fe3c1d035a65c549f7011c5446f73ede
16,1,null,null,psychophysics,136,273943,0.0-3.0-1.65,"""",key,null,16.65859322033929,768,361,"""","""","""","""","""","""","""","""","2021-10-03 01:19:55",99.232.133.236,"Mozilla/5.0 (Windows NT 10.0; Win64; x64) AppleWebKit/537.36 (KHTML, like Gecko) Chrome/94.0.4606.61 Safari/537.36",WebKit,Chrome,94.0.4606.61,Windows,10.0,fe3c1d035a65c549f7011c5446f73ede
16,1,1947.2999999523163,arrowright,psychophysics,137,275892,0.0-3.0-0.66,"""",key,arrowright,16.65864655172406,768,361,67,3,-1,20,15,25,35,false,"2021-10-03 01:19:55",99.232.133.236,"Mozilla/5.0 (Windows NT 10.0; Win64; x64) AppleWebKit/537.36 (KHTML, like Gecko) Chrome/94.0.4606.61 Safari/537.36",WebKit,Chrome,94.0.4606.61,Windows,10.0,fe3c1d035a65c549f7011c5446f73ede
16,1,null,null,psychophysics,138,276893,0.0-3.0-1.66,"""",key,null,16.65893220338947,768,361,"""","""","""","""","""","""","""","""","2021-10-03 01:19:55",99.232.133.236,"Mozilla/5.0 (Windows NT 10.0; Win64; x64) AppleWebKit/537.36 (KHTML, like Gecko) Chrome/94.0.4606.61 Safari/537.36",WebKit,Chrome,94.0.4606.61,Windows,10.0,fe3c1d035a65c549f7011c5446f73ede
16,1,1762.9000000953674,arrowright,psychophysics,139,278660,0.0-3.0-0.67,"""",key,arrowright,16.657828571428436,768,361,68,3,1,30,15,25,35,true,"2021-10-03 01:19:55",99.232.133.236,"Mozilla/5.0 (Windows NT 10.0; Win64; x64) AppleWebKit/537.36 (KHTML, like Gecko) Chrome/94.0.4606.61 Safari/537.36",WebKit,Chrome,94.0.4606.61,Windows,10.0,fe3c1d035a65c549f7011c5446f73ede
16,1,null,null,psychophysics,140,279662,0.0-3.0-1.67,"""",key,null,16.65864999999952,768,361,"""","""","""","""","""","""","""","""","2021-10-03 01:19:55",99.232.133.236,"Mozilla/5.0 (Windows NT 10.0; Win64; x64) AppleWebKit/537.36 (KHTML, like Gecko) Chrome/94.0.4606.61 Safari/537.36",WebKit,Chrome,94.0.4606.61,Windows,10.0,fe3c1d035a65c549f7011c5446f73ede
16,1,1766,arrowleft,psychophysics,141,281431,0.0-3.0-0.68,"""",key,arrowleft,16.658285714285668,768,361,69,3,-1,24,15,25,35,true,"2021-10-03 01:19:55",99.232.133.236,"Mozilla/5.0 (Windows NT 10.0; Win64; x64) AppleWebKit/537.36 (KHTML, like Gecko) Chrome/94.0.4606.61 Safari/537.36",WebKit,Chrome,94.0.4606.61,Windows,10.0,fe3c1d035a65c549f7011c5446f73ede
16,1,null,null,psychophysics,142,282434,0.0-3.0-1.68,"""",key,null,16.6581864406777,768,361,"""","""","""","""","""","""","""","""","2021-10-03 01:19:55",99.232.133.236,"Mozilla/5.0 (Windows NT 10.0; Win64; x64) AppleWebKit/537.36 (KHTML, like Gecko) Chrome/94.0.4606.61 Safari/537.36",WebKit,Chrome,94.0.4606.61,Windows,10.0,fe3c1d035a65c549f7011c5446f73ede
16,1,1527.2999999523163,arrowleft,psychophysics,143,283964,0.0-3.0-0.69,"""",key,arrowleft,16.658439560439618,768,361,70,3,-1,24,15,25,35,true,"2021-10-03 01:19:55",99.232.133.236,"Mozilla/5.0 (Windows NT 10.0; Win64; x64) AppleWebKit/537.36 (KHTML, like Gecko) Chrome/94.0.4606.61 Safari/537.36",WebKit,Chrome,94.0.4606.61,Windows,10.0,fe3c1d035a65c549f7011c5446f73ede
16,1,null,null,psychophysics,144,284968,0.0-3.0-1.69,"""",key,null,16.65798305084838,768,361,"""","""","""","""","""","""","""","""","2021-10-03 01:19:55",99.232.133.236,"Mozilla/5.0 (Windows NT 10.0; Win64; x64) AppleWebKit/537.36 (KHTML, like Gecko) Chrome/94.0.4606.61 Safari/537.36",WebKit,Chrome,94.0.4606.61,Windows,10.0,fe3c1d035a65c549f7011c5446f73ede
16,1,801.9000000953674,arrowright,psychophysics,145,285773,0.0-3.0-0.70,"""",key,arrowright,16.65765957446754,768,361,71,3,1,26,35,25,35,true,"2021-10-03 01:19:55",99.232.133.236,"Mozilla/5.0 (Windows NT 10.0; Win64; x64) AppleWebKit/537.36 (KHTML, like Gecko) Chrome/94.0.4606.61 Safari/537.36",WebKit,Chrome,94.0.4606.61,Windows,10.0,fe3c1d035a65c549f7011c5446f73ede
16,1,null,null,psychophysics,146,286773,0.0-3.0-1.70,"""",key,null,16.658728813559165,768,361,"""","""","""","""","""","""","""","""","2021-10-03 01:19:55",99.232.133.236,"Mozilla/5.0 (Windows NT 10.0; Win64; x64) AppleWebKit/537.36 (KHTML, like Gecko) Chrome/94.0.4606.61 Safari/537.36",WebKit,Chrome,94.0.4606.61,Windows,10.0,fe3c1d035a65c549f7011c5446f73ede
16,1,1290.2999999523163,arrowright,psychophysics,147,288067,0.0-3.0-0.71,"""",key,arrowright,16.658103896103885,768,361,72,3,1,27,35,25,35,true,"2021-10-03 01:19:55",99.232.133.236,"Mozilla/5.0 (Windows NT 10.0; Win64; x64) AppleWebKit/537.36 (KHTML, like Gecko) Chrome/94.0.4606.61 Safari/537.36",WebKit,Chrome,94.0.4606.61,Windows,10.0,fe3c1d035a65c549f7011c5446f73ede
16,1,null,null,psychophysics,148,289069,0.0-3.0-1.71,"""",key,null,16.65830508474521,768,361,"""","""","""","""","""","""","""","""","2021-10-03 01:19:55",99.232.133.236,"Mozilla/5.0 (Windows NT 10.0; Win64; x64) AppleWebKit/537.36 (KHTML, like Gecko) Chrome/94.0.4606.61 Safari/537.36",WebKit,Chrome,94.0.4606.61,Windows,10.0,fe3c1d035a65c549f7011c5446f73ede
16,1,1093.1999998092651,arrowleft,psychophysics,149,290165,0.0-3.0-0.72,"""",key,arrowleft,16.65863076923057,768,361,73,3,1,20,35,25,35,false,"2021-10-03 01:19:55",99.232.133.236,"Mozilla/5.0 (Windows NT 10.0; Win64; x64) AppleWebKit/537.36 (KHTML, like Gecko) Chrome/94.0.4606.61 Safari/537.36",WebKit,Chrome,94.0.4606.61,Windows,10.0,fe3c1d035a65c549f7011c5446f73ede
16,1,null,null,psychophysics,150,291169,0.0-3.0-1.72,"""",key,null,16.659559322033726,768,361,"""","""","""","""","""","""","""","""","2021-10-03 01:19:55",99.232.133.236,"Mozilla/5.0 (Windows NT 10.0; Win64; x64) AppleWebKit/537.36 (KHTML, like Gecko) Chrome/94.0.4606.61 Safari/537.36",WebKit,Chrome,94.0.4606.61,Windows,10.0,fe3c1d035a65c549f7011c5446f73ede
16,1,982.5,arrowright,psychophysics,151,292154,0.0-3.0-0.73,"""",key,arrowright,16.658482758621364,768,361,74,3,1,26,35,25,35,true,"2021-10-03 01:19:55",99.232.133.236,"Mozilla/5.0 (Windows NT 10.0; Win64; x64) AppleWebKit/537.36 (KHTML, like Gecko) Chrome/94.0.4606.61 Safari/537.36",WebKit,Chrome,94.0.4606.61,Windows,10.0,fe3c1d035a65c549f7011c5446f73ede
16,1,null,null,psychophysics,152,293155,0.0-3.0-1.73,"""",key,null,16.658716666666443,768,361,"""","""","""","""","""","""","""","""","2021-10-03 01:19:55",99.232.133.236,"Mozilla/5.0 (Windows NT 10.0; Win64; x64) AppleWebKit/537.36 (KHTML, like Gecko) Chrome/94.0.4606.61 Safari/537.36",WebKit,Chrome,94.0.4606.61,Windows,10.0,fe3c1d035a65c549f7011c5446f73ede
16,1,1071.8999998569489,arrowright,psychophysics,153,294230,0.0-3.0-0.74,"""",key,arrowright,16.65819047619071,768,361,75,3,-1,23,35,25,35,false,"2021-10-03 01:19:55",99.232.133.236,"Mozilla/5.0 (Windows NT 10.0; Win64; x64) AppleWebKit/537.36 (KHTML, like Gecko) Chrome/94.0.4606.61 Safari/537.36",WebKit,Chrome,94.0.4606.61,Windows,10.0,fe3c1d035a65c549f7011c5446f73ede
16,1,null,null,psychophysics,154,295232,0.0-3.0-1.74,"""",key,null,16.658288135593835,768,361,"""","""","""","""","""","""","""","""","2021-10-03 01:19:55",99.232.133.236,"Mozilla/5.0 (Windows NT 10.0; Win64; x64) AppleWebKit/537.36 (KHTML, like Gecko) Chrome/94.0.4606.61 Safari/537.36",WebKit,Chrome,94.0.4606.61,Windows,10.0,fe3c1d035a65c549f7011c5446f73ede
16,1,618.4000000953674,arrowleft,psychophysics,155,295852,0.0-3.0-0.75,"""",key,arrowleft,16.65922222222111,768,361,76,3,-1,27,15,25,35,true,"2021-10-03 01:19:55",99.232.133.236,"Mozilla/5.0 (Windows NT 10.0; Win64; x64) AppleWebKit/537.36 (KHTML, like Gecko) Chrome/94.0.4606.61 Safari/537.36",WebKit,Chrome,94.0.4606.61,Windows,10.0,fe3c1d035a65c549f7011c5446f73ede
16,1,null,null,psychophysics,156,296854,0.0-3.0-1.75,"""",key,null,16.658883333333264,768,361,"""","""","""","""","""","""","""","""","2021-10-03 01:19:55",99.232.133.236,"Mozilla/5.0 (Windows NT 10.0; Win64; x64) AppleWebKit/537.36 (KHTML, like Gecko) Chrome/94.0.4606.61 Safari/537.36",WebKit,Chrome,94.0.4606.61,Windows,10.0,fe3c1d035a65c549f7011c5446f73ede
16,1,816.3000001907349,arrowleft,psychophysics,157,297673,0.0-3.0-0.76,"""",key,arrowleft,16.657749999999698,768,361,77,3,-1,26,15,25,35,true,"2021-10-03 01:19:55",99.232.133.236,"Mozilla/5.0 (Windows NT 10.0; Win64; x64) AppleWebKit/537.36 (KHTML, like Gecko) Chrome/94.0.4606.61 Safari/537.36",WebKit,Chrome,94.0.4606.61,Windows,10.0,fe3c1d035a65c549f7011c5446f73ede
16,1,null,null,psychophysics,158,298674,0.0-3.0-1.76,"""",key,null,16.658813559321956,768,361,"""","""","""","""","""","""","""","""","2021-10-03 01:19:55",99.232.133.236,"Mozilla/5.0 (Windows NT 10.0; Win64; x64) AppleWebKit/537.36 (KHTML, like Gecko) Chrome/94.0.4606.61 Safari/537.36",WebKit,Chrome,94.0.4606.61,Windows,10.0,fe3c1d035a65c549f7011c5446f73ede
16,1,927,arrowleft,psychophysics,159,299604,0.0-3.0-0.77,"""",key,arrowleft,16.659836363635787,768,361,78,3,-1,30,15,25,35,true,"2021-10-03 01:19:55",99.232.133.236,"Mozilla/5.0 (Windows NT 10.0; Win64; x64) AppleWebKit/537.36 (KHTML, like Gecko) Chrome/94.0.4606.61 Safari/537.36",WebKit,Chrome,94.0.4606.61,Windows,10.0,fe3c1d035a65c549f7011c5446f73ede
16,1,null,null,psychophysics,160,300607,0.0-3.0-1.77,"""",key,null,16.65738983050786,768,361,"""","""","""","""","""","""","""","""","2021-10-03 01:19:55",99.232.133.236,"Mozilla/5.0 (Windows NT 10.0; Win64; x64) AppleWebKit/537.36 (KHTML, like Gecko) Chrome/94.0.4606.61 Safari/537.36",WebKit,Chrome,94.0.4606.61,Windows,10.0,fe3c1d035a65c549f7011c5446f73ede
16,1,1499.7999999523163,arrowleft,psychophysics,161,302110,0.0-3.0-0.78,"""",key,arrowleft,16.658561797753066,768,361,79,3,1,23,35,25,35,false,"2021-10-03 01:19:55",99.232.133.236,"Mozilla/5.0 (Windows NT 10.0; Win64; x64) AppleWebKit/537.36 (KHTML, like Gecko) Chrome/94.0.4606.61 Safari/537.36",WebKit,Chrome,94.0.4606.61,Windows,10.0,fe3c1d035a65c549f7011c5446f73ede
16,1,null,null,psychophysics,162,303113,0.0-3.0-1.78,"""",key,null,16.658796610169595,768,361,"""","""","""","""","""","""","""","""","2021-10-03 01:19:55",99.232.133.236,"Mozilla/5.0 (Windows NT 10.0; Win64; x64) AppleWebKit/537.36 (KHTML, like Gecko) Chrome/94.0.4606.61 Safari/537.36",WebKit,Chrome,94.0.4606.61,Windows,10.0,fe3c1d035a65c549f7011c5446f73ede
16,1,2735.9000000953674,arrowright,psychophysics,163,305852,0.0-3.0-0.79,"""",key,arrowright,16.6584512195124,768,361,80,3,-1,23,35,25,35,false,"2021-10-03 01:19:55",99.232.133.236,"Mozilla/5.0 (Windows NT 10.0; Win64; x64) AppleWebKit/537.36 (KHTML, like Gecko) Chrome/94.0.4606.61 Safari/537.36",WebKit,Chrome,94.0.4606.61,Windows,10.0,fe3c1d035a65c549f7011c5446f73ede
16,1,null,null,psychophysics,164,306852,0.0-3.0-1.79,"""",key,null,16.657983050847395,768,361,"""","""","""","""","""","""","""","""","2021-10-03 01:19:55",99.232.133.236,"Mozilla/5.0 (Windows NT 10.0; Win64; x64) AppleWebKit/537.36 (KHTML, like Gecko) Chrome/94.0.4606.61 Safari/537.36",WebKit,Chrome,94.0.4606.61,Windows,10.0,fe3c1d035a65c549f7011c5446f73ede
16,1,992.6000001430511,arrowleft,psychophysics,165,307848,0.0-3.0-0.80,"""",key,arrowleft,16.65776271186473,768,361,81,3,1,20,15,25,35,false,"2021-10-03 01:19:55",99.232.133.236,"Mozilla/5.0 (Windows NT 10.0; Win64; x64) AppleWebKit/537.36 (KHTML, like Gecko) Chrome/94.0.4606.61 Safari/537.36",WebKit,Chrome,94.0.4606.61,Windows,10.0,fe3c1d035a65c549f7011c5446f73ede
16,1,null,null,psychophysics,166,308851,0.0-3.0-1.80,"""",key,null,16.658254237288126,768,361,"""","""","""","""","""","""","""","""","2021-10-03 01:19:55",99.232.133.236,"Mozilla/5.0 (Windows NT 10.0; Win64; x64) AppleWebKit/537.36 (KHTML, like Gecko) Chrome/94.0.4606.61 Safari/537.36",WebKit,Chrome,94.0.4606.61,Windows,10.0,fe3c1d035a65c549f7011c5446f73ede
16,1,955.2000000476837,arrowright,psychophysics,167,309810,0.0-3.0-0.81,"""",key,arrowright,16.657928571428265,768,361,82,3,-1,20,35,25,35,false,"2021-10-03 01:19:55",99.232.133.236,"Mozilla/5.0 (Windows NT 10.0; Win64; x64) AppleWebKit/537.36 (KHTML, like Gecko) Chrome/94.0.4606.61 Safari/537.36",WebKit,Chrome,94.0.4606.61,Windows,10.0,fe3c1d035a65c549f7011c5446f73ede
16,1,null,null,psychophysics,168,310811,0.0-3.0-1.81,"""",key,null,16.659423728813852,768,361,"""","""","""","""","""","""","""","""","2021-10-03 01:19:55",99.232.133.236,"Mozilla/5.0 (Windows NT 10.0; Win64; x64) AppleWebKit/537.36 (KHTML, like Gecko) Chrome/94.0.4606.61 Safari/537.36",WebKit,Chrome,94.0.4606.61,Windows,10.0,fe3c1d035a65c549f7011c5446f73ede
16,1,1363.2000000476837,arrowleft,psychophysics,169,312177,0.0-3.0-0.82,"""",key,arrowleft,16.658456790123715,768,361,83,3,-1,27,35,25,35,true,"2021-10-03 01:19:55",99.232.133.236,"Mozilla/5.0 (Windows NT 10.0; Win64; x64) AppleWebKit/537.36 (KHTML, like Gecko) Chrome/94.0.4606.61 Safari/537.36",WebKit,Chrome,94.0.4606.61,Windows,10.0,fe3c1d035a65c549f7011c5446f73ede
16,1,null,null,psychophysics,170,313178,0.0-3.0-1.82,"""",key,null,16.65894915254183,768,361,"""","""","""","""","""","""","""","""","2021-10-03 01:19:55",99.232.133.236,"Mozilla/5.0 (Windows NT 10.0; Win64; x64) AppleWebKit/537.36 (KHTML, like Gecko) Chrome/94.0.4606.61 Safari/537.36",WebKit,Chrome,94.0.4606.61,Windows,10.0,fe3c1d035a65c549f7011c5446f73ede
16,1,1339.5,arrowleft,psychophysics,171,314520,0.0-3.0-0.83,"""",key,arrowleft,16.658987499999785,768,361,84,4,1,23,35,25,35,false,"2021-10-03 01:19:55",99.232.133.236,"Mozilla/5.0 (Windows NT 10.0; Win64; x64) AppleWebKit/537.36 (KHTML, like Gecko) Chrome/94.0.4606.61 Safari/537.36",WebKit,Chrome,94.0.4606.61,Windows,10.0,fe3c1d035a65c549f7011c5446f73ede
16,1,null,null,psychophysics,172,315523,0.0-3.0-1.83,"""",key,null,16.659118644068396,768,361,"""","""","""","""","""","""","""","""","2021-10-03 01:19:55",99.232.133.236,"Mozilla/5.0 (Windows NT 10.0; Win64; x64) AppleWebKit/537.36 (KHTML, like Gecko) Chrome/94.0.4606.61 Safari/537.36",WebKit,Chrome,94.0.4606.61,Windows,10.0,fe3c1d035a65c549f7011c5446f73ede
16,1,164351.89999985695,f,html-keyboard-response,173,479876,0.0-3.0-2.83-0.83,"<div style=""color: white; text-align: center; vertical-align: top; display: inline-block; width: 800px; margin: auto""><p>You have completed 30% of the trials. You are on block 4 of 10. <br>Good job! Take a break if you need to.</p><p>Press any key to continue the experiment.</p></div>","""","""","""","""","""","""","""","""","""","""","""","""","""","2021-10-03 01:19:55",99.232.133.236,"Mozilla/5.0 (Windows NT 10.0; Win64; x64) AppleWebKit/537.36 (KHTML, like Gecko) Chrome/94.0.4606.61 Safari/537.36",WebKit,Chrome,94.0.4606.61,Windows,10.0,fe3c1d035a65c549f7011c5446f73ede
16,1,7674.400000095367,arrowleft,psychophysics,174,488556,0.0-3.0-0.84,"""",key,arrowleft,16.65840087145971,768,361,85,4,1,25,35,25,35,false,"2021-10-03 01:19:55",99.232.133.236,"Mozilla/5.0 (Windows NT 10.0; Win64; x64) AppleWebKit/537.36 (KHTML, like Gecko) Chrome/94.0.4606.61 Safari/537.36",WebKit,Chrome,94.0.4606.61,Windows,10.0,fe3c1d035a65c549f7011c5446f73ede
16,1,null,null,psychophysics,175,489557,0.0-3.0-1.84,"""",key,null,16.657745762711382,768,361,"""","""","""","""","""","""","""","""","2021-10-03 01:19:55",99.232.133.236,"Mozilla/5.0 (Windows NT 10.0; Win64; x64) AppleWebKit/537.36 (KHTML, like Gecko) Chrome/94.0.4606.61 Safari/537.36",WebKit,Chrome,94.0.4606.61,Windows,10.0,fe3c1d035a65c549f7011c5446f73ede
16,1,976.3000001907349,arrowright,psychophysics,176,490539,0.0-3.0-0.85,"""",key,arrowright,16.658534482757737,768,361,86,4,1,30,15,25,35,true,"2021-10-03 01:19:55",99.232.133.236,"Mozilla/5.0 (Windows NT 10.0; Win64; x64) AppleWebKit/537.36 (KHTML, like Gecko) Chrome/94.0.4606.61 Safari/537.36",WebKit,Chrome,94.0.4606.61,Windows,10.0,fe3c1d035a65c549f7011c5446f73ede
16,1,null,null,psychophysics,177,491540,0.0-3.0-1.85,"""",key,null,16.658254237288126,768,361,"""","""","""","""","""","""","""","""","2021-10-03 01:19:55",99.232.133.236,"Mozilla/5.0 (Windows NT 10.0; Win64; x64) AppleWebKit/537.36 (KHTML, like Gecko) Chrome/94.0.4606.61 Safari/537.36",WebKit,Chrome,94.0.4606.61,Windows,10.0,fe3c1d035a65c549f7011c5446f73ede
16,1,5260.200000047684,arrowright,psychophysics,178,496803,0.0-3.0-0.86,"""",key,arrowright,16.658555555555576,768,361,87,4,1,26,35,25,35,true,"2021-10-03 01:19:55",99.232.133.236,"Mozilla/5.0 (Windows NT 10.0; Win64; x64) AppleWebKit/537.36 (KHTML, like Gecko) Chrome/94.0.4606.61 Safari/537.36",WebKit,Chrome,94.0.4606.61,Windows,10.0,fe3c1d035a65c549f7011c5446f73ede
16,1,null,null,psychophysics,179,497805,0.0-3.0-1.86,"""",key,null,16.65834999999982,768,361,"""","""","""","""","""","""","""","""","2021-10-03 01:19:55",99.232.133.236,"Mozilla/5.0 (Windows NT 10.0; Win64; x64) AppleWebKit/537.36 (KHTML, like Gecko) Chrome/94.0.4606.61 Safari/537.36",WebKit,Chrome,94.0.4606.61,Windows,10.0,fe3c1d035a65c549f7011c5446f73ede
16,1,1476.2999999523163,arrowright,psychophysics,180,499283,0.0-3.0-0.87,"""",key,arrowright,16.659000000000486,768,361,88,4,-1,20,35,25,35,false,"2021-10-03 01:19:55",99.232.133.236,"Mozilla/5.0 (Windows NT 10.0; Win64; x64) AppleWebKit/537.36 (KHTML, like Gecko) Chrome/94.0.4606.61 Safari/537.36",WebKit,Chrome,94.0.4606.61,Windows,10.0,fe3c1d035a65c549f7011c5446f73ede
16,1,null,null,psychophysics,181,500284,0.0-3.0-1.87,"""",key,null,16.659067796609342,768,361,"""","""","""","""","""","""","""","""","2021-10-03 01:19:55",99.232.133.236,"Mozilla/5.0 (Windows NT 10.0; Win64; x64) AppleWebKit/537.36 (KHTML, like Gecko) Chrome/94.0.4606.61 Safari/537.36",WebKit,Chrome,94.0.4606.61,Windows,10.0,fe3c1d035a65c549f7011c5446f73ede
16,1,1986.5999999046326,arrowleft,psychophysics,182,502273,0.0-3.0-0.88,"""",key,arrowleft,16.658680672268677,768,361,89,4,1,24,35,25,35,false,"2021-10-03 01:19:55",99.232.133.236,"Mozilla/5.0 (Windows NT 10.0; Win64; x64) AppleWebKit/537.36 (KHTML, like Gecko) Chrome/94.0.4606.61 Safari/537.36",WebKit,Chrome,94.0.4606.61,Windows,10.0,fe3c1d035a65c549f7011c5446f73ede
16,1,null,null,psychophysics,183,503274,0.0-3.0-1.88,"""",key,null,16.658661016949722,768,361,"""","""","""","""","""","""","""","""","2021-10-03 01:19:55",99.232.133.236,"Mozilla/5.0 (Windows NT 10.0; Win64; x64) AppleWebKit/537.36 (KHTML, like Gecko) Chrome/94.0.4606.61 Safari/537.36",WebKit,Chrome,94.0.4606.61,Windows,10.0,fe3c1d035a65c549f7011c5446f73ede
16,1,2773.2000000476837,arrowleft,psychophysics,184,506052,0.0-3.0-0.89,"""",key,arrowleft,16.65834337349382,768,361,90,4,1,24,15,25,35,false,"2021-10-03 01:19:55",99.232.133.236,"Mozilla/5.0 (Windows NT 10.0; Win64; x64) AppleWebKit/537.36 (KHTML, like Gecko) Chrome/94.0.4606.61 Safari/537.36",WebKit,Chrome,94.0.4606.61,Windows,10.0,fe3c1d035a65c549f7011c5446f73ede
16,1,null,null,psychophysics,185,507054,0.0-3.0-1.89,"""",key,null,16.65835593220328,768,361,"""","""","""","""","""","""","""","""","2021-10-03 01:19:55",99.232.133.236,"Mozilla/5.0 (Windows NT 10.0; Win64; x64) AppleWebKit/537.36 (KHTML, like Gecko) Chrome/94.0.4606.61 Safari/537.36",WebKit,Chrome,94.0.4606.61,Windows,10.0,fe3c1d035a65c549f7011c5446f73ede
16,1,1372.5,arrowright,psychophysics,186,508429,0.0-3.0-0.90,"""",key,arrowright,16.657901234567642,768,361,91,4,-1,20,15,25,35,false,"2021-10-03 01:19:55",99.232.133.236,"Mozilla/5.0 (Windows NT 10.0; Win64; x64) AppleWebKit/537.36 (KHTML, like Gecko) Chrome/94.0.4606.61 Safari/537.36",WebKit,Chrome,94.0.4606.61,Windows,10.0,fe3c1d035a65c549f7011c5446f73ede
16,1,null,null,psychophysics,187,509431,0.0-3.0-1.90,"""",key,null,16.6592033898302,768,361,"""","""","""","""","""","""","""","""","2021-10-03 01:19:55",99.232.133.236,"Mozilla/5.0 (Windows NT 10.0; Win64; x64) AppleWebKit/537.36 (KHTML, like Gecko) Chrome/94.0.4606.61 Safari/537.36",WebKit,Chrome,94.0.4606.61,Windows,10.0,fe3c1d035a65c549f7011c5446f73ede
16,1,1413.7999999523163,arrowleft,psychophysics,188,510850,0.0-3.0-0.91,"""",key,arrowleft,16.658435294117698,768,361,92,4,-1,27,15,25,35,true,"2021-10-03 01:19:55",99.232.133.236,"Mozilla/5.0 (Windows NT 10.0; Win64; x64) AppleWebKit/537.36 (KHTML, like Gecko) Chrome/94.0.4606.61 Safari/537.36",WebKit,Chrome,94.0.4606.61,Windows,10.0,fe3c1d035a65c549f7011c5446f73ede
16,1,null,null,psychophysics,189,511851,0.0-3.0-1.91,"""",key,null,16.657745762711382,768,361,"""","""","""","""","""","""","""","""","2021-10-03 01:19:55",99.232.133.236,"Mozilla/5.0 (Windows NT 10.0; Win64; x64) AppleWebKit/537.36 (KHTML, like Gecko) Chrome/94.0.4606.61 Safari/537.36",WebKit,Chrome,94.0.4606.61,Windows,10.0,fe3c1d035a65c549f7011c5446f73ede
16,1,1944.2999999523163,arrowright,psychophysics,190,513798,0.0-3.0-0.92,"""",key,arrowright,16.65844827586211,768,361,93,4,-1,24,35,25,35,false,"2021-10-03 01:19:55",99.232.133.236,"Mozilla/5.0 (Windows NT 10.0; Win64; x64) AppleWebKit/537.36 (KHTML, like Gecko) Chrome/94.0.4606.61 Safari/537.36",WebKit,Chrome,94.0.4606.61,Windows,10.0,fe3c1d035a65c549f7011c5446f73ede
16,1,null,null,psychophysics,191,514800,0.0-3.0-1.92,"""",key,null,16.65852542372886,768,361,"""","""","""","""","""","""","""","""","2021-10-03 01:19:55",99.232.133.236,"Mozilla/5.0 (Windows NT 10.0; Win64; x64) AppleWebKit/537.36 (KHTML, like Gecko) Chrome/94.0.4606.61 Safari/537.36",WebKit,Chrome,94.0.4606.61,Windows,10.0,fe3c1d035a65c549f7011c5446f73ede
16,1,1018,arrowright,psychophysics,192,515821,0.0-3.0-0.93,"""",key,arrowright,16.658150000000024,768,361,94,4,1,27,15,25,35,true,"2021-10-03 01:19:55",99.232.133.236,"Mozilla/5.0 (Windows NT 10.0; Win64; x64) AppleWebKit/537.36 (KHTML, like Gecko) Chrome/94.0.4606.61 Safari/537.36",WebKit,Chrome,94.0.4606.61,Windows,10.0,fe3c1d035a65c549f7011c5446f73ede
16,1,null,null,psychophysics,193,516825,0.0-3.0-1.93,"""",key,null,16.658203389831044,768,361,"""","""","""","""","""","""","""","""","2021-10-03 01:19:55",99.232.133.236,"Mozilla/5.0 (Windows NT 10.0; Win64; x64) AppleWebKit/537.36 (KHTML, like Gecko) Chrome/94.0.4606.61 Safari/537.36",WebKit,Chrome,94.0.4606.61,Windows,10.0,fe3c1d035a65c549f7011c5446f73ede
16,1,1412.7999999523163,arrowleft,psychophysics,194,518240,0.0-3.0-0.94,"""",key,arrowleft,16.657833333333006,768,361,95,4,1,24,35,25,35,false,"2021-10-03 01:19:55",99.232.133.236,"Mozilla/5.0 (Windows NT 10.0; Win64; x64) AppleWebKit/537.36 (KHTML, like Gecko) Chrome/94.0.4606.61 Safari/537.36",WebKit,Chrome,94.0.4606.61,Windows,10.0,fe3c1d035a65c549f7011c5446f73ede
16,1,null,null,psychophysics,195,519242,0.0-3.0-1.94,"""",key,null,16.658999999999896,768,361,"""","""","""","""","""","""","""","""","2021-10-03 01:19:55",99.232.133.236,"Mozilla/5.0 (Windows NT 10.0; Win64; x64) AppleWebKit/537.36 (KHTML, like Gecko) Chrome/94.0.4606.61 Safari/537.36",WebKit,Chrome,94.0.4606.61,Windows,10.0,fe3c1d035a65c549f7011c5446f73ede
16,1,1062,arrowright,psychophysics,196,520306,0.0-3.0-0.95,"""",key,arrowright,16.65801587301521,768,361,96,4,1,30,15,25,35,true,"2021-10-03 01:19:55",99.232.133.236,"Mozilla/5.0 (Windows NT 10.0; Win64; x64) AppleWebKit/537.36 (KHTML, like Gecko) Chrome/94.0.4606.61 Safari/537.36",WebKit,Chrome,94.0.4606.61,Windows,10.0,fe3c1d035a65c549f7011c5446f73ede
16,1,null,null,psychophysics,197,521307,0.0-3.0-1.95,"""",key,null,16.65976271186403,768,361,"""","""","""","""","""","""","""","""","2021-10-03 01:19:55",99.232.133.236,"Mozilla/5.0 (Windows NT 10.0; Win64; x64) AppleWebKit/537.36 (KHTML, like Gecko) Chrome/94.0.4606.61 Safari/537.36",WebKit,Chrome,94.0.4606.61,Windows,10.0,fe3c1d035a65c549f7011c5446f73ede
16,1,1745,arrowright,psychophysics,198,523054,0.0-3.0-0.96,"""",key,arrowright,16.658298076922968,768,361,97,4,-1,23,35,25,35,false,"2021-10-03 01:19:55",99.232.133.236,"Mozilla/5.0 (Windows NT 10.0; Win64; x64) AppleWebKit/537.36 (KHTML, like Gecko) Chrome/94.0.4606.61 Safari/537.36",WebKit,Chrome,94.0.4606.61,Windows,10.0,fe3c1d035a65c549f7011c5446f73ede
16,1,null,null,psychophysics,199,524057,0.0-3.0-1.96,"""",key,null,16.657813559323785,768,361,"""","""","""","""","""","""","""","""","2021-10-03 01:19:55",99.232.133.236,"Mozilla/5.0 (Windows NT 10.0; Win64; x64) AppleWebKit/537.36 (KHTML, like Gecko) Chrome/94.0.4606.61 Safari/537.36",WebKit,Chrome,94.0.4606.61,Windows,10.0,fe3c1d035a65c549f7011c5446f73ede
16,1,1390.7999999523163,arrowleft,psychophysics,200,525451,0.0-3.0-0.97,"""",key,arrowleft,16.65755421686665,768,361,98,4,-1,26,15,25,35,true,"2021-10-03 01:19:55",99.232.133.236,"Mozilla/5.0 (Windows NT 10.0; Win64; x64) AppleWebKit/537.36 (KHTML, like Gecko) Chrome/94.0.4606.61 Safari/537.36",WebKit,Chrome,94.0.4606.61,Windows,10.0,fe3c1d035a65c549f7011c5446f73ede
16,1,null,null,psychophysics,201,526452,0.0-3.0-1.97,"""",key,null,16.65849152542414,768,361,"""","""","""","""","""","""","""","""","2021-10-03 01:19:55",99.232.133.236,"Mozilla/5.0 (Windows NT 10.0; Win64; x64) AppleWebKit/537.36 (KHTML, like Gecko) Chrome/94.0.4606.61 Safari/537.36",WebKit,Chrome,94.0.4606.61,Windows,10.0,fe3c1d035a65c549f7011c5446f73ede
16,1,1305.8999998569489,arrowleft,psychophysics,202,527761,0.0-3.0-0.98,"""",key,arrowleft,16.658423076922563,768,361,99,4,1,24,35,25,35,false,"2021-10-03 01:19:55",99.232.133.236,"Mozilla/5.0 (Windows NT 10.0; Win64; x64) AppleWebKit/537.36 (KHTML, like Gecko) Chrome/94.0.4606.61 Safari/537.36",WebKit,Chrome,94.0.4606.61,Windows,10.0,fe3c1d035a65c549f7011c5446f73ede
16,1,null,null,psychophysics,203,528763,0.0-3.0-1.98,"""",key,null,16.65859322034028,768,361,"""","""","""","""","""","""","""","""","2021-10-03 01:19:55",99.232.133.236,"Mozilla/5.0 (Windows NT 10.0; Win64; x64) AppleWebKit/537.36 (KHTML, like Gecko) Chrome/94.0.4606.61 Safari/537.36",WebKit,Chrome,94.0.4606.61,Windows,10.0,fe3c1d035a65c549f7011c5446f73ede
16,1,1339.8999998569489,arrowright,psychophysics,204,530107,0.0-3.0-0.99,"""",key,arrowright,16.658024999999906,768,361,100,4,1,26,15,25,35,true,"2021-10-03 01:19:55",99.232.133.236,"Mozilla/5.0 (Windows NT 10.0; Win64; x64) AppleWebKit/537.36 (KHTML, like Gecko) Chrome/94.0.4606.61 Safari/537.36",WebKit,Chrome,94.0.4606.61,Windows,10.0,fe3c1d035a65c549f7011c5446f73ede
16,1,null,null,psychophysics,205,531109,0.0-3.0-1.99,"""",key,null,16.6576949152543,768,361,"""","""","""","""","""","""","""","""","2021-10-03 01:19:55",99.232.133.236,"Mozilla/5.0 (Windows NT 10.0; Win64; x64) AppleWebKit/537.36 (KHTML, like Gecko) Chrome/94.0.4606.61 Safari/537.36",WebKit,Chrome,94.0.4606.61,Windows,10.0,fe3c1d035a65c549f7011c5446f73ede
16,1,1717.5,arrowleft,psychophysics,206,532829,0.0-3.0-0.100,"""",key,arrowleft,16.657813725489714,768,361,101,4,1,24,15,25,35,false,"2021-10-03 01:19:55",99.232.133.236,"Mozilla/5.0 (Windows NT 10.0; Win64; x64) AppleWebKit/537.36 (KHTML, like Gecko) Chrome/94.0.4606.61 Safari/537.36",WebKit,Chrome,94.0.4606.61,Windows,10.0,fe3c1d035a65c549f7011c5446f73ede
16,1,null,null,psychophysics,207,533832,0.0-3.0-1.100,"""",key,null,16.658796610168608,768,361,"""","""","""","""","""","""","""","""","2021-10-03 01:19:55",99.232.133.236,"Mozilla/5.0 (Windows NT 10.0; Win64; x64) AppleWebKit/537.36 (KHTML, like Gecko) Chrome/94.0.4606.61 Safari/537.36",WebKit,Chrome,94.0.4606.61,Windows,10.0,fe3c1d035a65c549f7011c5446f73ede
16,1,1573.5,arrowright,psychophysics,208,535408,0.0-3.0-0.101,"""",key,arrowright,16.6582872340421,768,361,102,4,-1,20,15,25,35,false,"2021-10-03 01:19:55",99.232.133.236,"Mozilla/5.0 (Windows NT 10.0; Win64; x64) AppleWebKit/537.36 (KHTML, like Gecko) Chrome/94.0.4606.61 Safari/537.36",WebKit,Chrome,94.0.4606.61,Windows,10.0,fe3c1d035a65c549f7011c5446f73ede
16,1,null,null,psychophysics,209,536412,0.0-3.0-1.101,"""",key,null,16.658999999998912,768,361,"""","""","""","""","""","""","""","""","2021-10-03 01:19:55",99.232.133.236,"Mozilla/5.0 (Windows NT 10.0; Win64; x64) AppleWebKit/537.36 (KHTML, like Gecko) Chrome/94.0.4606.61 Safari/537.36",WebKit,Chrome,94.0.4606.61,Windows,10.0,fe3c1d035a65c549f7011c5446f73ede
16,1,1556.3999998569489,arrowleft,psychophysics,210,537972,0.0-3.0-0.102,"""",key,arrowleft,16.658505376343246,768,361,103,4,-1,26,15,25,35,true,"2021-10-03 01:19:55",99.232.133.236,"Mozilla/5.0 (Windows NT 10.0; Win64; x64) AppleWebKit/537.36 (KHTML, like Gecko) Chrome/94.0.4606.61 Safari/537.36",WebKit,Chrome,94.0.4606.61,Windows,10.0,fe3c1d035a65c549f7011c5446f73ede
16,1,null,null,psychophysics,211,538973,0.0-3.0-1.102,"""",key,null,16.65772881355902,768,361,"""","""","""","""","""","""","""","""","2021-10-03 01:19:55",99.232.133.236,"Mozilla/5.0 (Windows NT 10.0; Win64; x64) AppleWebKit/537.36 (KHTML, like Gecko) Chrome/94.0.4606.61 Safari/537.36",WebKit,Chrome,94.0.4606.61,Windows,10.0,fe3c1d035a65c549f7011c5446f73ede
16,1,2209.2999999523163,arrowright,psychophysics,212,541185,0.0-3.0-0.103,"""",key,arrowright,16.657886363635594,768,361,104,4,1,26,35,25,35,true,"2021-10-03 01:19:55",99.232.133.236,"Mozilla/5.0 (Windows NT 10.0; Win64; x64) AppleWebKit/537.36 (KHTML, like Gecko) Chrome/94.0.4606.61 Safari/537.36",WebKit,Chrome,94.0.4606.61,Windows,10.0,fe3c1d035a65c549f7011c5446f73ede
16,1,null,null,psychophysics,213,542189,0.0-3.0-1.103,"""",key,null,16.65971186440596,768,361,"""","""","""","""","""","""","""","""","2021-10-03 01:19:55",99.232.133.236,"Mozilla/5.0 (Windows NT 10.0; Win64; x64) AppleWebKit/537.36 (KHTML, like Gecko) Chrome/94.0.4606.61 Safari/537.36",WebKit,Chrome,94.0.4606.61,Windows,10.0,fe3c1d035a65c549f7011c5446f73ede
16,1,2394.600000143051,arrowright,psychophysics,214,544587,0.0-3.0-0.104,"""",key,arrowright,16.658202797202946,768,361,105,4,1,25,15,25,35,true,"2021-10-03 01:19:55",99.232.133.236,"Mozilla/5.0 (Windows NT 10.0; Win64; x64) AppleWebKit/537.36 (KHTML, like Gecko) Chrome/94.0.4606.61 Safari/537.36",WebKit,Chrome,94.0.4606.61,Windows,10.0,fe3c1d035a65c549f7011c5446f73ede
16,1,null,null,psychophysics,215,545587,0.0-3.0-1.104,"""",key,null,16.65852542372886,768,361,"""","""","""","""","""","""","""","""","2021-10-03 01:19:55",99.232.133.236,"Mozilla/5.0 (Windows NT 10.0; Win64; x64) AppleWebKit/537.36 (KHTML, like Gecko) Chrome/94.0.4606.61 Safari/537.36",WebKit,Chrome,94.0.4606.61,Windows,10.0,fe3c1d035a65c549f7011c5446f73ede
16,1,1609.4000000953674,arrowright,psychophysics,216,547199,0.0-3.0-0.105,"""",key,arrowright,16.65840624999934,768,361,106,4,1,26,15,25,35,true,"2021-10-03 01:19:55",99.232.133.236,"Mozilla/5.0 (Windows NT 10.0; Win64; x64) AppleWebKit/537.36 (KHTML, like Gecko) Chrome/94.0.4606.61 Safari/537.36",WebKit,Chrome,94.0.4606.61,Windows,10.0,fe3c1d035a65c549f7011c5446f73ede
16,1,null,null,psychophysics,217,548201,0.0-3.0-1.105,"""",key,null,16.65835593220328,768,361,"""","""","""","""","""","""","""","""","2021-10-03 01:19:55",99.232.133.236,"Mozilla/5.0 (Windows NT 10.0; Win64; x64) AppleWebKit/537.36 (KHTML, like Gecko) Chrome/94.0.4606.61 Safari/537.36",WebKit,Chrome,94.0.4606.61,Windows,10.0,fe3c1d035a65c549f7011c5446f73ede
16,1,2074.399999856949,arrowright,psychophysics,218,550279,0.0-3.0-0.106,"""",key,arrowright,16.658693548386744,768,361,107,4,1,27,35,25,35,true,"2021-10-03 01:19:55",99.232.133.236,"Mozilla/5.0 (Windows NT 10.0; Win64; x64) AppleWebKit/537.36 (KHTML, like Gecko) Chrome/94.0.4606.61 Safari/537.36",WebKit,Chrome,94.0.4606.61,Windows,10.0,fe3c1d035a65c549f7011c5446f73ede
16,1,null,null,psychophysics,219,551280,0.0-3.0-1.106,"""",key,null,16.658474576272766,768,361,"""","""","""","""","""","""","""","""","2021-10-03 01:19:55",99.232.133.236,"Mozilla/5.0 (Windows NT 10.0; Win64; x64) AppleWebKit/537.36 (KHTML, like Gecko) Chrome/94.0.4606.61 Safari/537.36",WebKit,Chrome,94.0.4606.61,Windows,10.0,fe3c1d035a65c549f7011c5446f73ede
16,1,1496.8999998569489,arrowright,psychophysics,220,552781,0.0-3.0-0.107,"""",key,arrowright,16.65868539325736,768,361,108,4,1,25,35,25,35,true,"2021-10-03 01:19:55",99.232.133.236,"Mozilla/5.0 (Windows NT 10.0; Win64; x64) AppleWebKit/537.36 (KHTML, like Gecko) Chrome/94.0.4606.61 Safari/537.36",WebKit,Chrome,94.0.4606.61,Windows,10.0,fe3c1d035a65c549f7011c5446f73ede
16,1,null,null,psychophysics,221,553782,0.0-3.0-1.107,"""",key,null,16.65772881355902,768,361,"""","""","""","""","""","""","""","""","2021-10-03 01:19:55",99.232.133.236,"Mozilla/5.0 (Windows NT 10.0; Win64; x64) AppleWebKit/537.36 (KHTML, like Gecko) Chrome/94.0.4606.61 Safari/537.36",WebKit,Chrome,94.0.4606.61,Windows,10.0,fe3c1d035a65c549f7011c5446f73ede
16,1,1053.5,arrowleft,psychophysics,222,554839,0.0-3.0-0.108,"""",key,arrowleft,16.658032258063734,768,361,109,4,-1,30,15,25,35,true,"2021-10-03 01:19:55",99.232.133.236,"Mozilla/5.0 (Windows NT 10.0; Win64; x64) AppleWebKit/537.36 (KHTML, like Gecko) Chrome/94.0.4606.61 Safari/537.36",WebKit,Chrome,94.0.4606.61,Windows,10.0,fe3c1d035a65c549f7011c5446f73ede
16,1,null,null,psychophysics,223,555846,0.0-3.0-1.108,"""",key,null,16.657199999998557,768,361,"""","""","""","""","""","""","""","""","2021-10-03 01:19:55",99.232.133.236,"Mozilla/5.0 (Windows NT 10.0; Win64; x64) AppleWebKit/537.36 (KHTML, like Gecko) Chrome/94.0.4606.61 Safari/537.36",WebKit,Chrome,94.0.4606.61,Windows,10.0,fe3c1d035a65c549f7011c5446f73ede
16,1,8794.100000143051,arrowright,psychophysics,224,564643,0.0-3.0-0.109,"""",key,arrowright,16.658354838709638,768,361,110,4,1,26,15,25,35,true,"2021-10-03 01:19:55",99.232.133.236,"Mozilla/5.0 (Windows NT 10.0; Win64; x64) AppleWebKit/537.36 (KHTML, like Gecko) Chrome/94.0.4606.61 Safari/537.36",WebKit,Chrome,94.0.4606.61,Windows,10.0,fe3c1d035a65c549f7011c5446f73ede
16,1,null,null,psychophysics,225,565647,0.0-3.0-1.109,"""",key,null,16.65937288135677,768,361,"""","""","""","""","""","""","""","""","2021-10-03 01:19:55",99.232.133.236,"Mozilla/5.0 (Windows NT 10.0; Win64; x64) AppleWebKit/537.36 (KHTML, like Gecko) Chrome/94.0.4606.61 Safari/537.36",WebKit,Chrome,94.0.4606.61,Windows,10.0,fe3c1d035a65c549f7011c5446f73ede
16,1,5115.100000143051,arrowright,psychophysics,226,570765,0.0-3.0-0.110,"""",key,arrowright,16.658284313725673,768,361,111,4,1,24,15,25,35,true,"2021-10-03 01:19:55",99.232.133.236,"Mozilla/5.0 (Windows NT 10.0; Win64; x64) AppleWebKit/537.36 (KHTML, like Gecko) Chrome/94.0.4606.61 Safari/537.36",WebKit,Chrome,94.0.4606.61,Windows,10.0,fe3c1d035a65c549f7011c5446f73ede
16,1,null,null,psychophysics,227,571768,0.0-3.0-1.110,"""",key,null,16.658483333334637,768,361,"""","""","""","""","""","""","""","""","2021-10-03 01:19:55",99.232.133.236,"Mozilla/5.0 (Windows NT 10.0; Win64; x64) AppleWebKit/537.36 (KHTML, like Gecko) Chrome/94.0.4606.61 Safari/537.36",WebKit,Chrome,94.0.4606.61,Windows,10.0,fe3c1d035a65c549f7011c5446f73ede
16,1,1253.8000001907349,arrowright,psychophysics,228,573025,0.0-3.0-0.111,"""",key,arrowright,16.658594594595048,768,361,112,5,1,27,15,25,35,true,"2021-10-03 01:19:55",99.232.133.236,"Mozilla/5.0 (Windows NT 10.0; Win64; x64) AppleWebKit/537.36 (KHTML, like Gecko) Chrome/94.0.4606.61 Safari/537.36",WebKit,Chrome,94.0.4606.61,Windows,10.0,fe3c1d035a65c549f7011c5446f73ede
16,1,null,null,psychophysics,229,574028,0.0-3.0-1.111,"""",key,null,16.65883050847333,768,361,"""","""","""","""","""","""","""","""","2021-10-03 01:19:55",99.232.133.236,"Mozilla/5.0 (Windows NT 10.0; Win64; x64) AppleWebKit/537.36 (KHTML, like Gecko) Chrome/94.0.4606.61 Safari/537.36",WebKit,Chrome,94.0.4606.61,Windows,10.0,fe3c1d035a65c549f7011c5446f73ede
16,1,4152,f,html-keyboard-response,230,578181,0.0-3.0-2.111-0.111,"<div style=""color: white; text-align: center; vertical-align: top; display: inline-block; width: 800px; margin: auto""><p>You have completed 40% of the trials. You are on block 5 of 10. <br>Good job! Take a break if you need to.</p><p>Press any key to continue the experiment.</p></div>","""","""","""","""","""","""","""","""","""","""","""","""","""","2021-10-03 01:19:55",99.232.133.236,"Mozilla/5.0 (Windows NT 10.0; Win64; x64) AppleWebKit/537.36 (KHTML, like Gecko) Chrome/94.0.4606.61 Safari/537.36",WebKit,Chrome,94.0.4606.61,Windows,10.0,fe3c1d035a65c549f7011c5446f73ede
16,1,1335.7000000476837,arrowleft,psychophysics,231,580534,0.0-3.0-0.112,"""",key,arrowleft,16.866999999999827,768,361,113,5,-1,30,15,25,35,true,"2021-10-03 01:19:55",99.232.133.236,"Mozilla/5.0 (Windows NT 10.0; Win64; x64) AppleWebKit/537.36 (KHTML, like Gecko) Chrome/94.0.4606.61 Safari/537.36",WebKit,Chrome,94.0.4606.61,Windows,10.0,fe3c1d035a65c549f7011c5446f73ede
16,1,null,null,psychophysics,232,581534,0.0-3.0-1.112,"""",key,null,16.659033898305605,768,361,"""","""","""","""","""","""","""","""","2021-10-03 01:19:55",99.232.133.236,"Mozilla/5.0 (Windows NT 10.0; Win64; x64) AppleWebKit/537.36 (KHTML, like Gecko) Chrome/94.0.4606.61 Safari/537.36",WebKit,Chrome,94.0.4606.61,Windows,10.0,fe3c1d035a65c549f7011c5446f73ede
16,1,1533.5999999046326,arrowright,psychophysics,233,583070,0.0-3.0-0.113,"""",key,arrowright,16.65864835164873,768,361,114,5,-1,24,35,25,35,false,"2021-10-03 01:19:55",99.232.133.236,"Mozilla/5.0 (Windows NT 10.0; Win64; x64) AppleWebKit/537.36 (KHTML, like Gecko) Chrome/94.0.4606.61 Safari/537.36",WebKit,Chrome,94.0.4606.61,Windows,10.0,fe3c1d035a65c549f7011c5446f73ede
16,1,null,null,psychophysics,234,584071,0.0-3.0-1.113,"""",key,null,16.659135593221745,768,361,"""","""","""","""","""","""","""","""","2021-10-03 01:19:55",99.232.133.236,"Mozilla/5.0 (Windows NT 10.0; Win64; x64) AppleWebKit/537.36 (KHTML, like Gecko) Chrome/94.0.4606.61 Safari/537.36",WebKit,Chrome,94.0.4606.61,Windows,10.0,fe3c1d035a65c549f7011c5446f73ede
16,1,1618.2999999523163,arrowleft,psychophysics,235,585692,0.0-3.0-0.114,"""",key,arrowleft,16.65807291666715,768,361,115,5,-1,25,35,25,35,true,"2021-10-03 01:19:55",99.232.133.236,"Mozilla/5.0 (Windows NT 10.0; Win64; x64) AppleWebKit/537.36 (KHTML, like Gecko) Chrome/94.0.4606.61 Safari/537.36",WebKit,Chrome,94.0.4606.61,Windows,10.0,fe3c1d035a65c549f7011c5446f73ede
16,1,null,null,psychophysics,236,586696,0.0-3.0-1.114,"""",key,null,16.65898333333316,768,361,"""","""","""","""","""","""","""","""","2021-10-03 01:19:55",99.232.133.236,"Mozilla/5.0 (Windows NT 10.0; Win64; x64) AppleWebKit/537.36 (KHTML, like Gecko) Chrome/94.0.4606.61 Safari/537.36",WebKit,Chrome,94.0.4606.61,Windows,10.0,fe3c1d035a65c549f7011c5446f73ede
16,1,2648,arrowright,psychophysics,237,589346,0.0-3.0-0.115,"""",key,arrowright,16.65903797468371,768,361,116,5,1,25,15,25,35,true,"2021-10-03 01:19:55",99.232.133.236,"Mozilla/5.0 (Windows NT 10.0; Win64; x64) AppleWebKit/537.36 (KHTML, like Gecko) Chrome/94.0.4606.61 Safari/537.36",WebKit,Chrome,94.0.4606.61,Windows,10.0,fe3c1d035a65c549f7011c5446f73ede
16,1,null,null,psychophysics,238,590348,0.0-3.0-1.115,"""",key,null,16.659305084747327,768,361,"""","""","""","""","""","""","""","""","2021-10-03 01:19:55",99.232.133.236,"Mozilla/5.0 (Windows NT 10.0; Win64; x64) AppleWebKit/537.36 (KHTML, like Gecko) Chrome/94.0.4606.61 Safari/537.36",WebKit,Chrome,94.0.4606.61,Windows,10.0,fe3c1d035a65c549f7011c5446f73ede
16,1,1700.2999999523163,arrowright,psychophysics,239,592051,0.0-3.0-0.116,"""",key,arrowright,16.65844554455356,768,361,117,5,-1,20,15,25,35,false,"2021-10-03 01:19:55",99.232.133.236,"Mozilla/5.0 (Windows NT 10.0; Win64; x64) AppleWebKit/537.36 (KHTML, like Gecko) Chrome/94.0.4606.61 Safari/537.36",WebKit,Chrome,94.0.4606.61,Windows,10.0,fe3c1d035a65c549f7011c5446f73ede
16,1,null,null,psychophysics,240,593055,0.0-3.0-1.116,"""",key,null,16.658779661017235,768,361,"""","""","""","""","""","""","""","""","2021-10-03 01:19:55",99.232.133.236,"Mozilla/5.0 (Windows NT 10.0; Win64; x64) AppleWebKit/537.36 (KHTML, like Gecko) Chrome/94.0.4606.61 Safari/537.36",WebKit,Chrome,94.0.4606.61,Windows,10.0,fe3c1d035a65c549f7011c5446f73ede
16,1,1786.7999999523163,arrowright,psychophysics,241,594843,0.0-3.0-0.117,"""",key,arrowright,16.65828971962649,768,361,118,5,1,23,15,25,35,true,"2021-10-03 01:19:55",99.232.133.236,"Mozilla/5.0 (Windows NT 10.0; Win64; x64) AppleWebKit/537.36 (KHTML, like Gecko) Chrome/94.0.4606.61 Safari/537.36",WebKit,Chrome,94.0.4606.61,Windows,10.0,fe3c1d035a65c549f7011c5446f73ede
16,1,null,null,psychophysics,242,595844,0.0-3.0-1.117,"""",key,null,16.657813559321813,768,361,"""","""","""","""","""","""","""","""","2021-10-03 01:19:55",99.232.133.236,"Mozilla/5.0 (Windows NT 10.0; Win64; x64) AppleWebKit/537.36 (KHTML, like Gecko) Chrome/94.0.4606.61 Safari/537.36",WebKit,Chrome,94.0.4606.61,Windows,10.0,fe3c1d035a65c549f7011c5446f73ede
16,1,1440.4000000953674,arrowright,psychophysics,243,597288,0.0-3.0-0.118,"""",key,arrowright,16.658811764705323,768,361,119,5,1,27,15,25,35,true,"2021-10-03 01:19:55",99.232.133.236,"Mozilla/5.0 (Windows NT 10.0; Win64; x64) AppleWebKit/537.36 (KHTML, like Gecko) Chrome/94.0.4606.61 Safari/537.36",WebKit,Chrome,94.0.4606.61,Windows,10.0,fe3c1d035a65c549f7011c5446f73ede
16,1,null,null,psychophysics,244,598288,0.0-3.0-1.118,"""",key,null,16.65898333333316,768,361,"""","""","""","""","""","""","""","""","2021-10-03 01:19:55",99.232.133.236,"Mozilla/5.0 (Windows NT 10.0; Win64; x64) AppleWebKit/537.36 (KHTML, like Gecko) Chrome/94.0.4606.61 Safari/537.36",WebKit,Chrome,94.0.4606.61,Windows,10.0,fe3c1d035a65c549f7011c5446f73ede
16,1,2857.600000143051,arrowleft,psychophysics,245,601148,0.0-3.0-0.119,"""",key,arrowleft,16.65868235294132,768,361,120,5,1,24,35,25,35,false,"2021-10-03 01:19:55",99.232.133.236,"Mozilla/5.0 (Windows NT 10.0; Win64; x64) AppleWebKit/537.36 (KHTML, like Gecko) Chrome/94.0.4606.61 Safari/537.36",WebKit,Chrome,94.0.4606.61,Windows,10.0,fe3c1d035a65c549f7011c5446f73ede
16,1,null,null,psychophysics,246,602152,0.0-3.0-1.119,"""",key,null,16.65816666666651,768,361,"""","""","""","""","""","""","""","""","2021-10-03 01:19:55",99.232.133.236,"Mozilla/5.0 (Windows NT 10.0; Win64; x64) AppleWebKit/537.36 (KHTML, like Gecko) Chrome/94.0.4606.61 Safari/537.36",WebKit,Chrome,94.0.4606.61,Windows,10.0,fe3c1d035a65c549f7011c5446f73ede
16,1,1633.5,arrowleft,psychophysics,247,603789,0.0-3.0-0.120,"""",key,arrowleft,16.658463917525015,768,361,121,5,-1,26,15,25,35,true,"2021-10-03 01:19:55",99.232.133.236,"Mozilla/5.0 (Windows NT 10.0; Win64; x64) AppleWebKit/537.36 (KHTML, like Gecko) Chrome/94.0.4606.61 Safari/537.36",WebKit,Chrome,94.0.4606.61,Windows,10.0,fe3c1d035a65c549f7011c5446f73ede
16,1,null,null,psychophysics,248,604790,0.0-3.0-1.120,"""",key,null,16.658169491526323,768,361,"""","""","""","""","""","""","""","""","2021-10-03 01:19:55",99.232.133.236,"Mozilla/5.0 (Windows NT 10.0; Win64; x64) AppleWebKit/537.36 (KHTML, like Gecko) Chrome/94.0.4606.61 Safari/537.36",WebKit,Chrome,94.0.4606.61,Windows,10.0,fe3c1d035a65c549f7011c5446f73ede
16,1,3497.7000000476837,arrowright,psychophysics,249,608290,0.0-3.0-0.121,"""",key,arrowright,16.65856937799017,768,361,122,5,-1,23,15,25,35,false,"2021-10-03 01:19:55",99.232.133.236,"Mozilla/5.0 (Windows NT 10.0; Win64; x64) AppleWebKit/537.36 (KHTML, like Gecko) Chrome/94.0.4606.61 Safari/537.36",WebKit,Chrome,94.0.4606.61,Windows,10.0,fe3c1d035a65c549f7011c5446f73ede
16,1,null,null,psychophysics,250,609294,0.0-3.0-1.121,"""",key,null,16.658322033898557,768,361,"""","""","""","""","""","""","""","""","2021-10-03 01:19:55",99.232.133.236,"Mozilla/5.0 (Windows NT 10.0; Win64; x64) AppleWebKit/537.36 (KHTML, like Gecko) Chrome/94.0.4606.61 Safari/537.36",WebKit,Chrome,94.0.4606.61,Windows,10.0,fe3c1d035a65c549f7011c5446f73ede
16,1,1785.4000000953674,arrowright,psychophysics,251,611082,0.0-3.0-0.122,"""",key,arrowright,16.658542056075106,768,361,123,5,-1,24,35,25,35,false,"2021-10-03 01:19:55",99.232.133.236,"Mozilla/5.0 (Windows NT 10.0; Win64; x64) AppleWebKit/537.36 (KHTML, like Gecko) Chrome/94.0.4606.61 Safari/537.36",WebKit,Chrome,94.0.4606.61,Windows,10.0,fe3c1d035a65c549f7011c5446f73ede
16,1,null,null,psychophysics,252,612085,0.0-3.0-1.122,"""",key,null,16.657627118644857,768,361,"""","""","""","""","""","""","""","""","2021-10-03 01:19:55",99.232.133.236,"Mozilla/5.0 (Windows NT 10.0; Win64; x64) AppleWebKit/537.36 (KHTML, like Gecko) Chrome/94.0.4606.61 Safari/537.36",WebKit,Chrome,94.0.4606.61,Windows,10.0,fe3c1d035a65c549f7011c5446f73ede
16,1,5170.5,arrowleft,psychophysics,253,617258,0.0-3.0-0.123,"""",key,arrowleft,16.658524271844836,768,361,124,5,1,23,15,25,35,false,"2021-10-03 01:19:55",99.232.133.236,"Mozilla/5.0 (Windows NT 10.0; Win64; x64) AppleWebKit/537.36 (KHTML, like Gecko) Chrome/94.0.4606.61 Safari/537.36",WebKit,Chrome,94.0.4606.61,Windows,10.0,fe3c1d035a65c549f7011c5446f73ede
16,1,null,null,psychophysics,254,618261,0.0-3.0-1.123,"""",key,null,16.658216666665005,768,361,"""","""","""","""","""","""","""","""","2021-10-03 01:19:55",99.232.133.236,"Mozilla/5.0 (Windows NT 10.0; Win64; x64) AppleWebKit/537.36 (KHTML, like Gecko) Chrome/94.0.4606.61 Safari/537.36",WebKit,Chrome,94.0.4606.61,Windows,10.0,fe3c1d035a65c549f7011c5446f73ede
16,1,4509.599999904633,arrowleft,psychophysics,255,622775,0.0-3.0-0.124,"""",key,arrowleft,16.658278810408667,768,361,125,5,1,25,35,25,35,false,"2021-10-03 01:19:55",99.232.133.236,"Mozilla/5.0 (Windows NT 10.0; Win64; x64) AppleWebKit/537.36 (KHTML, like Gecko) Chrome/94.0.4606.61 Safari/537.36",WebKit,Chrome,94.0.4606.61,Windows,10.0,fe3c1d035a65c549f7011c5446f73ede
16,1,null,null,psychophysics,256,623775,0.0-3.0-1.124,"""",key,null,16.65770000000096,768,361,"""","""","""","""","""","""","""","""","2021-10-03 01:19:55",99.232.133.236,"Mozilla/5.0 (Windows NT 10.0; Win64; x64) AppleWebKit/537.36 (KHTML, like Gecko) Chrome/94.0.4606.61 Safari/537.36",WebKit,Chrome,94.0.4606.61,Windows,10.0,fe3c1d035a65c549f7011c5446f73ede
16,1,1443.5999999046326,arrowleft,psychophysics,257,625224,0.0-3.0-0.125,"""",key,arrowleft,16.65816279069851,768,361,126,5,-1,27,15,25,35,true,"2021-10-03 01:19:55",99.232.133.236,"Mozilla/5.0 (Windows NT 10.0; Win64; x64) AppleWebKit/537.36 (KHTML, like Gecko) Chrome/94.0.4606.61 Safari/537.36",WebKit,Chrome,94.0.4606.61,Windows,10.0,fe3c1d035a65c549f7011c5446f73ede
16,1,null,null,psychophysics,258,626226,0.0-3.0-1.125,"""",key,null,16.6588305084753,768,361,"""","""","""","""","""","""","""","""","2021-10-03 01:19:55",99.232.133.236,"Mozilla/5.0 (Windows NT 10.0; Win64; x64) AppleWebKit/537.36 (KHTML, like Gecko) Chrome/94.0.4606.61 Safari/537.36",WebKit,Chrome,94.0.4606.61,Windows,10.0,fe3c1d035a65c549f7011c5446f73ede
16,1,1182.7000000476837,arrowright,psychophysics,259,627411,0.0-3.0-0.126,"""",key,arrowright,16.65868571428582,768,361,127,5,1,27,35,25,35,true,"2021-10-03 01:19:55",99.232.133.236,"Mozilla/5.0 (Windows NT 10.0; Win64; x64) AppleWebKit/537.36 (KHTML, like Gecko) Chrome/94.0.4606.61 Safari/537.36",WebKit,Chrome,94.0.4606.61,Windows,10.0,fe3c1d035a65c549f7011c5446f73ede
16,1,null,null,psychophysics,260,628412,0.0-3.0-1.126,"""",key,null,16.658711864405817,768,361,"""","""","""","""","""","""","""","""","2021-10-03 01:19:55",99.232.133.236,"Mozilla/5.0 (Windows NT 10.0; Win64; x64) AppleWebKit/537.36 (KHTML, like Gecko) Chrome/94.0.4606.61 Safari/537.36",WebKit,Chrome,94.0.4606.61,Windows,10.0,fe3c1d035a65c549f7011c5446f73ede
16,1,1136,arrowleft,psychophysics,261,629551,0.0-3.0-0.127,"""",key,arrowleft,16.657761194030822,768,361,128,5,1,25,35,25,35,false,"2021-10-03 01:19:55",99.232.133.236,"Mozilla/5.0 (Windows NT 10.0; Win64; x64) AppleWebKit/537.36 (KHTML, like Gecko) Chrome/94.0.4606.61 Safari/537.36",WebKit,Chrome,94.0.4606.61,Windows,10.0,fe3c1d035a65c549f7011c5446f73ede
16,1,null,null,psychophysics,262,630553,0.0-3.0-1.127,"""",key,null,16.65884745762865,768,361,"""","""","""","""","""","""","""","""","2021-10-03 01:19:55",99.232.133.236,"Mozilla/5.0 (Windows NT 10.0; Win64; x64) AppleWebKit/537.36 (KHTML, like Gecko) Chrome/94.0.4606.61 Safari/537.36",WebKit,Chrome,94.0.4606.61,Windows,10.0,fe3c1d035a65c549f7011c5446f73ede
16,1,863.8000001907349,arrowleft,psychophysics,263,631422,0.0-3.0-0.128,"""",key,arrowleft,16.659673076922235,768,361,129,5,1,20,35,25,35,false,"2021-10-03 01:19:55",99.232.133.236,"Mozilla/5.0 (Windows NT 10.0; Win64; x64) AppleWebKit/537.36 (KHTML, like Gecko) Chrome/94.0.4606.61 Safari/537.36",WebKit,Chrome,94.0.4606.61,Windows,10.0,fe3c1d035a65c549f7011c5446f73ede
16,1,null,null,psychophysics,264,632424,0.0-3.0-1.128,"""",key,null,16.658779661017235,768,361,"""","""","""","""","""","""","""","""","2021-10-03 01:19:55",99.232.133.236,"Mozilla/5.0 (Windows NT 10.0; Win64; x64) AppleWebKit/537.36 (KHTML, like Gecko) Chrome/94.0.4606.61 Safari/537.36",WebKit,Chrome,94.0.4606.61,Windows,10.0,fe3c1d035a65c549f7011c5446f73ede
16,1,785.5999999046326,arrowleft,psychophysics,265,633213,0.0-3.0-0.129,"""",key,arrowleft,16.657978260869402,768,361,130,5,-1,30,15,25,35,true,"2021-10-03 01:19:55",99.232.133.236,"Mozilla/5.0 (Windows NT 10.0; Win64; x64) AppleWebKit/537.36 (KHTML, like Gecko) Chrome/94.0.4606.61 Safari/537.36",WebKit,Chrome,94.0.4606.61,Windows,10.0,fe3c1d035a65c549f7011c5446f73ede
16,1,null,null,psychophysics,266,634214,0.0-3.0-1.129,"""",key,null,16.659372881354795,768,361,"""","""","""","""","""","""","""","""","2021-10-03 01:19:55",99.232.133.236,"Mozilla/5.0 (Windows NT 10.0; Win64; x64) AppleWebKit/537.36 (KHTML, like Gecko) Chrome/94.0.4606.61 Safari/537.36",WebKit,Chrome,94.0.4606.61,Windows,10.0,fe3c1d035a65c549f7011c5446f73ede
16,1,1094.4000000953674,arrowleft,psychophysics,267,635312,0.0-3.0-0.130,"""",key,arrowleft,16.65829230769215,768,361,131,5,-1,27,35,25,35,true,"2021-10-03 01:19:55",99.232.133.236,"Mozilla/5.0 (Windows NT 10.0; Win64; x64) AppleWebKit/537.36 (KHTML, like Gecko) Chrome/94.0.4606.61 Safari/537.36",WebKit,Chrome,94.0.4606.61,Windows,10.0,fe3c1d035a65c549f7011c5446f73ede
16,1,null,null,psychophysics,268,636313,0.0-3.0-1.130,"""",key,null,16.6581864406777,768,361,"""","""","""","""","""","""","""","""","2021-10-03 01:19:55",99.232.133.236,"Mozilla/5.0 (Windows NT 10.0; Win64; x64) AppleWebKit/537.36 (KHTML, like Gecko) Chrome/94.0.4606.61 Safari/537.36",WebKit,Chrome,94.0.4606.61,Windows,10.0,fe3c1d035a65c549f7011c5446f73ede
