run_id,condition,rt,response,trial_type,trial_index,time_elapsed,internal_node_id,stimulus,response_type,key_press,avg_frame_time,center_x,center_y,trial,block,test_pos,test_inner_radius,test_outer_radius,ref_inner_radius,ref_outer_radius,test_bigger,recorded_at,ip,user_agent,device,browser,browser_version,platform,platform_version,source_code_version
14,1,82946.30000001192,"{""p_id"":""0972"",""age"":""23"",""handedness"":""right"",""sex"":""female"",""other_sex"":""}",survey-html-form,0,82949,0.0-0.0,"""","""","""","""","""","""","""","""","""","""","""","""","""","""","2021-10-02 15:11:50",99.229.52.133,"Mozilla/5.0 (Windows NT 10.0; Win64; x64) AppleWebKit/537.36 (KHTML, like Gecko) Chrome/94.0.4606.61 Safari/537.36 Edg/94.0.992.31",WebKit,Edge,94.0.992.31,Windows,10.0,fe3c1d035a65c549f7011c5446f73ede
14,1,8643.79999999702,m,html-keyboard-response,1,91597,0.0-1.0,"<p style=""color: white"">Welcome to the Size Judgment Experiment. <br>There will be 10 blocks in this experiment. <br>There will be 28 trials in each block. <br>You will be given a chance to take a break between blocks. <br>Press any key to start the experiment.</p>","""","""","""","""","""","""","""","""","""","""","""","""","""","2021-10-02 15:11:50",99.229.52.133,"Mozilla/5.0 (Windows NT 10.0; Win64; x64) AppleWebKit/537.36 (KHTML, like Gecko) Chrome/94.0.4606.61 Safari/537.36 Edg/94.0.992.31",WebKit,Edge,94.0.992.31,Windows,10.0,fe3c1d035a65c549f7011c5446f73ede
14,1,24553.70000000298,arrowdown,psychophysics,2,116167,0.0-2.0,"""",key,arrowdown,16.662591587516953,682.5,325,"""","""","""","""","""","""","""","""","2021-10-02 15:11:50",99.229.52.133,"Mozilla/5.0 (Windows NT 10.0; Win64; x64) AppleWebKit/537.36 (KHTML, like Gecko) Chrome/94.0.4606.61 Safari/537.36 Edg/94.0.992.31",WebKit,Edge,94.0.992.31,Windows,10.0,fe3c1d035a65c549f7011c5446f73ede
14,1,7797.199999988079,arrowleft,psychophysics,3,123972,0.0-3.0-0.0,"""",key,arrowleft,16.662882478632493,682.5,325,1,1,1,23,35,25,35,false,"2021-10-02 15:11:50",99.229.52.133,"Mozilla/5.0 (Windows NT 10.0; Win64; x64) AppleWebKit/537.36 (KHTML, like Gecko) Chrome/94.0.4606.61 Safari/537.36 Edg/94.0.992.31",WebKit,Edge,94.0.992.31,Windows,10.0,fe3c1d035a65c549f7011c5446f73ede
14,1,null,null,psychophysics,4,124983,0.0-3.0-1.0,"""",key,null,16.665322033898565,682.5,325,"""","""","""","""","""","""","""","""","2021-10-02 15:11:50",99.229.52.133,"Mozilla/5.0 (Windows NT 10.0; Win64; x64) AppleWebKit/537.36 (KHTML, like Gecko) Chrome/94.0.4606.61 Safari/537.36 Edg/94.0.992.31",WebKit,Edge,94.0.992.31,Windows,10.0,fe3c1d035a65c549f7011c5446f73ede
14,1,2819.5,arrowleft,psychophysics,5,127817,0.0-3.0-0.1,"""",key,arrowleft,16.66118823529413,682.5,325,2,1,1,23,35,25,35,false,"2021-10-02 15:11:50",99.229.52.133,"Mozilla/5.0 (Windows NT 10.0; Win64; x64) AppleWebKit/537.36 (KHTML, like Gecko) Chrome/94.0.4606.61 Safari/537.36 Edg/94.0.992.31",WebKit,Edge,94.0.992.31,Windows,10.0,fe3c1d035a65c549f7011c5446f73ede
14,1,null,null,psychophysics,6,128831,0.0-3.0-1.1,"""",key,null,16.665745762711534,682.5,325,"""","""","""","""","""","""","""","""","2021-10-02 15:11:50",99.229.52.133,"Mozilla/5.0 (Windows NT 10.0; Win64; x64) AppleWebKit/537.36 (KHTML, like Gecko) Chrome/94.0.4606.61 Safari/537.36 Edg/94.0.992.31",WebKit,Edge,94.0.992.31,Windows,10.0,fe3c1d035a65c549f7011c5446f73ede
14,1,716.5,arrowright,psychophysics,7,129558,0.0-3.0-0.2,"""",key,arrowright,16.666348837209096,682.5,325,3,1,-1,27,15,25,35,false,"2021-10-02 15:11:50",99.229.52.133,"Mozilla/5.0 (Windows NT 10.0; Win64; x64) AppleWebKit/537.36 (KHTML, like Gecko) Chrome/94.0.4606.61 Safari/537.36 Edg/94.0.992.31",WebKit,Edge,94.0.992.31,Windows,10.0,fe3c1d035a65c549f7011c5446f73ede
14,1,null,null,psychophysics,8,130564,0.0-3.0-1.2,"""",key,null,16.667728813558963,682.5,325,"""","""","""","""","""","""","""","""","2021-10-02 15:11:50",99.229.52.133,"Mozilla/5.0 (Windows NT 10.0; Win64; x64) AppleWebKit/537.36 (KHTML, like Gecko) Chrome/94.0.4606.61 Safari/537.36 Edg/94.0.992.31",WebKit,Edge,94.0.992.31,Windows,10.0,fe3c1d035a65c549f7011c5446f73ede
14,1,1475.2999999970198,arrowleft,psychophysics,9,132055,0.0-3.0-0.3,"""",key,arrowleft,16.66415730337063,682.5,325,4,1,-1,27,35,25,35,true,"2021-10-02 15:11:50",99.229.52.133,"Mozilla/5.0 (Windows NT 10.0; Win64; x64) AppleWebKit/537.36 (KHTML, like Gecko) Chrome/94.0.4606.61 Safari/537.36 Edg/94.0.992.31",WebKit,Edge,94.0.992.31,Windows,10.0,fe3c1d035a65c549f7011c5446f73ede
14,1,null,null,psychophysics,10,133064,0.0-3.0-1.3,"""",key,null,16.664169491525204,682.5,325,"""","""","""","""","""","""","""","""","2021-10-02 15:11:50",99.229.52.133,"Mozilla/5.0 (Windows NT 10.0; Win64; x64) AppleWebKit/537.36 (KHTML, like Gecko) Chrome/94.0.4606.61 Safari/537.36 Edg/94.0.992.31",WebKit,Edge,94.0.992.31,Windows,10.0,fe3c1d035a65c549f7011c5446f73ede
14,1,774.8999999910593,arrowright,psychophysics,11,133848,0.0-3.0-0.4,"""",key,arrowright,16.655851063830035,682.5,325,5,1,-1,30,15,25,35,false,"2021-10-02 15:11:50",99.229.52.133,"Mozilla/5.0 (Windows NT 10.0; Win64; x64) AppleWebKit/537.36 (KHTML, like Gecko) Chrome/94.0.4606.61 Safari/537.36 Edg/94.0.992.31",WebKit,Edge,94.0.992.31,Windows,10.0,fe3c1d035a65c549f7011c5446f73ede
14,1,null,null,psychophysics,12,134850,0.0-3.0-1.4,"""",key,null,16.662796610169668,682.5,325,"""","""","""","""","""","""","""","""","2021-10-02 15:11:50",99.229.52.133,"Mozilla/5.0 (Windows NT 10.0; Win64; x64) AppleWebKit/537.36 (KHTML, like Gecko) Chrome/94.0.4606.61 Safari/537.36 Edg/94.0.992.31",WebKit,Edge,94.0.992.31,Windows,10.0,fe3c1d035a65c549f7011c5446f73ede
14,1,695.0999999940395,arrowleft,psychophysics,13,135548,0.0-3.0-0.5,"""",key,arrowleft,16.662756097561214,682.5,325,6,1,1,25,15,25,35,false,"2021-10-02 15:11:50",99.229.52.133,"Mozilla/5.0 (Windows NT 10.0; Win64; x64) AppleWebKit/537.36 (KHTML, like Gecko) Chrome/94.0.4606.61 Safari/537.36 Edg/94.0.992.31",WebKit,Edge,94.0.992.31,Windows,10.0,fe3c1d035a65c549f7011c5446f73ede
14,1,null,null,psychophysics,14,136551,0.0-3.0-1.5,"""",key,null,16.662983050847117,682.5,325,"""","""","""","""","""","""","""","""","2021-10-02 15:11:50",99.229.52.133,"Mozilla/5.0 (Windows NT 10.0; Win64; x64) AppleWebKit/537.36 (KHTML, like Gecko) Chrome/94.0.4606.61 Safari/537.36 Edg/94.0.992.31",WebKit,Edge,94.0.992.31,Windows,10.0,fe3c1d035a65c549f7011c5446f73ede
14,1,610,arrowright,psychophysics,15,137164,0.0-3.0-0.6,"""",key,arrowright,16.66733333333347,682.5,325,7,1,-1,20,15,25,35,false,"2021-10-02 15:11:50",99.229.52.133,"Mozilla/5.0 (Windows NT 10.0; Win64; x64) AppleWebKit/537.36 (KHTML, like Gecko) Chrome/94.0.4606.61 Safari/537.36 Edg/94.0.992.31",WebKit,Edge,94.0.992.31,Windows,10.0,fe3c1d035a65c549f7011c5446f73ede
14,1,null,null,psychophysics,16,138165,0.0-3.0-1.6,"""",key,null,16.662322033898633,682.5,325,"""","""","""","""","""","""","""","""","2021-10-02 15:11:50",99.229.52.133,"Mozilla/5.0 (Windows NT 10.0; Win64; x64) AppleWebKit/537.36 (KHTML, like Gecko) Chrome/94.0.4606.61 Safari/537.36 Edg/94.0.992.31",WebKit,Edge,94.0.992.31,Windows,10.0,fe3c1d035a65c549f7011c5446f73ede
14,1,2239.1000000089407,arrowright,psychophysics,17,140407,0.0-3.0-0.7,"""",key,arrowright,16.663285714285745,682.5,325,8,1,-1,26,35,25,35,false,"2021-10-02 15:11:50",99.229.52.133,"Mozilla/5.0 (Windows NT 10.0; Win64; x64) AppleWebKit/537.36 (KHTML, like Gecko) Chrome/94.0.4606.61 Safari/537.36 Edg/94.0.992.31",WebKit,Edge,94.0.992.31,Windows,10.0,fe3c1d035a65c549f7011c5446f73ede
14,1,null,null,psychophysics,18,141411,0.0-3.0-1.7,"""",key,null,16.664237288135634,682.5,325,"""","""","""","""","""","""","""","""","2021-10-02 15:11:50",99.229.52.133,"Mozilla/5.0 (Windows NT 10.0; Win64; x64) AppleWebKit/537.36 (KHTML, like Gecko) Chrome/94.0.4606.61 Safari/537.36 Edg/94.0.992.31",WebKit,Edge,94.0.992.31,Windows,10.0,fe3c1d035a65c549f7011c5446f73ede
14,1,825.2000000029802,arrowright,psychophysics,19,142256,0.0-3.0-0.8,"""",key,arrowright,16.659259999999776,682.5,325,9,1,-1,24,15,25,35,false,"2021-10-02 15:11:50",99.229.52.133,"Mozilla/5.0 (Windows NT 10.0; Win64; x64) AppleWebKit/537.36 (KHTML, like Gecko) Chrome/94.0.4606.61 Safari/537.36 Edg/94.0.992.31",WebKit,Edge,94.0.992.31,Windows,10.0,fe3c1d035a65c549f7011c5446f73ede
14,1,null,null,psychophysics,20,143258,0.0-3.0-1.8,"""",key,null,16.662745762712092,682.5,325,"""","""","""","""","""","""","""","""","2021-10-02 15:11:50",99.229.52.133,"Mozilla/5.0 (Windows NT 10.0; Win64; x64) AppleWebKit/537.36 (KHTML, like Gecko) Chrome/94.0.4606.61 Safari/537.36 Edg/94.0.992.31",WebKit,Edge,94.0.992.31,Windows,10.0,fe3c1d035a65c549f7011c5446f73ede
14,1,532.2000000029802,arrowright,psychophysics,21,143796,0.0-3.0-0.9,"""",key,arrowright,16.662312499999643,682.5,325,10,1,-1,24,15,25,35,false,"2021-10-02 15:11:50",99.229.52.133,"Mozilla/5.0 (Windows NT 10.0; Win64; x64) AppleWebKit/537.36 (KHTML, like Gecko) Chrome/94.0.4606.61 Safari/537.36 Edg/94.0.992.31",WebKit,Edge,94.0.992.31,Windows,10.0,fe3c1d035a65c549f7011c5446f73ede
14,1,null,null,psychophysics,22,144798,0.0-3.0-1.9,"""",key,null,16.662101694915474,682.5,325,"""","""","""","""","""","""","""","""","2021-10-02 15:11:50",99.229.52.133,"Mozilla/5.0 (Windows NT 10.0; Win64; x64) AppleWebKit/537.36 (KHTML, like Gecko) Chrome/94.0.4606.61 Safari/537.36 Edg/94.0.992.31",WebKit,Edge,94.0.992.31,Windows,10.0,fe3c1d035a65c549f7011c5446f73ede
14,1,471.69999998807907,arrowleft,psychophysics,23,145271,0.0-3.0-0.10,"""",key,arrowleft,16.661555555555324,682.5,325,11,1,1,26,15,25,35,false,"2021-10-02 15:11:50",99.229.52.133,"Mozilla/5.0 (Windows NT 10.0; Win64; x64) AppleWebKit/537.36 (KHTML, like Gecko) Chrome/94.0.4606.61 Safari/537.36 Edg/94.0.992.31",WebKit,Edge,94.0.992.31,Windows,10.0,fe3c1d035a65c549f7011c5446f73ede
14,1,null,null,psychophysics,24,146273,0.0-3.0-1.10,"""",key,null,16.66323728813549,682.5,325,"""","""","""","""","""","""","""","""","2021-10-02 15:11:50",99.229.52.133,"Mozilla/5.0 (Windows NT 10.0; Win64; x64) AppleWebKit/537.36 (KHTML, like Gecko) Chrome/94.0.4606.61 Safari/537.36 Edg/94.0.992.31",WebKit,Edge,94.0.992.31,Windows,10.0,fe3c1d035a65c549f7011c5446f73ede
14,1,1337.6000000089407,arrowleft,psychophysics,25,147614,0.0-3.0-0.11,"""",key,arrowleft,16.662662500000078,682.5,325,12,1,1,23,35,25,35,false,"2021-10-02 15:11:50",99.229.52.133,"Mozilla/5.0 (Windows NT 10.0; Win64; x64) AppleWebKit/537.36 (KHTML, like Gecko) Chrome/94.0.4606.61 Safari/537.36 Edg/94.0.992.31",WebKit,Edge,94.0.992.31,Windows,10.0,fe3c1d035a65c549f7011c5446f73ede
14,1,null,null,psychophysics,26,148617,0.0-3.0-1.11,"""",key,null,16.663271186440706,682.5,325,"""","""","""","""","""","""","""","""","2021-10-02 15:11:50",99.229.52.133,"Mozilla/5.0 (Windows NT 10.0; Win64; x64) AppleWebKit/537.36 (KHTML, like Gecko) Chrome/94.0.4606.61 Safari/537.36 Edg/94.0.992.31",WebKit,Edge,94.0.992.31,Windows,10.0,fe3c1d035a65c549f7011c5446f73ede
14,1,2676.0999999940395,arrowright,psychophysics,27,151295,0.0-3.0-0.12,"""",key,arrowright,16.662624999999935,682.5,325,13,1,-1,24,35,25,35,false,"2021-10-02 15:11:50",99.229.52.133,"Mozilla/5.0 (Windows NT 10.0; Win64; x64) AppleWebKit/537.36 (KHTML, like Gecko) Chrome/94.0.4606.61 Safari/537.36 Edg/94.0.992.31",WebKit,Edge,94.0.992.31,Windows,10.0,fe3c1d035a65c549f7011c5446f73ede
14,1,null,null,psychophysics,28,152296,0.0-3.0-1.12,"""",key,null,16.662762711864453,682.5,325,"""","""","""","""","""","""","""","""","2021-10-02 15:11:50",99.229.52.133,"Mozilla/5.0 (Windows NT 10.0; Win64; x64) AppleWebKit/537.36 (KHTML, like Gecko) Chrome/94.0.4606.61 Safari/537.36 Edg/94.0.992.31",WebKit,Edge,94.0.992.31,Windows,10.0,fe3c1d035a65c549f7011c5446f73ede
14,1,2634.4000000059605,arrowleft,psychophysics,29,154934,0.0-3.0-0.13,"""",key,arrowleft,16.66266242038217,682.5,325,14,1,1,26,35,25,35,false,"2021-10-02 15:11:50",99.229.52.133,"Mozilla/5.0 (Windows NT 10.0; Win64; x64) AppleWebKit/537.36 (KHTML, like Gecko) Chrome/94.0.4606.61 Safari/537.36 Edg/94.0.992.31",WebKit,Edge,94.0.992.31,Windows,10.0,fe3c1d035a65c549f7011c5446f73ede
14,1,null,null,psychophysics,30,155941,0.0-3.0-1.13,"""",key,null,16.66362711864423,682.5,325,"""","""","""","""","""","""","""","""","2021-10-02 15:11:50",99.229.52.133,"Mozilla/5.0 (Windows NT 10.0; Win64; x64) AppleWebKit/537.36 (KHTML, like Gecko) Chrome/94.0.4606.61 Safari/537.36 Edg/94.0.992.31",WebKit,Edge,94.0.992.31,Windows,10.0,fe3c1d035a65c549f7011c5446f73ede
14,1,1458.5999999940395,arrowleft,psychophysics,31,157406,0.0-3.0-0.14,"""",key,arrowleft,16.662011494252887,682.5,325,15,1,-1,30,35,25,35,true,"2021-10-02 15:11:50",99.229.52.133,"Mozilla/5.0 (Windows NT 10.0; Win64; x64) AppleWebKit/537.36 (KHTML, like Gecko) Chrome/94.0.4606.61 Safari/537.36 Edg/94.0.992.31",WebKit,Edge,94.0.992.31,Windows,10.0,fe3c1d035a65c549f7011c5446f73ede
14,1,null,null,psychophysics,32,158411,0.0-3.0-1.14,"""",key,null,16.661616666666912,682.5,325,"""","""","""","""","""","""","""","""","2021-10-02 15:11:50",99.229.52.133,"Mozilla/5.0 (Windows NT 10.0; Win64; x64) AppleWebKit/537.36 (KHTML, like Gecko) Chrome/94.0.4606.61 Safari/537.36 Edg/94.0.992.31",WebKit,Edge,94.0.992.31,Windows,10.0,fe3c1d035a65c549f7011c5446f73ede
14,1,1636.199999988079,arrowleft,psychophysics,33,160050,0.0-3.0-0.15,"""",key,arrowleft,16.664587628865945,682.5,325,16,1,-1,24,35,25,35,true,"2021-10-02 15:11:50",99.229.52.133,"Mozilla/5.0 (Windows NT 10.0; Win64; x64) AppleWebKit/537.36 (KHTML, like Gecko) Chrome/94.0.4606.61 Safari/537.36 Edg/94.0.992.31",WebKit,Edge,94.0.992.31,Windows,10.0,fe3c1d035a65c549f7011c5446f73ede
14,1,null,null,psychophysics,34,161053,0.0-3.0-1.15,"""",key,null,16.65976271186452,682.5,325,"""","""","""","""","""","""","""","""","2021-10-02 15:11:50",99.229.52.133,"Mozilla/5.0 (Windows NT 10.0; Win64; x64) AppleWebKit/537.36 (KHTML, like Gecko) Chrome/94.0.4606.61 Safari/537.36 Edg/94.0.992.31",WebKit,Edge,94.0.992.31,Windows,10.0,fe3c1d035a65c549f7011c5446f73ede
14,1,594.8999999910593,arrowleft,psychophysics,35,161664,0.0-3.0-0.16,"""",key,arrowleft,16.665916666666615,682.5,325,17,1,1,27,15,25,35,false,"2021-10-02 15:11:50",99.229.52.133,"Mozilla/5.0 (Windows NT 10.0; Win64; x64) AppleWebKit/537.36 (KHTML, like Gecko) Chrome/94.0.4606.61 Safari/537.36 Edg/94.0.992.31",WebKit,Edge,94.0.992.31,Windows,10.0,fe3c1d035a65c549f7011c5446f73ede
14,1,null,null,psychophysics,36,162669,0.0-3.0-1.16,"""",key,null,16.660847457627455,682.5,325,"""","""","""","""","""","""","""","""","2021-10-02 15:11:50",99.229.52.133,"Mozilla/5.0 (Windows NT 10.0; Win64; x64) AppleWebKit/537.36 (KHTML, like Gecko) Chrome/94.0.4606.61 Safari/537.36 Edg/94.0.992.31",WebKit,Edge,94.0.992.31,Windows,10.0,fe3c1d035a65c549f7011c5446f73ede
14,1,572.4000000059605,arrowleft,psychophysics,37,163244,0.0-3.0-0.17,"""",key,arrowleft,16.666558823529424,682.5,325,18,1,1,27,15,25,35,false,"2021-10-02 15:11:50",99.229.52.133,"Mozilla/5.0 (Windows NT 10.0; Win64; x64) AppleWebKit/537.36 (KHTML, like Gecko) Chrome/94.0.4606.61 Safari/537.36 Edg/94.0.992.31",WebKit,Edge,94.0.992.31,Windows,10.0,fe3c1d035a65c549f7011c5446f73ede
14,1,null,null,psychophysics,38,164247,0.0-3.0-1.17,"""",key,null,17.5529285714287,682.5,325,"""","""","""","""","""","""","""","""","2021-10-02 15:11:50",99.229.52.133,"Mozilla/5.0 (Windows NT 10.0; Win64; x64) AppleWebKit/537.36 (KHTML, like Gecko) Chrome/94.0.4606.61 Safari/537.36 Edg/94.0.992.31",WebKit,Edge,94.0.992.31,Windows,10.0,fe3c1d035a65c549f7011c5446f73ede
14,1,805.2999999970198,arrowleft,psychophysics,39,165054,0.0-3.0-0.18,"""",key,arrowleft,16.66370212765933,682.5,325,19,1,1,27,15,25,35,false,"2021-10-02 15:11:50",99.229.52.133,"Mozilla/5.0 (Windows NT 10.0; Win64; x64) AppleWebKit/537.36 (KHTML, like Gecko) Chrome/94.0.4606.61 Safari/537.36 Edg/94.0.992.31",WebKit,Edge,94.0.992.31,Windows,10.0,fe3c1d035a65c549f7011c5446f73ede
14,1,null,null,psychophysics,40,166056,0.0-3.0-1.18,"""",key,null,16.66362711864423,682.5,325,"""","""","""","""","""","""","""","""","2021-10-02 15:11:50",99.229.52.133,"Mozilla/5.0 (Windows NT 10.0; Win64; x64) AppleWebKit/537.36 (KHTML, like Gecko) Chrome/94.0.4606.61 Safari/537.36 Edg/94.0.992.31",WebKit,Edge,94.0.992.31,Windows,10.0,fe3c1d035a65c549f7011c5446f73ede
14,1,2220,arrowright,psychophysics,41,168279,0.0-3.0-0.19,"""",key,arrowright,16.663075187969802,682.5,325,20,1,-1,20,35,25,35,false,"2021-10-02 15:11:50",99.229.52.133,"Mozilla/5.0 (Windows NT 10.0; Win64; x64) AppleWebKit/537.36 (KHTML, like Gecko) Chrome/94.0.4606.61 Safari/537.36 Edg/94.0.992.31",WebKit,Edge,94.0.992.31,Windows,10.0,fe3c1d035a65c549f7011c5446f73ede
14,1,null,null,psychophysics,42,169281,0.0-3.0-1.19,"""",key,null,16.664847457627037,682.5,325,"""","""","""","""","""","""","""","""","2021-10-02 15:11:50",99.229.52.133,"Mozilla/5.0 (Windows NT 10.0; Win64; x64) AppleWebKit/537.36 (KHTML, like Gecko) Chrome/94.0.4606.61 Safari/537.36 Edg/94.0.992.31",WebKit,Edge,94.0.992.31,Windows,10.0,fe3c1d035a65c549f7011c5446f73ede
14,1,547.9000000059605,arrowleft,psychophysics,43,169832,0.0-3.0-0.20,"""",key,arrowleft,16.663437500000327,682.5,325,21,1,1,20,15,25,35,false,"2021-10-02 15:11:50",99.229.52.133,"Mozilla/5.0 (Windows NT 10.0; Win64; x64) AppleWebKit/537.36 (KHTML, like Gecko) Chrome/94.0.4606.61 Safari/537.36 Edg/94.0.992.31",WebKit,Edge,94.0.992.31,Windows,10.0,fe3c1d035a65c549f7011c5446f73ede
14,1,null,null,psychophysics,44,170835,0.0-3.0-1.20,"""",key,null,16.66230508474578,682.5,325,"""","""","""","""","""","""","""","""","2021-10-02 15:11:50",99.229.52.133,"Mozilla/5.0 (Windows NT 10.0; Win64; x64) AppleWebKit/537.36 (KHTML, like Gecko) Chrome/94.0.4606.61 Safari/537.36 Edg/94.0.992.31",WebKit,Edge,94.0.992.31,Windows,10.0,fe3c1d035a65c549f7011c5446f73ede
14,1,391.59999999403954,arrowright,psychophysics,45,171244,0.0-3.0-0.21,"""",key,arrowright,16.662916666666813,682.5,325,22,1,-1,30,15,25,35,false,"2021-10-02 15:11:50",99.229.52.133,"Mozilla/5.0 (Windows NT 10.0; Win64; x64) AppleWebKit/537.36 (KHTML, like Gecko) Chrome/94.0.4606.61 Safari/537.36 Edg/94.0.992.31",WebKit,Edge,94.0.992.31,Windows,10.0,fe3c1d035a65c549f7011c5446f73ede
14,1,null,null,psychophysics,46,172246,0.0-3.0-1.21,"""",key,null,16.663762711864596,682.5,325,"""","""","""","""","""","""","""","""","2021-10-02 15:11:50",99.229.52.133,"Mozilla/5.0 (Windows NT 10.0; Win64; x64) AppleWebKit/537.36 (KHTML, like Gecko) Chrome/94.0.4606.61 Safari/537.36 Edg/94.0.992.31",WebKit,Edge,94.0.992.31,Windows,10.0,fe3c1d035a65c549f7011c5446f73ede
14,1,522.2000000029802,arrowleft,psychophysics,47,172774,0.0-3.0-0.22,"""",key,arrowleft,16.658193548386468,682.5,325,23,1,1,23,15,25,35,false,"2021-10-02 15:11:50",99.229.52.133,"Mozilla/5.0 (Windows NT 10.0; Win64; x64) AppleWebKit/537.36 (KHTML, like Gecko) Chrome/94.0.4606.61 Safari/537.36 Edg/94.0.992.31",WebKit,Edge,94.0.992.31,Windows,10.0,fe3c1d035a65c549f7011c5446f73ede
14,1,null,null,psychophysics,48,173777,0.0-3.0-1.22,"""",key,null,16.66240677966093,682.5,325,"""","""","""","""","""","""","""","""","2021-10-02 15:11:50",99.229.52.133,"Mozilla/5.0 (Windows NT 10.0; Win64; x64) AppleWebKit/537.36 (KHTML, like Gecko) Chrome/94.0.4606.61 Safari/537.36 Edg/94.0.992.31",WebKit,Edge,94.0.992.31,Windows,10.0,fe3c1d035a65c549f7011c5446f73ede
14,1,1390.2000000029802,arrowright,psychophysics,49,175172,0.0-3.0-0.23,"""",key,arrowright,16.662626506024004,682.5,325,24,1,1,20,35,25,35,true,"2021-10-02 15:11:50",99.229.52.133,"Mozilla/5.0 (Windows NT 10.0; Win64; x64) AppleWebKit/537.36 (KHTML, like Gecko) Chrome/94.0.4606.61 Safari/537.36 Edg/94.0.992.31",WebKit,Edge,94.0.992.31,Windows,10.0,fe3c1d035a65c549f7011c5446f73ede
14,1,null,null,psychophysics,50,176175,0.0-3.0-1.23,"""",key,null,16.66505084745783,682.5,325,"""","""","""","""","""","""","""","""","2021-10-02 15:11:50",99.229.52.133,"Mozilla/5.0 (Windows NT 10.0; Win64; x64) AppleWebKit/537.36 (KHTML, like Gecko) Chrome/94.0.4606.61 Safari/537.36 Edg/94.0.992.31",WebKit,Edge,94.0.992.31,Windows,10.0,fe3c1d035a65c549f7011c5446f73ede
14,1,415.80000001192093,arrowright,psychophysics,51,176596,0.0-3.0-0.24,"""",key,arrowright,16.66104166666749,682.5,325,25,1,-1,23,15,25,35,false,"2021-10-02 15:11:50",99.229.52.133,"Mozilla/5.0 (Windows NT 10.0; Win64; x64) AppleWebKit/537.36 (KHTML, like Gecko) Chrome/94.0.4606.61 Safari/537.36 Edg/94.0.992.31",WebKit,Edge,94.0.992.31,Windows,10.0,fe3c1d035a65c549f7011c5446f73ede
14,1,null,null,psychophysics,52,177599,0.0-3.0-1.24,"""",key,null,16.66167796610152,682.5,325,"""","""","""","""","""","""","""","""","2021-10-02 15:11:50",99.229.52.133,"Mozilla/5.0 (Windows NT 10.0; Win64; x64) AppleWebKit/537.36 (KHTML, like Gecko) Chrome/94.0.4606.61 Safari/537.36 Edg/94.0.992.31",WebKit,Edge,94.0.992.31,Windows,10.0,fe3c1d035a65c549f7011c5446f73ede
14,1,486.5,arrowleft,psychophysics,53,178095,0.0-3.0-0.25,"""",key,arrowleft,16.665931034482945,682.5,325,26,1,-1,25,35,25,35,true,"2021-10-02 15:11:50",99.229.52.133,"Mozilla/5.0 (Windows NT 10.0; Win64; x64) AppleWebKit/537.36 (KHTML, like Gecko) Chrome/94.0.4606.61 Safari/537.36 Edg/94.0.992.31",WebKit,Edge,94.0.992.31,Windows,10.0,fe3c1d035a65c549f7011c5446f73ede
14,1,null,null,psychophysics,54,179098,0.0-3.0-1.25,"""",key,null,16.65976271186452,682.5,325,"""","""","""","""","""","""","""","""","2021-10-02 15:11:50",99.229.52.133,"Mozilla/5.0 (Windows NT 10.0; Win64; x64) AppleWebKit/537.36 (KHTML, like Gecko) Chrome/94.0.4606.61 Safari/537.36 Edg/94.0.992.31",WebKit,Edge,94.0.992.31,Windows,10.0,fe3c1d035a65c549f7011c5446f73ede
14,1,893.7999999970198,arrowright,psychophysics,55,179996,0.0-3.0-0.26,"""",key,arrowright,16.662773584905807,682.5,325,27,1,-1,20,35,25,35,false,"2021-10-02 15:11:50",99.229.52.133,"Mozilla/5.0 (Windows NT 10.0; Win64; x64) AppleWebKit/537.36 (KHTML, like Gecko) Chrome/94.0.4606.61 Safari/537.36 Edg/94.0.992.31",WebKit,Edge,94.0.992.31,Windows,10.0,fe3c1d035a65c549f7011c5446f73ede
14,1,null,null,psychophysics,56,180997,0.0-3.0-1.26,"""",key,null,16.66345762711865,682.5,325,"""","""","""","""","""","""","""","""","2021-10-02 15:11:50",99.229.52.133,"Mozilla/5.0 (Windows NT 10.0; Win64; x64) AppleWebKit/537.36 (KHTML, like Gecko) Chrome/94.0.4606.61 Safari/537.36 Edg/94.0.992.31",WebKit,Edge,94.0.992.31,Windows,10.0,fe3c1d035a65c549f7011c5446f73ede
14,1,992.1999999880791,arrowleft,psychophysics,57,181991,0.0-3.0-0.27,"""",key,arrowleft,16.66281355932203,682.5,325,28,2,-1,27,35,25,35,true,"2021-10-02 15:11:50",99.229.52.133,"Mozilla/5.0 (Windows NT 10.0; Win64; x64) AppleWebKit/537.36 (KHTML, like Gecko) Chrome/94.0.4606.61 Safari/537.36 Edg/94.0.992.31",WebKit,Edge,94.0.992.31,Windows,10.0,fe3c1d035a65c549f7011c5446f73ede
14,1,null,null,psychophysics,58,182994,0.0-3.0-1.27,"""",key,null,16.66183050847425,682.5,325,"""","""","""","""","""","""","""","""","2021-10-02 15:11:50",99.229.52.133,"Mozilla/5.0 (Windows NT 10.0; Win64; x64) AppleWebKit/537.36 (KHTML, like Gecko) Chrome/94.0.4606.61 Safari/537.36 Edg/94.0.992.31",WebKit,Edge,94.0.992.31,Windows,10.0,fe3c1d035a65c549f7011c5446f73ede
14,1,39050.90000000596,arrowleft,html-keyboard-response,59,222040,0.0-3.0-2.27-0.27,"<div style=""color: white; text-align: center; vertical-align: top; display: inline-block; width: 800px; margin: auto""><p>You have completed 10% of the trials. You are on block 2 of 10. <br>Good job! Take a break if you need to.</p><p>Press any key to continue the experiment.</p></div>","""","""","""","""","""","""","""","""","""","""","""","""","""","2021-10-02 15:11:50",99.229.52.133,"Mozilla/5.0 (Windows NT 10.0; Win64; x64) AppleWebKit/537.36 (KHTML, like Gecko) Chrome/94.0.4606.61 Safari/537.36 Edg/94.0.992.31",WebKit,Edge,94.0.992.31,Windows,10.0,fe3c1d035a65c549f7011c5446f73ede
14,1,584.9000000059605,arrowleft,psychophysics,60,223647,0.0-3.0-0.28,"""",key,arrowleft,16.659371428570843,682.5,325,29,2,1,23,15,25,35,false,"2021-10-02 15:11:50",99.229.52.133,"Mozilla/5.0 (Windows NT 10.0; Win64; x64) AppleWebKit/537.36 (KHTML, like Gecko) Chrome/94.0.4606.61 Safari/537.36 Edg/94.0.992.31",WebKit,Edge,94.0.992.31,Windows,10.0,fe3c1d035a65c549f7011c5446f73ede
14,1,null,null,psychophysics,61,224650,0.0-3.0-1.28,"""",key,null,16.664983050847404,682.5,325,"""","""","""","""","""","""","""","""","2021-10-02 15:11:50",99.229.52.133,"Mozilla/5.0 (Windows NT 10.0; Win64; x64) AppleWebKit/537.36 (KHTML, like Gecko) Chrome/94.0.4606.61 Safari/537.36 Edg/94.0.992.31",WebKit,Edge,94.0.992.31,Windows,10.0,fe3c1d035a65c549f7011c5446f73ede
14,1,3501.5,arrowright,psychophysics,62,228163,0.0-3.0-0.29,"""",key,arrowright,16.6635000000001,682.5,325,30,2,-1,26,15,25,35,false,"2021-10-02 15:11:50",99.229.52.133,"Mozilla/5.0 (Windows NT 10.0; Win64; x64) AppleWebKit/537.36 (KHTML, like Gecko) Chrome/94.0.4606.61 Safari/537.36 Edg/94.0.992.31",WebKit,Edge,94.0.992.31,Windows,10.0,fe3c1d035a65c549f7011c5446f73ede
14,1,null,null,psychophysics,63,229165,0.0-3.0-1.29,"""",key,null,16.666203389830702,682.5,325,"""","""","""","""","""","""","""","""","2021-10-02 15:11:50",99.229.52.133,"Mozilla/5.0 (Windows NT 10.0; Win64; x64) AppleWebKit/537.36 (KHTML, like Gecko) Chrome/94.0.4606.61 Safari/537.36 Edg/94.0.992.31",WebKit,Edge,94.0.992.31,Windows,10.0,fe3c1d035a65c549f7011c5446f73ede
14,1,8343,arrowright,psychophysics,64,237516,0.0-3.0-0.30,"""",key,arrowright,16.66274199999997,682.5,325,31,2,-1,26,35,25,35,false,"2021-10-02 15:11:50",99.229.52.133,"Mozilla/5.0 (Windows NT 10.0; Win64; x64) AppleWebKit/537.36 (KHTML, like Gecko) Chrome/94.0.4606.61 Safari/537.36 Edg/94.0.992.31",WebKit,Edge,94.0.992.31,Windows,10.0,fe3c1d035a65c549f7011c5446f73ede
14,1,null,null,psychophysics,65,238523,0.0-3.0-1.30,"""",key,null,16.66213333333338,682.5,325,"""","""","""","""","""","""","""","""","2021-10-02 15:11:50",99.229.52.133,"Mozilla/5.0 (Windows NT 10.0; Win64; x64) AppleWebKit/537.36 (KHTML, like Gecko) Chrome/94.0.4606.61 Safari/537.36 Edg/94.0.992.31",WebKit,Edge,94.0.992.31,Windows,10.0,fe3c1d035a65c549f7011c5446f73ede
14,1,598.7000000029802,arrowright,psychophysics,66,239127,0.0-3.0-0.31,"""",key,arrowright,16.669342857142745,682.5,325,32,2,1,30,15,25,35,true,"2021-10-02 15:11:50",99.229.52.133,"Mozilla/5.0 (Windows NT 10.0; Win64; x64) AppleWebKit/537.36 (KHTML, like Gecko) Chrome/94.0.4606.61 Safari/537.36 Edg/94.0.992.31",WebKit,Edge,94.0.992.31,Windows,10.0,fe3c1d035a65c549f7011c5446f73ede
14,1,null,null,psychophysics,67,240130,0.0-3.0-1.31,"""",key,null,16.664830508474676,682.5,325,"""","""","""","""","""","""","""","""","2021-10-02 15:11:50",99.229.52.133,"Mozilla/5.0 (Windows NT 10.0; Win64; x64) AppleWebKit/537.36 (KHTML, like Gecko) Chrome/94.0.4606.61 Safari/537.36 Edg/94.0.992.31",WebKit,Edge,94.0.992.31,Windows,10.0,fe3c1d035a65c549f7011c5446f73ede
14,1,26081.39999999106,arrowright,psychophysics,68,266220,0.0-3.0-0.32,"""",key,arrowright,16.662606389776354,682.5,325,33,2,-1,25,35,25,35,false,"2021-10-02 15:11:50",99.229.52.133,"Mozilla/5.0 (Windows NT 10.0; Win64; x64) AppleWebKit/537.36 (KHTML, like Gecko) Chrome/94.0.4606.61 Safari/537.36 Edg/94.0.992.31",WebKit,Edge,94.0.992.31,Windows,10.0,fe3c1d035a65c549f7011c5446f73ede
14,1,null,null,psychophysics,69,267232,0.0-3.0-1.32,"""",key,null,16.665833333333527,682.5,325,"""","""","""","""","""","""","""","""","2021-10-02 15:11:50",99.229.52.133,"Mozilla/5.0 (Windows NT 10.0; Win64; x64) AppleWebKit/537.36 (KHTML, like Gecko) Chrome/94.0.4606.61 Safari/537.36 Edg/94.0.992.31",WebKit,Edge,94.0.992.31,Windows,10.0,fe3c1d035a65c549f7011c5446f73ede
14,1,823.2000000029802,arrowright,psychophysics,70,268057,0.0-3.0-0.33,"""",key,arrowright,16.66895833333304,682.5,325,34,2,1,30,15,25,35,true,"2021-10-02 15:11:50",99.229.52.133,"Mozilla/5.0 (Windows NT 10.0; Win64; x64) AppleWebKit/537.36 (KHTML, like Gecko) Chrome/94.0.4606.61 Safari/537.36 Edg/94.0.992.31",WebKit,Edge,94.0.992.31,Windows,10.0,fe3c1d035a65c549f7011c5446f73ede
14,1,null,null,psychophysics,71,269060,0.0-3.0-1.33,"""",key,null,16.66221666666679,682.5,325,"""","""","""","""","""","""","""","""","2021-10-02 15:11:50",99.229.52.133,"Mozilla/5.0 (Windows NT 10.0; Win64; x64) AppleWebKit/537.36 (KHTML, like Gecko) Chrome/94.0.4606.61 Safari/537.36 Edg/94.0.992.31",WebKit,Edge,94.0.992.31,Windows,10.0,fe3c1d035a65c549f7011c5446f73ede
14,1,3677,arrowleft,psychophysics,72,272744,0.0-3.0-0.34,"""",key,arrowleft,16.662100000000052,682.5,325,35,2,-1,25,35,25,35,true,"2021-10-02 15:11:50",99.229.52.133,"Mozilla/5.0 (Windows NT 10.0; Win64; x64) AppleWebKit/537.36 (KHTML, like Gecko) Chrome/94.0.4606.61 Safari/537.36 Edg/94.0.992.31",WebKit,Edge,94.0.992.31,Windows,10.0,fe3c1d035a65c549f7011c5446f73ede
14,1,null,null,psychophysics,73,273751,0.0-3.0-1.34,"""",key,null,16.666694915253604,682.5,325,"""","""","""","""","""","""","""","""","2021-10-02 15:11:50",99.229.52.133,"Mozilla/5.0 (Windows NT 10.0; Win64; x64) AppleWebKit/537.36 (KHTML, like Gecko) Chrome/94.0.4606.61 Safari/537.36 Edg/94.0.992.31",WebKit,Edge,94.0.992.31,Windows,10.0,fe3c1d035a65c549f7011c5446f73ede
14,1,2438.2000000029802,arrowleft,psychophysics,74,276194,0.0-3.0-0.35,"""",key,arrowleft,16.662280821918003,682.5,325,36,2,1,20,15,25,35,false,"2021-10-02 15:11:50",99.229.52.133,"Mozilla/5.0 (Windows NT 10.0; Win64; x64) AppleWebKit/537.36 (KHTML, like Gecko) Chrome/94.0.4606.61 Safari/537.36 Edg/94.0.992.31",WebKit,Edge,94.0.992.31,Windows,10.0,fe3c1d035a65c549f7011c5446f73ede
14,1,null,null,psychophysics,75,277198,0.0-3.0-1.35,"""",key,null,16.666813559322105,682.5,325,"""","""","""","""","""","""","""","""","2021-10-02 15:11:50",99.229.52.133,"Mozilla/5.0 (Windows NT 10.0; Win64; x64) AppleWebKit/537.36 (KHTML, like Gecko) Chrome/94.0.4606.61 Safari/537.36 Edg/94.0.992.31",WebKit,Edge,94.0.992.31,Windows,10.0,fe3c1d035a65c549f7011c5446f73ede
14,1,1072.2999999970198,arrowleft,psychophysics,76,278278,0.0-3.0-0.36,"""",key,arrowleft,16.662796875000822,682.5,325,37,2,-1,26,15,25,35,true,"2021-10-02 15:11:50",99.229.52.133,"Mozilla/5.0 (Windows NT 10.0; Win64; x64) AppleWebKit/537.36 (KHTML, like Gecko) Chrome/94.0.4606.61 Safari/537.36 Edg/94.0.992.31",WebKit,Edge,94.0.992.31,Windows,10.0,fe3c1d035a65c549f7011c5446f73ede
14,1,null,null,psychophysics,77,279284,0.0-3.0-1.36,"""",key,null,16.6616440677968,682.5,325,"""","""","""","""","""","""","""","""","2021-10-02 15:11:50",99.229.52.133,"Mozilla/5.0 (Windows NT 10.0; Win64; x64) AppleWebKit/537.36 (KHTML, like Gecko) Chrome/94.0.4606.61 Safari/537.36 Edg/94.0.992.31",WebKit,Edge,94.0.992.31,Windows,10.0,fe3c1d035a65c549f7011c5446f73ede
14,1,1382.1000000089407,arrowright,psychophysics,78,280670,0.0-3.0-0.37,"""",key,arrowright,16.662548780487423,682.5,325,38,2,1,27,35,25,35,true,"2021-10-02 15:11:50",99.229.52.133,"Mozilla/5.0 (Windows NT 10.0; Win64; x64) AppleWebKit/537.36 (KHTML, like Gecko) Chrome/94.0.4606.61 Safari/537.36 Edg/94.0.992.31",WebKit,Edge,94.0.992.31,Windows,10.0,fe3c1d035a65c549f7011c5446f73ede
14,1,null,null,psychophysics,79,281674,0.0-3.0-1.37,"""",key,null,16.662266666667225,682.5,325,"""","""","""","""","""","""","""","""","2021-10-02 15:11:50",99.229.52.133,"Mozilla/5.0 (Windows NT 10.0; Win64; x64) AppleWebKit/537.36 (KHTML, like Gecko) Chrome/94.0.4606.61 Safari/537.36 Edg/94.0.992.31",WebKit,Edge,94.0.992.31,Windows,10.0,fe3c1d035a65c549f7011c5446f73ede
14,1,2002,arrowleft,psychophysics,80,283695,0.0-3.0-0.38,"""",key,arrowleft,16.661741666667027,682.5,325,39,2,-1,24,15,25,35,true,"2021-10-02 15:11:50",99.229.52.133,"Mozilla/5.0 (Windows NT 10.0; Win64; x64) AppleWebKit/537.36 (KHTML, like Gecko) Chrome/94.0.4606.61 Safari/537.36 Edg/94.0.992.31",WebKit,Edge,94.0.992.31,Windows,10.0,fe3c1d035a65c549f7011c5446f73ede
14,1,null,null,psychophysics,81,284700,0.0-3.0-1.38,"""",key,null,16.658864406780022,682.5,325,"""","""","""","""","""","""","""","""","2021-10-02 15:11:50",99.229.52.133,"Mozilla/5.0 (Windows NT 10.0; Win64; x64) AppleWebKit/537.36 (KHTML, like Gecko) Chrome/94.0.4606.61 Safari/537.36 Edg/94.0.992.31",WebKit,Edge,94.0.992.31,Windows,10.0,fe3c1d035a65c549f7011c5446f73ede
14,1,1971.2000000029802,arrowright,psychophysics,82,286674,0.0-3.0-0.39,"""",key,arrowright,16.66309401709397,682.5,325,40,2,1,26,35,25,35,true,"2021-10-02 15:11:50",99.229.52.133,"Mozilla/5.0 (Windows NT 10.0; Win64; x64) AppleWebKit/537.36 (KHTML, like Gecko) Chrome/94.0.4606.61 Safari/537.36 Edg/94.0.992.31",WebKit,Edge,94.0.992.31,Windows,10.0,fe3c1d035a65c549f7011c5446f73ede
14,1,null,null,psychophysics,83,287678,0.0-3.0-1.39,"""",key,null,16.6626999999998,682.5,325,"""","""","""","""","""","""","""","""","2021-10-02 15:11:50",99.229.52.133,"Mozilla/5.0 (Windows NT 10.0; Win64; x64) AppleWebKit/537.36 (KHTML, like Gecko) Chrome/94.0.4606.61 Safari/537.36 Edg/94.0.992.31",WebKit,Edge,94.0.992.31,Windows,10.0,fe3c1d035a65c549f7011c5446f73ede
14,1,2157.4000000059605,arrowleft,psychophysics,84,289841,0.0-3.0-0.40,"""",key,arrowleft,16.66167187500014,682.5,325,41,2,-1,25,15,25,35,true,"2021-10-02 15:11:50",99.229.52.133,"Mozilla/5.0 (Windows NT 10.0; Win64; x64) AppleWebKit/537.36 (KHTML, like Gecko) Chrome/94.0.4606.61 Safari/537.36 Edg/94.0.992.31",WebKit,Edge,94.0.992.31,Windows,10.0,fe3c1d035a65c549f7011c5446f73ede
14,1,null,null,psychophysics,85,290846,0.0-3.0-1.40,"""",key,null,16.66158333333345,682.5,325,"""","""","""","""","""","""","""","""","2021-10-02 15:11:50",99.229.52.133,"Mozilla/5.0 (Windows NT 10.0; Win64; x64) AppleWebKit/537.36 (KHTML, like Gecko) Chrome/94.0.4606.61 Safari/537.36 Edg/94.0.992.31",WebKit,Edge,94.0.992.31,Windows,10.0,fe3c1d035a65c549f7011c5446f73ede
14,1,8014.20000000298,arrowright,psychophysics,86,298863,0.0-3.0-0.41,"""",key,arrowright,16.66307916666665,682.5,325,42,2,-1,24,35,25,35,false,"2021-10-02 15:11:50",99.229.52.133,"Mozilla/5.0 (Windows NT 10.0; Win64; x64) AppleWebKit/537.36 (KHTML, like Gecko) Chrome/94.0.4606.61 Safari/537.36 Edg/94.0.992.31",WebKit,Edge,94.0.992.31,Windows,10.0,fe3c1d035a65c549f7011c5446f73ede
14,1,null,null,psychophysics,87,299871,0.0-3.0-1.41,"""",key,null,16.66440677966023,682.5,325,"""","""","""","""","""","""","""","""","2021-10-02 15:11:50",99.229.52.133,"Mozilla/5.0 (Windows NT 10.0; Win64; x64) AppleWebKit/537.36 (KHTML, like Gecko) Chrome/94.0.4606.61 Safari/537.36 Edg/94.0.992.31",WebKit,Edge,94.0.992.31,Windows,10.0,fe3c1d035a65c549f7011c5446f73ede
14,1,1275.300000011921,arrowleft,psychophysics,88,301155,0.0-3.0-0.42,"""",key,arrowleft,16.662631578947185,682.5,325,43,2,-1,23,15,25,35,true,"2021-10-02 15:11:50",99.229.52.133,"Mozilla/5.0 (Windows NT 10.0; Win64; x64) AppleWebKit/537.36 (KHTML, like Gecko) Chrome/94.0.4606.61 Safari/537.36 Edg/94.0.992.31",WebKit,Edge,94.0.992.31,Windows,10.0,fe3c1d035a65c549f7011c5446f73ede
14,1,null,null,psychophysics,89,302157,0.0-3.0-1.42,"""",key,null,16.66626666666707,682.5,325,"""","""","""","""","""","""","""","""","2021-10-02 15:11:50",99.229.52.133,"Mozilla/5.0 (Windows NT 10.0; Win64; x64) AppleWebKit/537.36 (KHTML, like Gecko) Chrome/94.0.4606.61 Safari/537.36 Edg/94.0.992.31",WebKit,Edge,94.0.992.31,Windows,10.0,fe3c1d035a65c549f7011c5446f73ede
14,1,983.5,arrowright,psychophysics,90,303146,0.0-3.0-0.43,"""",key,arrowright,16.663879310344907,682.5,325,44,2,1,24,15,25,35,true,"2021-10-02 15:11:50",99.229.52.133,"Mozilla/5.0 (Windows NT 10.0; Win64; x64) AppleWebKit/537.36 (KHTML, like Gecko) Chrome/94.0.4606.61 Safari/537.36 Edg/94.0.992.31",WebKit,Edge,94.0.992.31,Windows,10.0,fe3c1d035a65c549f7011c5446f73ede
14,1,null,null,psychophysics,91,304149,0.0-3.0-1.43,"""",key,null,16.66586440678003,682.5,325,"""","""","""","""","""","""","""","""","2021-10-02 15:11:50",99.229.52.133,"Mozilla/5.0 (Windows NT 10.0; Win64; x64) AppleWebKit/537.36 (KHTML, like Gecko) Chrome/94.0.4606.61 Safari/537.36 Edg/94.0.992.31",WebKit,Edge,94.0.992.31,Windows,10.0,fe3c1d035a65c549f7011c5446f73ede
14,1,787.2000000029802,arrowright,psychophysics,92,304941,0.0-3.0-0.44,"""",key,arrowright,16.663255319149144,682.5,325,45,2,1,30,35,25,35,true,"2021-10-02 15:11:50",99.229.52.133,"Mozilla/5.0 (Windows NT 10.0; Win64; x64) AppleWebKit/537.36 (KHTML, like Gecko) Chrome/94.0.4606.61 Safari/537.36 Edg/94.0.992.31",WebKit,Edge,94.0.992.31,Windows,10.0,fe3c1d035a65c549f7011c5446f73ede
14,1,null,null,psychophysics,93,305946,0.0-3.0-1.44,"""",key,null,16.664355932203144,682.5,325,"""","""","""","""","""","""","""","""","2021-10-02 15:11:50",99.229.52.133,"Mozilla/5.0 (Windows NT 10.0; Win64; x64) AppleWebKit/537.36 (KHTML, like Gecko) Chrome/94.0.4606.61 Safari/537.36 Edg/94.0.992.31",WebKit,Edge,94.0.992.31,Windows,10.0,fe3c1d035a65c549f7011c5446f73ede
14,1,1317.2000000029802,arrowright,psychophysics,94,307266,0.0-3.0-0.45,"""",key,arrowright,16.66439743589786,682.5,325,46,2,1,25,35,25,35,true,"2021-10-02 15:11:50",99.229.52.133,"Mozilla/5.0 (Windows NT 10.0; Win64; x64) AppleWebKit/537.36 (KHTML, like Gecko) Chrome/94.0.4606.61 Safari/537.36 Edg/94.0.992.31",WebKit,Edge,94.0.992.31,Windows,10.0,fe3c1d035a65c549f7011c5446f73ede
14,1,null,null,psychophysics,95,308269,0.0-3.0-1.45,"""",key,null,16.664440677965935,682.5,325,"""","""","""","""","""","""","""","""","2021-10-02 15:11:50",99.229.52.133,"Mozilla/5.0 (Windows NT 10.0; Win64; x64) AppleWebKit/537.36 (KHTML, like Gecko) Chrome/94.0.4606.61 Safari/537.36 Edg/94.0.992.31",WebKit,Edge,94.0.992.31,Windows,10.0,fe3c1d035a65c549f7011c5446f73ede
14,1,680.6000000089407,arrowright,psychophysics,96,308951,0.0-3.0-0.46,"""",key,arrowright,16.656699999999546,682.5,325,47,2,1,30,15,25,35,true,"2021-10-02 15:11:50",99.229.52.133,"Mozilla/5.0 (Windows NT 10.0; Win64; x64) AppleWebKit/537.36 (KHTML, like Gecko) Chrome/94.0.4606.61 Safari/537.36 Edg/94.0.992.31",WebKit,Edge,94.0.992.31,Windows,10.0,fe3c1d035a65c549f7011c5446f73ede
14,1,null,null,psychophysics,97,309954,0.0-3.0-1.46,"""",key,null,16.66637288135579,682.5,325,"""","""","""","""","""","""","""","""","2021-10-02 15:11:50",99.229.52.133,"Mozilla/5.0 (Windows NT 10.0; Win64; x64) AppleWebKit/537.36 (KHTML, like Gecko) Chrome/94.0.4606.61 Safari/537.36 Edg/94.0.992.31",WebKit,Edge,94.0.992.31,Windows,10.0,fe3c1d035a65c549f7011c5446f73ede
14,1,751.1000000089407,arrowleft,psychophysics,98,310714,0.0-3.0-0.47,"""",key,arrowleft,16.663933333332857,682.5,325,48,2,-1,26,35,25,35,true,"2021-10-02 15:11:50",99.229.52.133,"Mozilla/5.0 (Windows NT 10.0; Win64; x64) AppleWebKit/537.36 (KHTML, like Gecko) Chrome/94.0.4606.61 Safari/537.36 Edg/94.0.992.31",WebKit,Edge,94.0.992.31,Windows,10.0,fe3c1d035a65c549f7011c5446f73ede
14,1,null,null,psychophysics,99,311717,0.0-3.0-1.47,"""",key,null,16.66786440677933,682.5,325,"""","""","""","""","""","""","""","""","2021-10-02 15:11:50",99.229.52.133,"Mozilla/5.0 (Windows NT 10.0; Win64; x64) AppleWebKit/537.36 (KHTML, like Gecko) Chrome/94.0.4606.61 Safari/537.36 Edg/94.0.992.31",WebKit,Edge,94.0.992.31,Windows,10.0,fe3c1d035a65c549f7011c5446f73ede
14,1,718.8999999910593,arrowright,psychophysics,100,312444,0.0-3.0-0.48,"""",key,arrowright,16.663093023255282,682.5,325,49,2,1,26,15,25,35,true,"2021-10-02 15:11:50",99.229.52.133,"Mozilla/5.0 (Windows NT 10.0; Win64; x64) AppleWebKit/537.36 (KHTML, like Gecko) Chrome/94.0.4606.61 Safari/537.36 Edg/94.0.992.31",WebKit,Edge,94.0.992.31,Windows,10.0,fe3c1d035a65c549f7011c5446f73ede
14,1,null,null,psychophysics,101,313447,0.0-3.0-1.48,"""",key,null,16.65930508474634,682.5,325,"""","""","""","""","""","""","""","""","2021-10-02 15:11:50",99.229.52.133,"Mozilla/5.0 (Windows NT 10.0; Win64; x64) AppleWebKit/537.36 (KHTML, like Gecko) Chrome/94.0.4606.61 Safari/537.36 Edg/94.0.992.31",WebKit,Edge,94.0.992.31,Windows,10.0,fe3c1d035a65c549f7011c5446f73ede
14,1,820.8999999910593,arrowleft,psychophysics,102,314274,0.0-3.0-0.49,"""",key,arrowleft,16.6680612244907,682.5,325,50,2,1,20,35,25,35,false,"2021-10-02 15:11:50",99.229.52.133,"Mozilla/5.0 (Windows NT 10.0; Win64; x64) AppleWebKit/537.36 (KHTML, like Gecko) Chrome/94.0.4606.61 Safari/537.36 Edg/94.0.992.31",WebKit,Edge,94.0.992.31,Windows,10.0,fe3c1d035a65c549f7011c5446f73ede
14,1,null,null,psychophysics,103,315278,0.0-3.0-1.49,"""",key,null,16.66006779661047,682.5,325,"""","""","""","""","""","""","""","""","2021-10-02 15:11:50",99.229.52.133,"Mozilla/5.0 (Windows NT 10.0; Win64; x64) AppleWebKit/537.36 (KHTML, like Gecko) Chrome/94.0.4606.61 Safari/537.36 Edg/94.0.992.31",WebKit,Edge,94.0.992.31,Windows,10.0,fe3c1d035a65c549f7011c5446f73ede
14,1,1747.7999999970198,arrowright,psychophysics,104,317028,0.0-3.0-0.50,"""",key,arrowright,16.665451923076873,682.5,325,51,2,1,25,15,25,35,true,"2021-10-02 15:11:50",99.229.52.133,"Mozilla/5.0 (Windows NT 10.0; Win64; x64) AppleWebKit/537.36 (KHTML, like Gecko) Chrome/94.0.4606.61 Safari/537.36 Edg/94.0.992.31",WebKit,Edge,94.0.992.31,Windows,10.0,fe3c1d035a65c549f7011c5446f73ede
14,1,null,null,psychophysics,105,318036,0.0-3.0-1.50,"""",key,null,16.66393220339018,682.5,325,"""","""","""","""","""","""","""","""","2021-10-02 15:11:50",99.229.52.133,"Mozilla/5.0 (Windows NT 10.0; Win64; x64) AppleWebKit/537.36 (KHTML, like Gecko) Chrome/94.0.4606.61 Safari/537.36 Edg/94.0.992.31",WebKit,Edge,94.0.992.31,Windows,10.0,fe3c1d035a65c549f7011c5446f73ede
14,1,3148.5,arrowright,psychophysics,106,321193,0.0-3.0-0.51,"""",key,arrowright,16.661978835978843,682.5,325,52,2,-1,23,35,25,35,false,"2021-10-02 15:11:50",99.229.52.133,"Mozilla/5.0 (Windows NT 10.0; Win64; x64) AppleWebKit/537.36 (KHTML, like Gecko) Chrome/94.0.4606.61 Safari/537.36 Edg/94.0.992.31",WebKit,Edge,94.0.992.31,Windows,10.0,fe3c1d035a65c549f7011c5446f73ede
14,1,null,null,psychophysics,107,322194,0.0-3.0-1.51,"""",key,null,16.663661016949444,682.5,325,"""","""","""","""","""","""","""","""","2021-10-02 15:11:50",99.229.52.133,"Mozilla/5.0 (Windows NT 10.0; Win64; x64) AppleWebKit/537.36 (KHTML, like Gecko) Chrome/94.0.4606.61 Safari/537.36 Edg/94.0.992.31",WebKit,Edge,94.0.992.31,Windows,10.0,fe3c1d035a65c549f7011c5446f73ede
14,1,1055,arrowleft,psychophysics,108,323254,0.0-3.0-0.52,"""",key,arrowleft,16.661222222222325,682.5,325,53,2,-1,27,35,25,35,true,"2021-10-02 15:11:50",99.229.52.133,"Mozilla/5.0 (Windows NT 10.0; Win64; x64) AppleWebKit/537.36 (KHTML, like Gecko) Chrome/94.0.4606.61 Safari/537.36 Edg/94.0.992.31",WebKit,Edge,94.0.992.31,Windows,10.0,fe3c1d035a65c549f7011c5446f73ede
14,1,null,null,psychophysics,109,324261,0.0-3.0-1.52,"""",key,null,16.662186440678266,682.5,325,"""","""","""","""","""","""","""","""","2021-10-02 15:11:50",99.229.52.133,"Mozilla/5.0 (Windows NT 10.0; Win64; x64) AppleWebKit/537.36 (KHTML, like Gecko) Chrome/94.0.4606.61 Safari/537.36 Edg/94.0.992.31",WebKit,Edge,94.0.992.31,Windows,10.0,fe3c1d035a65c549f7011c5446f73ede
14,1,787.1000000089407,arrowright,psychophysics,110,325053,0.0-3.0-0.53,"""",key,arrowright,16.662085106383337,682.5,325,54,2,-1,20,35,25,35,false,"2021-10-02 15:11:50",99.229.52.133,"Mozilla/5.0 (Windows NT 10.0; Win64; x64) AppleWebKit/537.36 (KHTML, like Gecko) Chrome/94.0.4606.61 Safari/537.36 Edg/94.0.992.31",WebKit,Edge,94.0.992.31,Windows,10.0,fe3c1d035a65c549f7011c5446f73ede
14,1,null,null,psychophysics,111,326054,0.0-3.0-1.53,"""",key,null,16.658694915254443,682.5,325,"""","""","""","""","""","""","""","""","2021-10-02 15:11:50",99.229.52.133,"Mozilla/5.0 (Windows NT 10.0; Win64; x64) AppleWebKit/537.36 (KHTML, like Gecko) Chrome/94.0.4606.61 Safari/537.36 Edg/94.0.992.31",WebKit,Edge,94.0.992.31,Windows,10.0,fe3c1d035a65c549f7011c5446f73ede
14,1,797.1999999880791,arrowleft,psychophysics,112,326856,0.0-3.0-0.54,"""",key,arrowleft,16.66278723404282,682.5,325,55,2,-1,27,35,25,35,true,"2021-10-02 15:11:50",99.229.52.133,"Mozilla/5.0 (Windows NT 10.0; Win64; x64) AppleWebKit/537.36 (KHTML, like Gecko) Chrome/94.0.4606.61 Safari/537.36 Edg/94.0.992.31",WebKit,Edge,94.0.992.31,Windows,10.0,fe3c1d035a65c549f7011c5446f73ede
14,1,null,null,psychophysics,113,327858,0.0-3.0-1.54,"""",key,null,16.661423728813148,682.5,325,"""","""","""","""","""","""","""","""","2021-10-02 15:11:50",99.229.52.133,"Mozilla/5.0 (Windows NT 10.0; Win64; x64) AppleWebKit/537.36 (KHTML, like Gecko) Chrome/94.0.4606.61 Safari/537.36 Edg/94.0.992.31",WebKit,Edge,94.0.992.31,Windows,10.0,fe3c1d035a65c549f7011c5446f73ede
14,1,1100.5999999940395,arrowleft,psychophysics,114,328964,0.0-3.0-0.55,"""",key,arrowleft,16.66487692307699,682.5,325,56,3,-1,25,15,25,35,true,"2021-10-02 15:11:50",99.229.52.133,"Mozilla/5.0 (Windows NT 10.0; Win64; x64) AppleWebKit/537.36 (KHTML, like Gecko) Chrome/94.0.4606.61 Safari/537.36 Edg/94.0.992.31",WebKit,Edge,94.0.992.31,Windows,10.0,fe3c1d035a65c549f7011c5446f73ede
14,1,null,null,psychophysics,115,329973,0.0-3.0-1.55,"""",key,null,16.66231666666669,682.5,325,"""","""","""","""","""","""","""","""","2021-10-02 15:11:50",99.229.52.133,"Mozilla/5.0 (Windows NT 10.0; Win64; x64) AppleWebKit/537.36 (KHTML, like Gecko) Chrome/94.0.4606.61 Safari/537.36 Edg/94.0.992.31",WebKit,Edge,94.0.992.31,Windows,10.0,fe3c1d035a65c549f7011c5446f73ede
14,1,5330.79999999702,arrowleft,html-keyboard-response,116,335306,0.0-3.0-2.55-0.55,"<div style=""color: white; text-align: center; vertical-align: top; display: inline-block; width: 800px; margin: auto""><p>You have completed 20% of the trials. You are on block 3 of 10. <br>Good job! Take a break if you need to.</p><p>Press any key to continue the experiment.</p></div>","""","""","""","""","""","""","""","""","""","""","""","""","""","2021-10-02 15:11:50",99.229.52.133,"Mozilla/5.0 (Windows NT 10.0; Win64; x64) AppleWebKit/537.36 (KHTML, like Gecko) Chrome/94.0.4606.61 Safari/537.36 Edg/94.0.992.31",WebKit,Edge,94.0.992.31,Windows,10.0,fe3c1d035a65c549f7011c5446f73ede
14,1,4843.399999991059,arrowright,psychophysics,117,341167,0.0-3.0-0.56,"""",key,arrowright,16.661367697594446,682.5,325,57,3,1,27,15,25,35,true,"2021-10-02 15:11:50",99.229.52.133,"Mozilla/5.0 (Windows NT 10.0; Win64; x64) AppleWebKit/537.36 (KHTML, like Gecko) Chrome/94.0.4606.61 Safari/537.36 Edg/94.0.992.31",WebKit,Edge,94.0.992.31,Windows,10.0,fe3c1d035a65c549f7011c5446f73ede
14,1,null,null,psychophysics,118,342170,0.0-3.0-1.56,"""",key,null,16.66155932203401,682.5,325,"""","""","""","""","""","""","""","""","2021-10-02 15:11:50",99.229.52.133,"Mozilla/5.0 (Windows NT 10.0; Win64; x64) AppleWebKit/537.36 (KHTML, like Gecko) Chrome/94.0.4606.61 Safari/537.36 Edg/94.0.992.31",WebKit,Edge,94.0.992.31,Windows,10.0,fe3c1d035a65c549f7011c5446f73ede
14,1,781.5999999940395,arrowright,psychophysics,119,342965,0.0-3.0-0.57,"""",key,arrowright,16.66517021276671,682.5,325,58,3,1,30,15,25,35,true,"2021-10-02 15:11:50",99.229.52.133,"Mozilla/5.0 (Windows NT 10.0; Win64; x64) AppleWebKit/537.36 (KHTML, like Gecko) Chrome/94.0.4606.61 Safari/537.36 Edg/94.0.992.31",WebKit,Edge,94.0.992.31,Windows,10.0,fe3c1d035a65c549f7011c5446f73ede
14,1,null,null,psychophysics,120,343968,0.0-3.0-1.57,"""",key,null,16.662355932203848,682.5,325,"""","""","""","""","""","""","""","""","2021-10-02 15:11:50",99.229.52.133,"Mozilla/5.0 (Windows NT 10.0; Win64; x64) AppleWebKit/537.36 (KHTML, like Gecko) Chrome/94.0.4606.61 Safari/537.36 Edg/94.0.992.31",WebKit,Edge,94.0.992.31,Windows,10.0,fe3c1d035a65c549f7011c5446f73ede
14,1,804.5,arrowleft,psychophysics,121,344776,0.0-3.0-0.58,"""",key,arrowleft,16.661553191489222,682.5,325,59,3,-1,27,15,25,35,true,"2021-10-02 15:11:50",99.229.52.133,"Mozilla/5.0 (Windows NT 10.0; Win64; x64) AppleWebKit/537.36 (KHTML, like Gecko) Chrome/94.0.4606.61 Safari/537.36 Edg/94.0.992.31",WebKit,Edge,94.0.992.31,Windows,10.0,fe3c1d035a65c549f7011c5446f73ede
14,1,null,null,psychophysics,122,345780,0.0-3.0-1.58,"""",key,null,16.662650000000333,682.5,325,"""","""","""","""","""","""","""","""","2021-10-02 15:11:50",99.229.52.133,"Mozilla/5.0 (Windows NT 10.0; Win64; x64) AppleWebKit/537.36 (KHTML, like Gecko) Chrome/94.0.4606.61 Safari/537.36 Edg/94.0.992.31",WebKit,Edge,94.0.992.31,Windows,10.0,fe3c1d035a65c549f7011c5446f73ede
14,1,888.6000000089407,arrowright,psychophysics,123,346674,0.0-3.0-0.59,"""",key,arrowright,16.66059615384662,682.5,325,60,3,1,24,15,25,35,true,"2021-10-02 15:11:50",99.229.52.133,"Mozilla/5.0 (Windows NT 10.0; Win64; x64) AppleWebKit/537.36 (KHTML, like Gecko) Chrome/94.0.4606.61 Safari/537.36 Edg/94.0.992.31",WebKit,Edge,94.0.992.31,Windows,10.0,fe3c1d035a65c549f7011c5446f73ede
14,1,null,null,psychophysics,124,347676,0.0-3.0-1.59,"""",key,null,16.66696610169434,682.5,325,"""","""","""","""","""","""","""","""","2021-10-02 15:11:50",99.229.52.133,"Mozilla/5.0 (Windows NT 10.0; Win64; x64) AppleWebKit/537.36 (KHTML, like Gecko) Chrome/94.0.4606.61 Safari/537.36 Edg/94.0.992.31",WebKit,Edge,94.0.992.31,Windows,10.0,fe3c1d035a65c549f7011c5446f73ede
14,1,967.7000000029802,arrowleft,psychophysics,125,348649,0.0-3.0-0.60,"""",key,arrowleft,16.66750000000044,682.5,325,61,3,-1,27,15,25,35,true,"2021-10-02 15:11:50",99.229.52.133,"Mozilla/5.0 (Windows NT 10.0; Win64; x64) AppleWebKit/537.36 (KHTML, like Gecko) Chrome/94.0.4606.61 Safari/537.36 Edg/94.0.992.31",WebKit,Edge,94.0.992.31,Windows,10.0,fe3c1d035a65c549f7011c5446f73ede
14,1,null,null,psychophysics,126,349652,0.0-3.0-1.60,"""",key,null,16.659338983050073,682.5,325,"""","""","""","""","""","""","""","""","2021-10-02 15:11:50",99.229.52.133,"Mozilla/5.0 (Windows NT 10.0; Win64; x64) AppleWebKit/537.36 (KHTML, like Gecko) Chrome/94.0.4606.61 Safari/537.36 Edg/94.0.992.31",WebKit,Edge,94.0.992.31,Windows,10.0,fe3c1d035a65c549f7011c5446f73ede
14,1,664.7000000029802,arrowright,psychophysics,127,350321,0.0-3.0-0.61,"""",key,arrowright,16.658615384616542,682.5,325,62,3,1,30,35,25,35,true,"2021-10-02 15:11:50",99.229.52.133,"Mozilla/5.0 (Windows NT 10.0; Win64; x64) AppleWebKit/537.36 (KHTML, like Gecko) Chrome/94.0.4606.61 Safari/537.36 Edg/94.0.992.31",WebKit,Edge,94.0.992.31,Windows,10.0,fe3c1d035a65c549f7011c5446f73ede
14,1,null,null,psychophysics,128,351323,0.0-3.0-1.61,"""",key,null,16.661254237288553,682.5,325,"""","""","""","""","""","""","""","""","2021-10-02 15:11:50",99.229.52.133,"Mozilla/5.0 (Windows NT 10.0; Win64; x64) AppleWebKit/537.36 (KHTML, like Gecko) Chrome/94.0.4606.61 Safari/537.36 Edg/94.0.992.31",WebKit,Edge,94.0.992.31,Windows,10.0,fe3c1d035a65c549f7011c5446f73ede
14,1,800.3999999910593,arrowleft,psychophysics,129,352133,0.0-3.0-0.62,"""",key,arrowleft,16.662708333333285,682.5,325,63,3,-1,30,35,25,35,true,"2021-10-02 15:11:50",99.229.52.133,"Mozilla/5.0 (Windows NT 10.0; Win64; x64) AppleWebKit/537.36 (KHTML, like Gecko) Chrome/94.0.4606.61 Safari/537.36 Edg/94.0.992.31",WebKit,Edge,94.0.992.31,Windows,10.0,fe3c1d035a65c549f7011c5446f73ede
14,1,null,null,psychophysics,130,353136,0.0-3.0-1.62,"""",key,null,16.665661016949727,682.5,325,"""","""","""","""","""","""","""","""","2021-10-02 15:11:50",99.229.52.133,"Mozilla/5.0 (Windows NT 10.0; Win64; x64) AppleWebKit/537.36 (KHTML, like Gecko) Chrome/94.0.4606.61 Safari/537.36 Edg/94.0.992.31",WebKit,Edge,94.0.992.31,Windows,10.0,fe3c1d035a65c549f7011c5446f73ede
14,1,1395.0999999940395,arrowright,psychophysics,131,354534,0.0-3.0-0.63,"""",key,arrowright,16.660771084337142,682.5,325,64,3,1,26,35,25,35,true,"2021-10-02 15:11:50",99.229.52.133,"Mozilla/5.0 (Windows NT 10.0; Win64; x64) AppleWebKit/537.36 (KHTML, like Gecko) Chrome/94.0.4606.61 Safari/537.36 Edg/94.0.992.31",WebKit,Edge,94.0.992.31,Windows,10.0,fe3c1d035a65c549f7011c5446f73ede
14,1,null,null,psychophysics,132,355544,0.0-3.0-1.63,"""",key,null,16.666033333333324,682.5,325,"""","""","""","""","""","""","""","""","2021-10-02 15:11:50",99.229.52.133,"Mozilla/5.0 (Windows NT 10.0; Win64; x64) AppleWebKit/537.36 (KHTML, like Gecko) Chrome/94.0.4606.61 Safari/537.36 Edg/94.0.992.31",WebKit,Edge,94.0.992.31,Windows,10.0,fe3c1d035a65c549f7011c5446f73ede
14,1,990.9000000059605,arrowleft,psychophysics,133,356540,0.0-3.0-0.64,"""",key,arrowleft,16.661844827587,682.5,325,65,3,1,24,35,25,35,false,"2021-10-02 15:11:50",99.229.52.133,"Mozilla/5.0 (Windows NT 10.0; Win64; x64) AppleWebKit/537.36 (KHTML, like Gecko) Chrome/94.0.4606.61 Safari/537.36 Edg/94.0.992.31",WebKit,Edge,94.0.992.31,Windows,10.0,fe3c1d035a65c549f7011c5446f73ede
14,1,null,null,psychophysics,134,357544,0.0-3.0-1.64,"""",key,null,16.66563333333373,682.5,325,"""","""","""","""","""","""","""","""","2021-10-02 15:11:50",99.229.52.133,"Mozilla/5.0 (Windows NT 10.0; Win64; x64) AppleWebKit/537.36 (KHTML, like Gecko) Chrome/94.0.4606.61 Safari/537.36 Edg/94.0.992.31",WebKit,Edge,94.0.992.31,Windows,10.0,fe3c1d035a65c549f7011c5446f73ede
14,1,1403.5,arrowright,psychophysics,135,358953,0.0-3.0-0.65,"""",key,arrowright,16.662096385541794,682.5,325,66,3,-1,23,15,25,35,false,"2021-10-02 15:11:50",99.229.52.133,"Mozilla/5.0 (Windows NT 10.0; Win64; x64) AppleWebKit/537.36 (KHTML, like Gecko) Chrome/94.0.4606.61 Safari/537.36 Edg/94.0.992.31",WebKit,Edge,94.0.992.31,Windows,10.0,fe3c1d035a65c549f7011c5446f73ede
14,1,null,null,psychophysics,136,359955,0.0-3.0-1.65,"""",key,null,16.660677966102366,682.5,325,"""","""","""","""","""","""","""","""","2021-10-02 15:11:50",99.229.52.133,"Mozilla/5.0 (Windows NT 10.0; Win64; x64) AppleWebKit/537.36 (KHTML, like Gecko) Chrome/94.0.4606.61 Safari/537.36 Edg/94.0.992.31",WebKit,Edge,94.0.992.31,Windows,10.0,fe3c1d035a65c549f7011c5446f73ede
14,1,525.7000000029802,arrowleft,psychophysics,137,360490,0.0-3.0-0.66,"""",key,arrowleft,16.669032258066093,682.5,325,67,3,-1,30,35,25,35,true,"2021-10-02 15:11:50",99.229.52.133,"Mozilla/5.0 (Windows NT 10.0; Win64; x64) AppleWebKit/537.36 (KHTML, like Gecko) Chrome/94.0.4606.61 Safari/537.36 Edg/94.0.992.31",WebKit,Edge,94.0.992.31,Windows,10.0,fe3c1d035a65c549f7011c5446f73ede
14,1,null,null,psychophysics,138,361493,0.0-3.0-1.66,"""",key,null,16.66238333333361,682.5,325,"""","""","""","""","""","""","""","""","2021-10-02 15:11:50",99.229.52.133,"Mozilla/5.0 (Windows NT 10.0; Win64; x64) AppleWebKit/537.36 (KHTML, like Gecko) Chrome/94.0.4606.61 Safari/537.36 Edg/94.0.992.31",WebKit,Edge,94.0.992.31,Windows,10.0,fe3c1d035a65c549f7011c5446f73ede
14,1,884.7999999970198,arrowleft,psychophysics,139,362382,0.0-3.0-0.67,"""",key,arrowleft,16.669076923077228,682.5,325,68,3,1,20,35,25,35,false,"2021-10-02 15:11:50",99.229.52.133,"Mozilla/5.0 (Windows NT 10.0; Win64; x64) AppleWebKit/537.36 (KHTML, like Gecko) Chrome/94.0.4606.61 Safari/537.36 Edg/94.0.992.31",WebKit,Edge,94.0.992.31,Windows,10.0,fe3c1d035a65c549f7011c5446f73ede
14,1,null,null,psychophysics,140,363385,0.0-3.0-1.67,"""",key,null,16.661322033898983,682.5,325,"""","""","""","""","""","""","""","""","2021-10-02 15:11:50",99.229.52.133,"Mozilla/5.0 (Windows NT 10.0; Win64; x64) AppleWebKit/537.36 (KHTML, like Gecko) Chrome/94.0.4606.61 Safari/537.36 Edg/94.0.992.31",WebKit,Edge,94.0.992.31,Windows,10.0,fe3c1d035a65c549f7011c5446f73ede
14,1,1163.7000000029802,arrowright,psychophysics,141,364555,0.0-3.0-0.68,"""",key,arrowright,16.665956521739144,682.5,325,69,3,1,20,35,25,35,true,"2021-10-02 15:11:50",99.229.52.133,"Mozilla/5.0 (Windows NT 10.0; Win64; x64) AppleWebKit/537.36 (KHTML, like Gecko) Chrome/94.0.4606.61 Safari/537.36 Edg/94.0.992.31",WebKit,Edge,94.0.992.31,Windows,10.0,fe3c1d035a65c549f7011c5446f73ede
14,1,null,null,psychophysics,142,365563,0.0-3.0-1.68,"""",key,null,16.6627999999997,682.5,325,"""","""","""","""","""","""","""","""","2021-10-02 15:11:50",99.229.52.133,"Mozilla/5.0 (Windows NT 10.0; Win64; x64) AppleWebKit/537.36 (KHTML, like Gecko) Chrome/94.0.4606.61 Safari/537.36 Edg/94.0.992.31",WebKit,Edge,94.0.992.31,Windows,10.0,fe3c1d035a65c549f7011c5446f73ede
14,1,1139.0999999940395,arrowright,psychophysics,143,366706,0.0-3.0-0.69,"""",key,arrowright,16.664164179104638,682.5,325,70,3,1,24,15,25,35,true,"2021-10-02 15:11:50",99.229.52.133,"Mozilla/5.0 (Windows NT 10.0; Win64; x64) AppleWebKit/537.36 (KHTML, like Gecko) Chrome/94.0.4606.61 Safari/537.36 Edg/94.0.992.31",WebKit,Edge,94.0.992.31,Windows,10.0,fe3c1d035a65c549f7011c5446f73ede
14,1,null,null,psychophysics,144,367716,0.0-3.0-1.69,"""",key,null,16.66618333333269,682.5,325,"""","""","""","""","""","""","""","""","2021-10-02 15:11:50",99.229.52.133,"Mozilla/5.0 (Windows NT 10.0; Win64; x64) AppleWebKit/537.36 (KHTML, like Gecko) Chrome/94.0.4606.61 Safari/537.36 Edg/94.0.992.31",WebKit,Edge,94.0.992.31,Windows,10.0,fe3c1d035a65c549f7011c5446f73ede
14,1,788,arrowright,psychophysics,145,368516,0.0-3.0-0.70,"""",key,arrowright,16.66268085106276,682.5,325,71,3,-1,20,15,25,35,false,"2021-10-02 15:11:50",99.229.52.133,"Mozilla/5.0 (Windows NT 10.0; Win64; x64) AppleWebKit/537.36 (KHTML, like Gecko) Chrome/94.0.4606.61 Safari/537.36 Edg/94.0.992.31",WebKit,Edge,94.0.992.31,Windows,10.0,fe3c1d035a65c549f7011c5446f73ede
14,1,null,null,psychophysics,146,369519,0.0-3.0-1.70,"""",key,null,16.660203389830343,682.5,325,"""","""","""","""","""","""","""","""","2021-10-02 15:11:50",99.229.52.133,"Mozilla/5.0 (Windows NT 10.0; Win64; x64) AppleWebKit/537.36 (KHTML, like Gecko) Chrome/94.0.4606.61 Safari/537.36 Edg/94.0.992.31",WebKit,Edge,94.0.992.31,Windows,10.0,fe3c1d035a65c549f7011c5446f73ede
14,1,687.9000000059605,arrowright,psychophysics,147,370216,0.0-3.0-0.71,"""",key,arrowright,16.66265853658523,682.5,325,72,3,1,26,15,25,35,true,"2021-10-02 15:11:50",99.229.52.133,"Mozilla/5.0 (Windows NT 10.0; Win64; x64) AppleWebKit/537.36 (KHTML, like Gecko) Chrome/94.0.4606.61 Safari/537.36 Edg/94.0.992.31",WebKit,Edge,94.0.992.31,Windows,10.0,fe3c1d035a65c549f7011c5446f73ede
14,1,null,null,psychophysics,148,371220,0.0-3.0-1.71,"""",key,null,16.66161016949109,682.5,325,"""","""","""","""","""","""","""","""","2021-10-02 15:11:50",99.229.52.133,"Mozilla/5.0 (Windows NT 10.0; Win64; x64) AppleWebKit/537.36 (KHTML, like Gecko) Chrome/94.0.4606.61 Safari/537.36 Edg/94.0.992.31",WebKit,Edge,94.0.992.31,Windows,10.0,fe3c1d035a65c549f7011c5446f73ede
14,1,913.2999999970198,arrowleft,psychophysics,149,372142,0.0-3.0-0.72,"""",key,arrowleft,16.664199999999255,682.5,325,73,3,-1,25,15,25,35,true,"2021-10-02 15:11:50",99.229.52.133,"Mozilla/5.0 (Windows NT 10.0; Win64; x64) AppleWebKit/537.36 (KHTML, like Gecko) Chrome/94.0.4606.61 Safari/537.36 Edg/94.0.992.31",WebKit,Edge,94.0.992.31,Windows,10.0,fe3c1d035a65c549f7011c5446f73ede
14,1,null,null,psychophysics,150,373145,0.0-3.0-1.72,"""",key,null,16.659033898304617,682.5,325,"""","""","""","""","""","""","""","""","2021-10-02 15:11:50",99.229.52.133,"Mozilla/5.0 (Windows NT 10.0; Win64; x64) AppleWebKit/537.36 (KHTML, like Gecko) Chrome/94.0.4606.61 Safari/537.36 Edg/94.0.992.31",WebKit,Edge,94.0.992.31,Windows,10.0,fe3c1d035a65c549f7011c5446f73ede
14,1,834.8999999910593,arrowright,psychophysics,151,373985,0.0-3.0-0.73,"""",key,arrowright,16.663346938774637,682.5,325,74,3,1,27,35,25,35,true,"2021-10-02 15:11:50",99.229.52.133,"Mozilla/5.0 (Windows NT 10.0; Win64; x64) AppleWebKit/537.36 (KHTML, like Gecko) Chrome/94.0.4606.61 Safari/537.36 Edg/94.0.992.31",WebKit,Edge,94.0.992.31,Windows,10.0,fe3c1d035a65c549f7011c5446f73ede
14,1,null,null,psychophysics,152,374988,0.0-3.0-1.73,"""",key,null,16.661372881356066,682.5,325,"""","""","""","""","""","""","""","""","2021-10-02 15:11:50",99.229.52.133,"Mozilla/5.0 (Windows NT 10.0; Win64; x64) AppleWebKit/537.36 (KHTML, like Gecko) Chrome/94.0.4606.61 Safari/537.36 Edg/94.0.992.31",WebKit,Edge,94.0.992.31,Windows,10.0,fe3c1d035a65c549f7011c5446f73ede
14,1,701.5,arrowleft,psychophysics,153,375697,0.0-3.0-0.74,"""",key,arrowleft,16.662928571428417,682.5,325,75,3,-1,30,35,25,35,true,"2021-10-02 15:11:50",99.229.52.133,"Mozilla/5.0 (Windows NT 10.0; Win64; x64) AppleWebKit/537.36 (KHTML, like Gecko) Chrome/94.0.4606.61 Safari/537.36 Edg/94.0.992.31",WebKit,Edge,94.0.992.31,Windows,10.0,fe3c1d035a65c549f7011c5446f73ede
14,1,null,null,psychophysics,154,376700,0.0-3.0-1.74,"""",key,null,16.662050847457405,682.5,325,"""","""","""","""","""","""","""","""","2021-10-02 15:11:50",99.229.52.133,"Mozilla/5.0 (Windows NT 10.0; Win64; x64) AppleWebKit/537.36 (KHTML, like Gecko) Chrome/94.0.4606.61 Safari/537.36 Edg/94.0.992.31",WebKit,Edge,94.0.992.31,Windows,10.0,fe3c1d035a65c549f7011c5446f73ede
14,1,1355.3999999910593,arrowleft,psychophysics,155,378064,0.0-3.0-0.75,"""",key,arrowleft,16.66346913580222,682.5,325,76,3,-1,27,35,25,35,true,"2021-10-02 15:11:50",99.229.52.133,"Mozilla/5.0 (Windows NT 10.0; Win64; x64) AppleWebKit/537.36 (KHTML, like Gecko) Chrome/94.0.4606.61 Safari/537.36 Edg/94.0.992.31",WebKit,Edge,94.0.992.31,Windows,10.0,fe3c1d035a65c549f7011c5446f73ede
14,1,null,null,psychophysics,156,379075,0.0-3.0-1.75,"""",key,null,16.66001666666707,682.5,325,"""","""","""","""","""","""","""","""","2021-10-02 15:11:50",99.229.52.133,"Mozilla/5.0 (Windows NT 10.0; Win64; x64) AppleWebKit/537.36 (KHTML, like Gecko) Chrome/94.0.4606.61 Safari/537.36 Edg/94.0.992.31",WebKit,Edge,94.0.992.31,Windows,10.0,fe3c1d035a65c549f7011c5446f73ede
14,1,1338.199999988079,arrowleft,psychophysics,157,380416,0.0-3.0-0.76,"""",key,arrowleft,16.65931645569633,682.5,325,77,3,-1,25,15,25,35,true,"2021-10-02 15:11:50",99.229.52.133,"Mozilla/5.0 (Windows NT 10.0; Win64; x64) AppleWebKit/537.36 (KHTML, like Gecko) Chrome/94.0.4606.61 Safari/537.36 Edg/94.0.992.31",WebKit,Edge,94.0.992.31,Windows,10.0,fe3c1d035a65c549f7011c5446f73ede
14,1,null,null,psychophysics,158,381418,0.0-3.0-1.76,"""",key,null,16.664864406778904,682.5,325,"""","""","""","""","""","""","""","""","2021-10-02 15:11:50",99.229.52.133,"Mozilla/5.0 (Windows NT 10.0; Win64; x64) AppleWebKit/537.36 (KHTML, like Gecko) Chrome/94.0.4606.61 Safari/537.36 Edg/94.0.992.31",WebKit,Edge,94.0.992.31,Windows,10.0,fe3c1d035a65c549f7011c5446f73ede
14,1,1138.9000000059605,arrowright,psychophysics,159,382561,0.0-3.0-0.77,"""",key,arrowright,16.66444117647017,682.5,325,78,3,1,25,15,25,35,true,"2021-10-02 15:11:50",99.229.52.133,"Mozilla/5.0 (Windows NT 10.0; Win64; x64) AppleWebKit/537.36 (KHTML, like Gecko) Chrome/94.0.4606.61 Safari/537.36 Edg/94.0.992.31",WebKit,Edge,94.0.992.31,Windows,10.0,fe3c1d035a65c549f7011c5446f73ede
14,1,null,null,psychophysics,160,383564,0.0-3.0-1.77,"""",key,null,16.664271186440356,682.5,325,"""","""","""","""","""","""","""","""","2021-10-02 15:11:50",99.229.52.133,"Mozilla/5.0 (Windows NT 10.0; Win64; x64) AppleWebKit/537.36 (KHTML, like Gecko) Chrome/94.0.4606.61 Safari/537.36 Edg/94.0.992.31",WebKit,Edge,94.0.992.31,Windows,10.0,fe3c1d035a65c549f7011c5446f73ede
14,1,841.4000000059605,arrowright,psychophysics,161,384421,0.0-3.0-0.78,"""",key,arrowright,16.664313725490288,682.5,325,79,3,1,27,35,25,35,true,"2021-10-02 15:11:50",99.229.52.133,"Mozilla/5.0 (Windows NT 10.0; Win64; x64) AppleWebKit/537.36 (KHTML, like Gecko) Chrome/94.0.4606.61 Safari/537.36 Edg/94.0.992.31",WebKit,Edge,94.0.992.31,Windows,10.0,fe3c1d035a65c549f7011c5446f73ede
14,1,null,null,psychophysics,162,385422,0.0-3.0-1.78,"""",key,null,16.65811864406727,682.5,325,"""","""","""","""","""","""","""","""","2021-10-02 15:11:50",99.229.52.133,"Mozilla/5.0 (Windows NT 10.0; Win64; x64) AppleWebKit/537.36 (KHTML, like Gecko) Chrome/94.0.4606.61 Safari/537.36 Edg/94.0.992.31",WebKit,Edge,94.0.992.31,Windows,10.0,fe3c1d035a65c549f7011c5446f73ede
14,1,1799.7000000029802,arrowright,psychophysics,163,387224,0.0-3.0-0.79,"""",key,arrowright,16.662710280374135,682.5,325,80,3,1,27,15,25,35,true,"2021-10-02 15:11:50",99.229.52.133,"Mozilla/5.0 (Windows NT 10.0; Win64; x64) AppleWebKit/537.36 (KHTML, like Gecko) Chrome/94.0.4606.61 Safari/537.36 Edg/94.0.992.31",WebKit,Edge,94.0.992.31,Windows,10.0,fe3c1d035a65c549f7011c5446f73ede
14,1,null,null,psychophysics,164,388228,0.0-3.0-1.79,"""",key,null,16.663711864406526,682.5,325,"""","""","""","""","""","""","""","""","2021-10-02 15:11:50",99.229.52.133,"Mozilla/5.0 (Windows NT 10.0; Win64; x64) AppleWebKit/537.36 (KHTML, like Gecko) Chrome/94.0.4606.61 Safari/537.36 Edg/94.0.992.31",WebKit,Edge,94.0.992.31,Windows,10.0,fe3c1d035a65c549f7011c5446f73ede
14,1,829.3999999910593,arrowright,psychophysics,165,389062,0.0-3.0-0.80,"""",key,arrowright,16.66124489795825,682.5,325,81,3,1,30,15,25,35,true,"2021-10-02 15:11:50",99.229.52.133,"Mozilla/5.0 (Windows NT 10.0; Win64; x64) AppleWebKit/537.36 (KHTML, like Gecko) Chrome/94.0.4606.61 Safari/537.36 Edg/94.0.992.31",WebKit,Edge,94.0.992.31,Windows,10.0,fe3c1d035a65c549f7011c5446f73ede
14,1,null,null,psychophysics,166,390075,0.0-3.0-1.80,"""",key,null,16.66359999999986,682.5,325,"""","""","""","""","""","""","""","""","2021-10-02 15:11:50",99.229.52.133,"Mozilla/5.0 (Windows NT 10.0; Win64; x64) AppleWebKit/537.36 (KHTML, like Gecko) Chrome/94.0.4606.61 Safari/537.36 Edg/94.0.992.31",WebKit,Edge,94.0.992.31,Windows,10.0,fe3c1d035a65c549f7011c5446f73ede
14,1,749.9000000059605,arrowleft,psychophysics,167,390830,0.0-3.0-0.81,"""",key,arrowleft,16.661409090909398,682.5,325,82,3,1,20,35,25,35,false,"2021-10-02 15:11:50",99.229.52.133,"Mozilla/5.0 (Windows NT 10.0; Win64; x64) AppleWebKit/537.36 (KHTML, like Gecko) Chrome/94.0.4606.61 Safari/537.36 Edg/94.0.992.31",WebKit,Edge,94.0.992.31,Windows,10.0,fe3c1d035a65c549f7011c5446f73ede
14,1,null,null,psychophysics,168,391833,0.0-3.0-1.81,"""",key,null,16.664559322033448,682.5,325,"""","""","""","""","""","""","""","""","2021-10-02 15:11:50",99.229.52.133,"Mozilla/5.0 (Windows NT 10.0; Win64; x64) AppleWebKit/537.36 (KHTML, like Gecko) Chrome/94.0.4606.61 Safari/537.36 Edg/94.0.992.31",WebKit,Edge,94.0.992.31,Windows,10.0,fe3c1d035a65c549f7011c5446f73ede
14,1,1128.8999999910593,arrowleft,psychophysics,169,392970,0.0-3.0-0.82,"""",key,arrowleft,16.662455882353242,682.5,325,83,3,1,24,35,25,35,false,"2021-10-02 15:11:50",99.229.52.133,"Mozilla/5.0 (Windows NT 10.0; Win64; x64) AppleWebKit/537.36 (KHTML, like Gecko) Chrome/94.0.4606.61 Safari/537.36 Edg/94.0.992.31",WebKit,Edge,94.0.992.31,Windows,10.0,fe3c1d035a65c549f7011c5446f73ede
14,1,null,null,psychophysics,170,393973,0.0-3.0-1.82,"""",key,null,16.663677966101805,682.5,325,"""","""","""","""","""","""","""","""","2021-10-02 15:11:50",99.229.52.133,"Mozilla/5.0 (Windows NT 10.0; Win64; x64) AppleWebKit/537.36 (KHTML, like Gecko) Chrome/94.0.4606.61 Safari/537.36 Edg/94.0.992.31",WebKit,Edge,94.0.992.31,Windows,10.0,fe3c1d035a65c549f7011c5446f73ede
14,1,1424.2999999970198,arrowleft,psychophysics,171,395402,0.0-3.0-0.83,"""",key,arrowleft,16.66189411764704,682.5,325,84,4,1,23,15,25,35,false,"2021-10-02 15:11:50",99.229.52.133,"Mozilla/5.0 (Windows NT 10.0; Win64; x64) AppleWebKit/537.36 (KHTML, like Gecko) Chrome/94.0.4606.61 Safari/537.36 Edg/94.0.992.31",WebKit,Edge,94.0.992.31,Windows,10.0,fe3c1d035a65c549f7011c5446f73ede
14,1,null,null,psychophysics,172,396414,0.0-3.0-1.83,"""",key,null,16.666457627118582,682.5,325,"""","""","""","""","""","""","""","""","2021-10-02 15:11:50",99.229.52.133,"Mozilla/5.0 (Windows NT 10.0; Win64; x64) AppleWebKit/537.36 (KHTML, like Gecko) Chrome/94.0.4606.61 Safari/537.36 Edg/94.0.992.31",WebKit,Edge,94.0.992.31,Windows,10.0,fe3c1d035a65c549f7011c5446f73ede
14,1,1412.5999999940395,arrowleft,html-keyboard-response,173,397829,0.0-3.0-2.83-0.83,"<div style=""color: white; text-align: center; vertical-align: top; display: inline-block; width: 800px; margin: auto""><p>You have completed 30% of the trials. You are on block 4 of 10. <br>Good job! Take a break if you need to.</p><p>Press any key to continue the experiment.</p></div>","""","""","""","""","""","""","""","""","""","""","""","""","""","2021-10-02 15:11:50",99.229.52.133,"Mozilla/5.0 (Windows NT 10.0; Win64; x64) AppleWebKit/537.36 (KHTML, like Gecko) Chrome/94.0.4606.61 Safari/537.36 Edg/94.0.992.31",WebKit,Edge,94.0.992.31,Windows,10.0,fe3c1d035a65c549f7011c5446f73ede
14,1,838,arrowleft,psychophysics,174,399677,0.0-3.0-0.84,"""",key,arrowleft,16.657679999999235,682.5,325,85,4,1,20,35,25,35,false,"2021-10-02 15:11:50",99.229.52.133,"Mozilla/5.0 (Windows NT 10.0; Win64; x64) AppleWebKit/537.36 (KHTML, like Gecko) Chrome/94.0.4606.61 Safari/537.36 Edg/94.0.992.31",WebKit,Edge,94.0.992.31,Windows,10.0,fe3c1d035a65c549f7011c5446f73ede
14,1,null,null,psychophysics,175,400679,0.0-3.0-1.84,"""",key,null,16.66003389830575,682.5,325,"""","""","""","""","""","""","""","""","2021-10-02 15:11:50",99.229.52.133,"Mozilla/5.0 (Windows NT 10.0; Win64; x64) AppleWebKit/537.36 (KHTML, like Gecko) Chrome/94.0.4606.61 Safari/537.36 Edg/94.0.992.31",WebKit,Edge,94.0.992.31,Windows,10.0,fe3c1d035a65c549f7011c5446f73ede
14,1,525.3999999910593,arrowright,psychophysics,176,401208,0.0-3.0-0.85,"""",key,arrowright,16.674903225805235,682.5,325,86,4,-1,20,15,25,35,false,"2021-10-02 15:11:50",99.229.52.133,"Mozilla/5.0 (Windows NT 10.0; Win64; x64) AppleWebKit/537.36 (KHTML, like Gecko) Chrome/94.0.4606.61 Safari/537.36 Edg/94.0.992.31",WebKit,Edge,94.0.992.31,Windows,10.0,fe3c1d035a65c549f7011c5446f73ede
14,1,null,null,psychophysics,177,402213,0.0-3.0-1.85,"""",key,null,16.66393220338919,682.5,325,"""","""","""","""","""","""","""","""","2021-10-02 15:11:50",99.229.52.133,"Mozilla/5.0 (Windows NT 10.0; Win64; x64) AppleWebKit/537.36 (KHTML, like Gecko) Chrome/94.0.4606.61 Safari/537.36 Edg/94.0.992.31",WebKit,Edge,94.0.992.31,Windows,10.0,fe3c1d035a65c549f7011c5446f73ede
14,1,4049.7000000029802,arrowright,psychophysics,178,406273,0.0-3.0-0.86,"""",key,arrowright,16.66339094650217,682.5,325,87,4,-1,23,15,25,35,false,"2021-10-02 15:11:50",99.229.52.133,"Mozilla/5.0 (Windows NT 10.0; Win64; x64) AppleWebKit/537.36 (KHTML, like Gecko) Chrome/94.0.4606.61 Safari/537.36 Edg/94.0.992.31",WebKit,Edge,94.0.992.31,Windows,10.0,fe3c1d035a65c549f7011c5446f73ede
14,1,null,null,psychophysics,179,407276,0.0-3.0-1.86,"""",key,null,16.663644067797083,682.5,325,"""","""","""","""","""","""","""","""","2021-10-02 15:11:50",99.229.52.133,"Mozilla/5.0 (Windows NT 10.0; Win64; x64) AppleWebKit/537.36 (KHTML, like Gecko) Chrome/94.0.4606.61 Safari/537.36 Edg/94.0.992.31",WebKit,Edge,94.0.992.31,Windows,10.0,fe3c1d035a65c549f7011c5446f73ede
14,1,1032.7000000029802,arrowleft,psychophysics,180,408324,0.0-3.0-0.87,"""",key,arrowleft,16.665612903225515,682.5,325,88,4,1,23,35,25,35,false,"2021-10-02 15:11:50",99.229.52.133,"Mozilla/5.0 (Windows NT 10.0; Win64; x64) AppleWebKit/537.36 (KHTML, like Gecko) Chrome/94.0.4606.61 Safari/537.36 Edg/94.0.992.31",WebKit,Edge,94.0.992.31,Windows,10.0,fe3c1d035a65c549f7011c5446f73ede
14,1,null,null,psychophysics,181,409326,0.0-3.0-1.87,"""",key,null,16.664135593220482,682.5,325,"""","""","""","""","""","""","""","""","2021-10-02 15:11:50",99.229.52.133,"Mozilla/5.0 (Windows NT 10.0; Win64; x64) AppleWebKit/537.36 (KHTML, like Gecko) Chrome/94.0.4606.61 Safari/537.36 Edg/94.0.992.31",WebKit,Edge,94.0.992.31,Windows,10.0,fe3c1d035a65c549f7011c5446f73ede
14,1,1104.6000000089407,arrowright,psychophysics,182,410440,0.0-3.0-0.88,"""",key,arrowright,16.665909090909267,682.5,325,89,4,-1,24,35,25,35,false,"2021-10-02 15:11:50",99.229.52.133,"Mozilla/5.0 (Windows NT 10.0; Win64; x64) AppleWebKit/537.36 (KHTML, like Gecko) Chrome/94.0.4606.61 Safari/537.36 Edg/94.0.992.31",WebKit,Edge,94.0.992.31,Windows,10.0,fe3c1d035a65c549f7011c5446f73ede
14,1,null,null,psychophysics,183,411443,0.0-3.0-1.88,"""",key,null,16.66089830508503,682.5,325,"""","""","""","""","""","""","""","""","2021-10-02 15:11:50",99.229.52.133,"Mozilla/5.0 (Windows NT 10.0; Win64; x64) AppleWebKit/537.36 (KHTML, like Gecko) Chrome/94.0.4606.61 Safari/537.36 Edg/94.0.992.31",WebKit,Edge,94.0.992.31,Windows,10.0,fe3c1d035a65c549f7011c5446f73ede
14,1,702.0999999940395,arrowright,psychophysics,184,412148,0.0-3.0-0.89,"""",key,arrowright,16.663238095238782,682.5,325,90,4,1,30,35,25,35,true,"2021-10-02 15:11:50",99.229.52.133,"Mozilla/5.0 (Windows NT 10.0; Win64; x64) AppleWebKit/537.36 (KHTML, like Gecko) Chrome/94.0.4606.61 Safari/537.36 Edg/94.0.992.31",WebKit,Edge,94.0.992.31,Windows,10.0,fe3c1d035a65c549f7011c5446f73ede
14,1,null,null,psychophysics,185,413151,0.0-3.0-1.89,"""",key,null,16.66388135593211,682.5,325,"""","""","""","""","""","""","""","""","2021-10-02 15:11:50",99.229.52.133,"Mozilla/5.0 (Windows NT 10.0; Win64; x64) AppleWebKit/537.36 (KHTML, like Gecko) Chrome/94.0.4606.61 Safari/537.36 Edg/94.0.992.31",WebKit,Edge,94.0.992.31,Windows,10.0,fe3c1d035a65c549f7011c5446f73ede
14,1,753.6000000089407,arrowright,psychophysics,186,413916,0.0-3.0-0.90,"""",key,arrowright,16.663022222222448,682.5,325,91,4,1,24,15,25,35,true,"2021-10-02 15:11:50",99.229.52.133,"Mozilla/5.0 (Windows NT 10.0; Win64; x64) AppleWebKit/537.36 (KHTML, like Gecko) Chrome/94.0.4606.61 Safari/537.36 Edg/94.0.992.31",WebKit,Edge,94.0.992.31,Windows,10.0,fe3c1d035a65c549f7011c5446f73ede
14,1,null,null,psychophysics,187,414918,0.0-3.0-1.90,"""",key,null,16.658288135593835,682.5,325,"""","""","""","""","""","""","""","""","2021-10-02 15:11:50",99.229.52.133,"Mozilla/5.0 (Windows NT 10.0; Win64; x64) AppleWebKit/537.36 (KHTML, like Gecko) Chrome/94.0.4606.61 Safari/537.36 Edg/94.0.992.31",WebKit,Edge,94.0.992.31,Windows,10.0,fe3c1d035a65c549f7011c5446f73ede
14,1,1949.6000000089407,arrowleft,psychophysics,188,416873,0.0-3.0-0.91,"""",key,arrowleft,16.66454310344827,682.5,325,92,4,1,24,35,25,35,false,"2021-10-02 15:11:50",99.229.52.133,"Mozilla/5.0 (Windows NT 10.0; Win64; x64) AppleWebKit/537.36 (KHTML, like Gecko) Chrome/94.0.4606.61 Safari/537.36 Edg/94.0.992.31",WebKit,Edge,94.0.992.31,Windows,10.0,fe3c1d035a65c549f7011c5446f73ede
14,1,null,null,psychophysics,189,417874,0.0-3.0-1.91,"""",key,null,16.667864406780318,682.5,325,"""","""","""","""","""","""","""","""","2021-10-02 15:11:50",99.229.52.133,"Mozilla/5.0 (Windows NT 10.0; Win64; x64) AppleWebKit/537.36 (KHTML, like Gecko) Chrome/94.0.4606.61 Safari/537.36 Edg/94.0.992.31",WebKit,Edge,94.0.992.31,Windows,10.0,fe3c1d035a65c549f7011c5446f73ede
14,1,1133.4000000059605,arrowleft,psychophysics,190,419016,0.0-3.0-0.92,"""",key,arrowleft,16.664102941177106,682.5,325,93,4,-1,25,15,25,35,true,"2021-10-02 15:11:50",99.229.52.133,"Mozilla/5.0 (Windows NT 10.0; Win64; x64) AppleWebKit/537.36 (KHTML, like Gecko) Chrome/94.0.4606.61 Safari/537.36 Edg/94.0.992.31",WebKit,Edge,94.0.992.31,Windows,10.0,fe3c1d035a65c549f7011c5446f73ede
14,1,null,null,psychophysics,191,420022,0.0-3.0-1.92,"""",key,null,16.668338983050365,682.5,325,"""","""","""","""","""","""","""","""","2021-10-02 15:11:50",99.229.52.133,"Mozilla/5.0 (Windows NT 10.0; Win64; x64) AppleWebKit/537.36 (KHTML, like Gecko) Chrome/94.0.4606.61 Safari/537.36 Edg/94.0.992.31",WebKit,Edge,94.0.992.31,Windows,10.0,fe3c1d035a65c549f7011c5446f73ede
14,1,899.1999999880791,arrowleft,psychophysics,192,420924,0.0-3.0-0.93,"""",key,arrowleft,16.665471698112462,682.5,325,94,4,1,20,15,25,35,false,"2021-10-02 15:11:50",99.229.52.133,"Mozilla/5.0 (Windows NT 10.0; Win64; x64) AppleWebKit/537.36 (KHTML, like Gecko) Chrome/94.0.4606.61 Safari/537.36 Edg/94.0.992.31",WebKit,Edge,94.0.992.31,Windows,10.0,fe3c1d035a65c549f7011c5446f73ede
14,1,null,null,psychophysics,193,421927,0.0-3.0-1.93,"""",key,null,16.660932203389752,682.5,325,"""","""","""","""","""","""","""","""","2021-10-02 15:11:50",99.229.52.133,"Mozilla/5.0 (Windows NT 10.0; Win64; x64) AppleWebKit/537.36 (KHTML, like Gecko) Chrome/94.0.4606.61 Safari/537.36 Edg/94.0.992.31",WebKit,Edge,94.0.992.31,Windows,10.0,fe3c1d035a65c549f7011c5446f73ede
14,1,573.8999999910593,arrowright,psychophysics,194,422506,0.0-3.0-0.94,"""",key,arrowright,16.663735294118798,682.5,325,95,4,-1,20,15,25,35,false,"2021-10-02 15:11:50",99.229.52.133,"Mozilla/5.0 (Windows NT 10.0; Win64; x64) AppleWebKit/537.36 (KHTML, like Gecko) Chrome/94.0.4606.61 Safari/537.36 Edg/94.0.992.31",WebKit,Edge,94.0.992.31,Windows,10.0,fe3c1d035a65c549f7011c5446f73ede
14,1,null,null,psychophysics,195,423508,0.0-3.0-1.94,"""",key,null,16.660949152542113,682.5,325,"""","""","""","""","""","""","""","""","2021-10-02 15:11:50",99.229.52.133,"Mozilla/5.0 (Windows NT 10.0; Win64; x64) AppleWebKit/537.36 (KHTML, like Gecko) Chrome/94.0.4606.61 Safari/537.36 Edg/94.0.992.31",WebKit,Edge,94.0.992.31,Windows,10.0,fe3c1d035a65c549f7011c5446f73ede
14,1,4982.5999999940395,arrowleft,psychophysics,196,428495,0.0-3.0-0.95,"""",key,arrowleft,16.662846153846125,682.5,325,96,4,-1,25,35,25,35,true,"2021-10-02 15:11:50",99.229.52.133,"Mozilla/5.0 (Windows NT 10.0; Win64; x64) AppleWebKit/537.36 (KHTML, like Gecko) Chrome/94.0.4606.61 Safari/537.36 Edg/94.0.992.31",WebKit,Edge,94.0.992.31,Windows,10.0,fe3c1d035a65c549f7011c5446f73ede
14,1,null,null,psychophysics,197,429507,0.0-3.0-1.95,"""",key,null,16.663813559322666,682.5,325,"""","""","""","""","""","""","""","""","2021-10-02 15:11:50",99.229.52.133,"Mozilla/5.0 (Windows NT 10.0; Win64; x64) AppleWebKit/537.36 (KHTML, like Gecko) Chrome/94.0.4606.61 Safari/537.36 Edg/94.0.992.31",WebKit,Edge,94.0.992.31,Windows,10.0,fe3c1d035a65c549f7011c5446f73ede
14,1,789.4000000059605,arrowleft,psychophysics,198,430305,0.0-3.0-0.96,"""",key,arrowleft,16.665893617020473,682.5,325,97,4,1,24,35,25,35,false,"2021-10-02 15:11:50",99.229.52.133,"Mozilla/5.0 (Windows NT 10.0; Win64; x64) AppleWebKit/537.36 (KHTML, like Gecko) Chrome/94.0.4606.61 Safari/537.36 Edg/94.0.992.31",WebKit,Edge,94.0.992.31,Windows,10.0,fe3c1d035a65c549f7011c5446f73ede
14,1,null,null,psychophysics,199,431308,0.0-3.0-1.96,"""",key,null,16.666186440677848,682.5,325,"""","""","""","""","""","""","""","""","2021-10-02 15:11:50",99.229.52.133,"Mozilla/5.0 (Windows NT 10.0; Win64; x64) AppleWebKit/537.36 (KHTML, like Gecko) Chrome/94.0.4606.61 Safari/537.36 Edg/94.0.992.31",WebKit,Edge,94.0.992.31,Windows,10.0,fe3c1d035a65c549f7011c5446f73ede
14,1,633.7000000029802,arrowright,psychophysics,200,431950,0.0-3.0-0.97,"""",key,arrowright,16.656973684209667,682.5,325,98,4,1,30,35,25,35,true,"2021-10-02 15:11:50",99.229.52.133,"Mozilla/5.0 (Windows NT 10.0; Win64; x64) AppleWebKit/537.36 (KHTML, like Gecko) Chrome/94.0.4606.61 Safari/537.36 Edg/94.0.992.31",WebKit,Edge,94.0.992.31,Windows,10.0,fe3c1d035a65c549f7011c5446f73ede
14,1,null,null,psychophysics,201,432952,0.0-3.0-1.97,"""",key,null,16.662661016949304,682.5,325,"""","""","""","""","""","""","""","""","2021-10-02 15:11:50",99.229.52.133,"Mozilla/5.0 (Windows NT 10.0; Win64; x64) AppleWebKit/537.36 (KHTML, like Gecko) Chrome/94.0.4606.61 Safari/537.36 Edg/94.0.992.31",WebKit,Edge,94.0.992.31,Windows,10.0,fe3c1d035a65c549f7011c5446f73ede
14,1,1597.699999988079,arrowleft,psychophysics,202,434554,0.0-3.0-0.98,"""",key,arrowleft,16.664673684210836,682.5,325,99,4,1,25,35,25,35,false,"2021-10-02 15:11:50",99.229.52.133,"Mozilla/5.0 (Windows NT 10.0; Win64; x64) AppleWebKit/537.36 (KHTML, like Gecko) Chrome/94.0.4606.61 Safari/537.36 Edg/94.0.992.31",WebKit,Edge,94.0.992.31,Windows,10.0,fe3c1d035a65c549f7011c5446f73ede
14,1,null,null,psychophysics,203,435562,0.0-3.0-1.98,"""",key,null,16.66498333333293,682.5,325,"""","""","""","""","""","""","""","""","2021-10-02 15:11:50",99.229.52.133,"Mozilla/5.0 (Windows NT 10.0; Win64; x64) AppleWebKit/537.36 (KHTML, like Gecko) Chrome/94.0.4606.61 Safari/537.36 Edg/94.0.992.31",WebKit,Edge,94.0.992.31,Windows,10.0,fe3c1d035a65c549f7011c5446f73ede
14,1,1093.5999999940395,arrowleft,psychophysics,204,436661,0.0-3.0-0.99,"""",key,arrowleft,16.66609230769189,682.5,325,100,4,-1,26,35,25,35,true,"2021-10-02 15:11:50",99.229.52.133,"Mozilla/5.0 (Windows NT 10.0; Win64; x64) AppleWebKit/537.36 (KHTML, like Gecko) Chrome/94.0.4606.61 Safari/537.36 Edg/94.0.992.31",WebKit,Edge,94.0.992.31,Windows,10.0,fe3c1d035a65c549f7011c5446f73ede
14,1,null,null,psychophysics,205,437664,0.0-3.0-1.99,"""",key,null,16.661796610170022,682.5,325,"""","""","""","""","""","""","""","""","2021-10-02 15:11:50",99.229.52.133,"Mozilla/5.0 (Windows NT 10.0; Win64; x64) AppleWebKit/537.36 (KHTML, like Gecko) Chrome/94.0.4606.61 Safari/537.36 Edg/94.0.992.31",WebKit,Edge,94.0.992.31,Windows,10.0,fe3c1d035a65c549f7011c5446f73ede
14,1,763.8999999910593,arrowright,psychophysics,206,438433,0.0-3.0-0.100,"""",key,arrowright,16.661933333333582,682.5,325,101,4,1,27,15,25,35,true,"2021-10-02 15:11:50",99.229.52.133,"Mozilla/5.0 (Windows NT 10.0; Win64; x64) AppleWebKit/537.36 (KHTML, like Gecko) Chrome/94.0.4606.61 Safari/537.36 Edg/94.0.992.31",WebKit,Edge,94.0.992.31,Windows,10.0,fe3c1d035a65c549f7011c5446f73ede
14,1,null,null,psychophysics,207,439436,0.0-3.0-1.100,"""",key,null,16.65701694915296,682.5,325,"""","""","""","""","""","""","""","""","2021-10-02 15:11:50",99.229.52.133,"Mozilla/5.0 (Windows NT 10.0; Win64; x64) AppleWebKit/537.36 (KHTML, like Gecko) Chrome/94.0.4606.61 Safari/537.36 Edg/94.0.992.31",WebKit,Edge,94.0.992.31,Windows,10.0,fe3c1d035a65c549f7011c5446f73ede
14,1,908.6999999880791,arrowleft,psychophysics,208,440347,0.0-3.0-0.101,"""",key,arrowleft,16.668018518518053,682.5,325,102,4,-1,30,35,25,35,true,"2021-10-02 15:11:50",99.229.52.133,"Mozilla/5.0 (Windows NT 10.0; Win64; x64) AppleWebKit/537.36 (KHTML, like Gecko) Chrome/94.0.4606.61 Safari/537.36 Edg/94.0.992.31",WebKit,Edge,94.0.992.31,Windows,10.0,fe3c1d035a65c549f7011c5446f73ede
14,1,null,null,psychophysics,209,441349,0.0-3.0-1.101,"""",key,null,16.658677966102083,682.5,325,"""","""","""","""","""","""","""","""","2021-10-02 15:11:50",99.229.52.133,"Mozilla/5.0 (Windows NT 10.0; Win64; x64) AppleWebKit/537.36 (KHTML, like Gecko) Chrome/94.0.4606.61 Safari/537.36 Edg/94.0.992.31",WebKit,Edge,94.0.992.31,Windows,10.0,fe3c1d035a65c549f7011c5446f73ede
14,1,1204.6000000089407,arrowright,psychophysics,210,442568,0.0-3.0-0.102,"""",key,arrowright,16.662055555555625,682.5,325,103,4,1,26,35,25,35,true,"2021-10-02 15:11:50",99.229.52.133,"Mozilla/5.0 (Windows NT 10.0; Win64; x64) AppleWebKit/537.36 (KHTML, like Gecko) Chrome/94.0.4606.61 Safari/537.36 Edg/94.0.992.31",WebKit,Edge,94.0.992.31,Windows,10.0,fe3c1d035a65c549f7011c5446f73ede
14,1,null,null,psychophysics,211,443569,0.0-3.0-1.102,"""",key,null,16.66481355932281,682.5,325,"""","""","""","""","""","""","""","""","2021-10-02 15:11:50",99.229.52.133,"Mozilla/5.0 (Windows NT 10.0; Win64; x64) AppleWebKit/537.36 (KHTML, like Gecko) Chrome/94.0.4606.61 Safari/537.36 Edg/94.0.992.31",WebKit,Edge,94.0.992.31,Windows,10.0,fe3c1d035a65c549f7011c5446f73ede
14,1,847.2999999970198,arrowleft,psychophysics,212,444425,0.0-3.0-0.103,"""",key,arrowleft,16.66554901960726,682.5,325,104,4,-1,30,35,25,35,true,"2021-10-02 15:11:50",99.229.52.133,"Mozilla/5.0 (Windows NT 10.0; Win64; x64) AppleWebKit/537.36 (KHTML, like Gecko) Chrome/94.0.4606.61 Safari/537.36 Edg/94.0.992.31",WebKit,Edge,94.0.992.31,Windows,10.0,fe3c1d035a65c549f7011c5446f73ede
14,1,null,null,psychophysics,213,445428,0.0-3.0-1.103,"""",key,null,16.659745762711665,682.5,325,"""","""","""","""","""","""","""","""","2021-10-02 15:11:50",99.229.52.133,"Mozilla/5.0 (Windows NT 10.0; Win64; x64) AppleWebKit/537.36 (KHTML, like Gecko) Chrome/94.0.4606.61 Safari/537.36 Edg/94.0.992.31",WebKit,Edge,94.0.992.31,Windows,10.0,fe3c1d035a65c549f7011c5446f73ede
14,1,713,arrowright,psychophysics,214,446146,0.0-3.0-0.104,"""",key,arrowright,16.662309523809068,682.5,325,105,4,1,27,15,25,35,true,"2021-10-02 15:11:50",99.229.52.133,"Mozilla/5.0 (Windows NT 10.0; Win64; x64) AppleWebKit/537.36 (KHTML, like Gecko) Chrome/94.0.4606.61 Safari/537.36 Edg/94.0.992.31",WebKit,Edge,94.0.992.31,Windows,10.0,fe3c1d035a65c549f7011c5446f73ede
14,1,null,null,psychophysics,215,447148,0.0-3.0-1.104,"""",key,null,16.664610169491517,682.5,325,"""","""","""","""","""","""","""","""","2021-10-02 15:11:50",99.229.52.133,"Mozilla/5.0 (Windows NT 10.0; Win64; x64) AppleWebKit/537.36 (KHTML, like Gecko) Chrome/94.0.4606.61 Safari/537.36 Edg/94.0.992.31",WebKit,Edge,94.0.992.31,Windows,10.0,fe3c1d035a65c549f7011c5446f73ede
14,1,660.2000000029802,arrowleft,psychophysics,216,447826,0.0-3.0-0.105,"""",key,arrowleft,16.6617499999993,682.5,325,106,4,-1,30,15,25,35,true,"2021-10-02 15:11:50",99.229.52.133,"Mozilla/5.0 (Windows NT 10.0; Win64; x64) AppleWebKit/537.36 (KHTML, like Gecko) Chrome/94.0.4606.61 Safari/537.36 Edg/94.0.992.31",WebKit,Edge,94.0.992.31,Windows,10.0,fe3c1d035a65c549f7011c5446f73ede
14,1,null,null,psychophysics,217,448827,0.0-3.0-1.105,"""",key,null,16.66401694915297,682.5,325,"""","""","""","""","""","""","""","""","2021-10-02 15:11:50",99.229.52.133,"Mozilla/5.0 (Windows NT 10.0; Win64; x64) AppleWebKit/537.36 (KHTML, like Gecko) Chrome/94.0.4606.61 Safari/537.36 Edg/94.0.992.31",WebKit,Edge,94.0.992.31,Windows,10.0,fe3c1d035a65c549f7011c5446f73ede
14,1,639.0999999940395,arrowright,psychophysics,218,449471,0.0-3.0-0.106,"""",key,arrowright,16.664157894737162,682.5,325,107,4,1,30,15,25,35,true,"2021-10-02 15:11:50",99.229.52.133,"Mozilla/5.0 (Windows NT 10.0; Win64; x64) AppleWebKit/537.36 (KHTML, like Gecko) Chrome/94.0.4606.61 Safari/537.36 Edg/94.0.992.31",WebKit,Edge,94.0.992.31,Windows,10.0,fe3c1d035a65c549f7011c5446f73ede
14,1,null,null,psychophysics,219,450473,0.0-3.0-1.106,"""",key,null,16.663440677965795,682.5,325,"""","""","""","""","""","""","""","""","2021-10-02 15:11:50",99.229.52.133,"Mozilla/5.0 (Windows NT 10.0; Win64; x64) AppleWebKit/537.36 (KHTML, like Gecko) Chrome/94.0.4606.61 Safari/537.36 Edg/94.0.992.31",WebKit,Edge,94.0.992.31,Windows,10.0,fe3c1d035a65c549f7011c5446f73ede
14,1,873.5999999940395,arrowleft,psychophysics,220,451350,0.0-3.0-0.107,"""",key,arrowleft,16.657450980392706,682.5,325,108,4,1,23,35,25,35,false,"2021-10-02 15:11:50",99.229.52.133,"Mozilla/5.0 (Windows NT 10.0; Win64; x64) AppleWebKit/537.36 (KHTML, like Gecko) Chrome/94.0.4606.61 Safari/537.36 Edg/94.0.992.31",WebKit,Edge,94.0.992.31,Windows,10.0,fe3c1d035a65c549f7011c5446f73ede
14,1,null,null,psychophysics,221,452352,0.0-3.0-1.107,"""",key,null,16.665135593220622,682.5,325,"""","""","""","""","""","""","""","""","2021-10-02 15:11:50",99.229.52.133,"Mozilla/5.0 (Windows NT 10.0; Win64; x64) AppleWebKit/537.36 (KHTML, like Gecko) Chrome/94.0.4606.61 Safari/537.36 Edg/94.0.992.31",WebKit,Edge,94.0.992.31,Windows,10.0,fe3c1d035a65c549f7011c5446f73ede
14,1,3700.2999999970198,arrowright,psychophysics,222,456058,0.0-3.0-0.108,"""",key,arrowright,16.662711711711594,682.5,325,109,4,-1,23,15,25,35,false,"2021-10-02 15:11:50",99.229.52.133,"Mozilla/5.0 (Windows NT 10.0; Win64; x64) AppleWebKit/537.36 (KHTML, like Gecko) Chrome/94.0.4606.61 Safari/537.36 Edg/94.0.992.31",WebKit,Edge,94.0.992.31,Windows,10.0,fe3c1d035a65c549f7011c5446f73ede
14,1,null,null,psychophysics,223,457070,0.0-3.0-1.108,"""",key,null,16.666966666666365,682.5,325,"""","""","""","""","""","""","""","""","2021-10-02 15:11:50",99.229.52.133,"Mozilla/5.0 (Windows NT 10.0; Win64; x64) AppleWebKit/537.36 (KHTML, like Gecko) Chrome/94.0.4606.61 Safari/537.36 Edg/94.0.992.31",WebKit,Edge,94.0.992.31,Windows,10.0,fe3c1d035a65c549f7011c5446f73ede
14,1,2241.7999999970198,arrowleft,psychophysics,224,459318,0.0-3.0-0.109,"""",key,arrowleft,16.66166917293217,682.5,325,110,4,-1,26,35,25,35,true,"2021-10-02 15:11:50",99.229.52.133,"Mozilla/5.0 (Windows NT 10.0; Win64; x64) AppleWebKit/537.36 (KHTML, like Gecko) Chrome/94.0.4606.61 Safari/537.36 Edg/94.0.992.31",WebKit,Edge,94.0.992.31,Windows,10.0,fe3c1d035a65c549f7011c5446f73ede
14,1,null,null,psychophysics,225,460322,0.0-3.0-1.109,"""",key,null,16.661133333333417,682.5,325,"""","""","""","""","""","""","""","""","2021-10-02 15:11:50",99.229.52.133,"Mozilla/5.0 (Windows NT 10.0; Win64; x64) AppleWebKit/537.36 (KHTML, like Gecko) Chrome/94.0.4606.61 Safari/537.36 Edg/94.0.992.31",WebKit,Edge,94.0.992.31,Windows,10.0,fe3c1d035a65c549f7011c5446f73ede
14,1,931.2000000029802,arrowleft,psychophysics,226,461257,0.0-3.0-0.110,"""",key,arrowleft,16.66336363636444,682.5,325,111,4,1,20,15,25,35,false,"2021-10-02 15:11:50",99.229.52.133,"Mozilla/5.0 (Windows NT 10.0; Win64; x64) AppleWebKit/537.36 (KHTML, like Gecko) Chrome/94.0.4606.61 Safari/537.36 Edg/94.0.992.31",WebKit,Edge,94.0.992.31,Windows,10.0,fe3c1d035a65c549f7011c5446f73ede
14,1,null,null,psychophysics,227,462258,0.0-3.0-1.110,"""",key,null,16.664898305084613,682.5,325,"""","""","""","""","""","""","""","""","2021-10-02 15:11:50",99.229.52.133,"Mozilla/5.0 (Windows NT 10.0; Win64; x64) AppleWebKit/537.36 (KHTML, like Gecko) Chrome/94.0.4606.61 Safari/537.36 Edg/94.0.992.31",WebKit,Edge,94.0.992.31,Windows,10.0,fe3c1d035a65c549f7011c5446f73ede
14,1,1118.5999999940395,arrowleft,psychophysics,228,463392,0.0-3.0-0.111,"""",key,arrowleft,16.66220895522413,682.5,325,112,5,1,25,35,25,35,false,"2021-10-02 15:11:50",99.229.52.133,"Mozilla/5.0 (Windows NT 10.0; Win64; x64) AppleWebKit/537.36 (KHTML, like Gecko) Chrome/94.0.4606.61 Safari/537.36 Edg/94.0.992.31",WebKit,Edge,94.0.992.31,Windows,10.0,fe3c1d035a65c549f7011c5446f73ede
14,1,null,null,psychophysics,229,464396,0.0-3.0-1.111,"""",key,null,16.663355932203004,682.5,325,"""","""","""","""","""","""","""","""","2021-10-02 15:11:50",99.229.52.133,"Mozilla/5.0 (Windows NT 10.0; Win64; x64) AppleWebKit/537.36 (KHTML, like Gecko) Chrome/94.0.4606.61 Safari/537.36 Edg/94.0.992.31",WebKit,Edge,94.0.992.31,Windows,10.0,fe3c1d035a65c549f7011c5446f73ede
14,1,1917.0999999940395,arrowleft,html-keyboard-response,230,466315,0.0-3.0-2.111-0.111,"<div style=""color: white; text-align: center; vertical-align: top; display: inline-block; width: 800px; margin: auto""><p>You have completed 40% of the trials. You are on block 5 of 10. <br>Good job! Take a break if you need to.</p><p>Press any key to continue the experiment.</p></div>","""","""","""","""","""","""","""","""","""","""","""","""","""","2021-10-02 15:11:50",99.229.52.133,"Mozilla/5.0 (Windows NT 10.0; Win64; x64) AppleWebKit/537.36 (KHTML, like Gecko) Chrome/94.0.4606.61 Safari/537.36 Edg/94.0.992.31",WebKit,Edge,94.0.992.31,Windows,10.0,fe3c1d035a65c549f7011c5446f73ede
14,1,880.5999999940395,arrowleft,psychophysics,231,468202,0.0-3.0-0.112,"""",key,arrowleft,16.664528301886264,682.5,325,113,5,1,23,35,25,35,false,"2021-10-02 15:11:50",99.229.52.133,"Mozilla/5.0 (Windows NT 10.0; Win64; x64) AppleWebKit/537.36 (KHTML, like Gecko) Chrome/94.0.4606.61 Safari/537.36 Edg/94.0.992.31",WebKit,Edge,94.0.992.31,Windows,10.0,fe3c1d035a65c549f7011c5446f73ede
14,1,null,null,psychophysics,232,469215,0.0-3.0-1.112,"""",key,null,16.667745762711817,682.5,325,"""","""","""","""","""","""","""","""","2021-10-02 15:11:50",99.229.52.133,"Mozilla/5.0 (Windows NT 10.0; Win64; x64) AppleWebKit/537.36 (KHTML, like Gecko) Chrome/94.0.4606.61 Safari/537.36 Edg/94.0.992.31",WebKit,Edge,94.0.992.31,Windows,10.0,fe3c1d035a65c549f7011c5446f73ede
14,1,865.7999999970198,arrowleft,psychophysics,233,470090,0.0-3.0-0.113,"""",key,arrowleft,16.664076923077047,682.5,325,114,5,1,20,15,25,35,false,"2021-10-02 15:11:50",99.229.52.133,"Mozilla/5.0 (Windows NT 10.0; Win64; x64) AppleWebKit/537.36 (KHTML, like Gecko) Chrome/94.0.4606.61 Safari/537.36 Edg/94.0.992.31",WebKit,Edge,94.0.992.31,Windows,10.0,fe3c1d035a65c549f7011c5446f73ede
14,1,null,null,psychophysics,234,471091,0.0-3.0-1.113,"""",key,null,16.6560677966099,682.5,325,"""","""","""","""","""","""","""","""","2021-10-02 15:11:50",99.229.52.133,"Mozilla/5.0 (Windows NT 10.0; Win64; x64) AppleWebKit/537.36 (KHTML, like Gecko) Chrome/94.0.4606.61 Safari/537.36 Edg/94.0.992.31",WebKit,Edge,94.0.992.31,Windows,10.0,fe3c1d035a65c549f7011c5446f73ede
14,1,632.9000000059605,arrowright,psychophysics,235,471729,0.0-3.0-0.114,"""",key,arrowright,16.66994594594596,682.5,325,115,5,1,30,15,25,35,true,"2021-10-02 15:11:50",99.229.52.133,"Mozilla/5.0 (Windows NT 10.0; Win64; x64) AppleWebKit/537.36 (KHTML, like Gecko) Chrome/94.0.4606.61 Safari/537.36 Edg/94.0.992.31",WebKit,Edge,94.0.992.31,Windows,10.0,fe3c1d035a65c549f7011c5446f73ede
14,1,null,null,psychophysics,236,472731,0.0-3.0-1.114,"""",key,null,16.66471186440667,682.5,325,"""","""","""","""","""","""","""","""","2021-10-02 15:11:50",99.229.52.133,"Mozilla/5.0 (Windows NT 10.0; Win64; x64) AppleWebKit/537.36 (KHTML, like Gecko) Chrome/94.0.4606.61 Safari/537.36 Edg/94.0.992.31",WebKit,Edge,94.0.992.31,Windows,10.0,fe3c1d035a65c549f7011c5446f73ede
14,1,4816.5,arrowleft,psychophysics,237,477552,0.0-3.0-0.115,"""",key,arrowleft,16.66227681660895,682.5,325,116,5,1,23,35,25,35,false,"2021-10-02 15:11:50",99.229.52.133,"Mozilla/5.0 (Windows NT 10.0; Win64; x64) AppleWebKit/537.36 (KHTML, like Gecko) Chrome/94.0.4606.61 Safari/537.36 Edg/94.0.992.31",WebKit,Edge,94.0.992.31,Windows,10.0,fe3c1d035a65c549f7011c5446f73ede
14,1,null,null,psychophysics,238,478557,0.0-3.0-1.115,"""",key,null,16.66467796610096,682.5,325,"""","""","""","""","""","""","""","""","2021-10-02 15:11:50",99.229.52.133,"Mozilla/5.0 (Windows NT 10.0; Win64; x64) AppleWebKit/537.36 (KHTML, like Gecko) Chrome/94.0.4606.61 Safari/537.36 Edg/94.0.992.31",WebKit,Edge,94.0.992.31,Windows,10.0,fe3c1d035a65c549f7011c5446f73ede
14,1,929.0999999940395,arrowleft,psychophysics,239,479489,0.0-3.0-0.116,"""",key,arrowleft,16.667254545454952,682.5,325,117,5,1,20,35,25,35,false,"2021-10-02 15:11:50",99.229.52.133,"Mozilla/5.0 (Windows NT 10.0; Win64; x64) AppleWebKit/537.36 (KHTML, like Gecko) Chrome/94.0.4606.61 Safari/537.36 Edg/94.0.992.31",WebKit,Edge,94.0.992.31,Windows,10.0,fe3c1d035a65c549f7011c5446f73ede
14,1,null,null,psychophysics,240,480491,0.0-3.0-1.116,"""",key,null,16.660186440677982,682.5,325,"""","""","""","""","""","""","""","""","2021-10-02 15:11:50",99.229.52.133,"Mozilla/5.0 (Windows NT 10.0; Win64; x64) AppleWebKit/537.36 (KHTML, like Gecko) Chrome/94.0.4606.61 Safari/537.36 Edg/94.0.992.31",WebKit,Edge,94.0.992.31,Windows,10.0,fe3c1d035a65c549f7011c5446f73ede
14,1,801.7999999970198,arrowleft,psychophysics,241,481298,0.0-3.0-0.117,"""",key,arrowleft,16.662583333332197,682.5,325,118,5,-1,27,35,25,35,true,"2021-10-02 15:11:50",99.229.52.133,"Mozilla/5.0 (Windows NT 10.0; Win64; x64) AppleWebKit/537.36 (KHTML, like Gecko) Chrome/94.0.4606.61 Safari/537.36 Edg/94.0.992.31",WebKit,Edge,94.0.992.31,Windows,10.0,fe3c1d035a65c549f7011c5446f73ede
14,1,null,null,psychophysics,242,482302,0.0-3.0-1.117,"""",key,null,16.65701694915296,682.5,325,"""","""","""","""","""","""","""","""","2021-10-02 15:11:50",99.229.52.133,"Mozilla/5.0 (Windows NT 10.0; Win64; x64) AppleWebKit/537.36 (KHTML, like Gecko) Chrome/94.0.4606.61 Safari/537.36 Edg/94.0.992.31",WebKit,Edge,94.0.992.31,Windows,10.0,fe3c1d035a65c549f7011c5446f73ede
14,1,776.5,arrowright,psychophysics,243,483081,0.0-3.0-0.118,"""",key,arrowright,16.661478260869877,682.5,325,119,5,1,27,15,25,35,true,"2021-10-02 15:11:50",99.229.52.133,"Mozilla/5.0 (Windows NT 10.0; Win64; x64) AppleWebKit/537.36 (KHTML, like Gecko) Chrome/94.0.4606.61 Safari/537.36 Edg/94.0.992.31",WebKit,Edge,94.0.992.31,Windows,10.0,fe3c1d035a65c549f7011c5446f73ede
14,1,null,null,psychophysics,244,484085,0.0-3.0-1.118,"""",key,null,16.66281355932154,682.5,325,"""","""","""","""","""","""","""","""","2021-10-02 15:11:50",99.229.52.133,"Mozilla/5.0 (Windows NT 10.0; Win64; x64) AppleWebKit/537.36 (KHTML, like Gecko) Chrome/94.0.4606.61 Safari/537.36 Edg/94.0.992.31",WebKit,Edge,94.0.992.31,Windows,10.0,fe3c1d035a65c549f7011c5446f73ede
14,1,876.2000000029802,arrowright,psychophysics,245,484977,0.0-3.0-0.119,"""",key,arrowright,16.661557692307934,682.5,325,120,5,1,30,35,25,35,true,"2021-10-02 15:11:50",99.229.52.133,"Mozilla/5.0 (Windows NT 10.0; Win64; x64) AppleWebKit/537.36 (KHTML, like Gecko) Chrome/94.0.4606.61 Safari/537.36 Edg/94.0.992.31",WebKit,Edge,94.0.992.31,Windows,10.0,fe3c1d035a65c549f7011c5446f73ede
14,1,null,null,psychophysics,246,485980,0.0-3.0-1.119,"""",key,null,16.66150000000004,682.5,325,"""","""","""","""","""","""","""","""","2021-10-02 15:11:50",99.229.52.133,"Mozilla/5.0 (Windows NT 10.0; Win64; x64) AppleWebKit/537.36 (KHTML, like Gecko) Chrome/94.0.4606.61 Safari/537.36 Edg/94.0.992.31",WebKit,Edge,94.0.992.31,Windows,10.0,fe3c1d035a65c549f7011c5446f73ede
14,1,3966.0999999940395,arrowleft,psychophysics,247,489950,0.0-3.0-0.120,"""",key,arrowleft,16.662620253164423,682.5,325,121,5,-1,26,35,25,35,true,"2021-10-02 15:11:50",99.229.52.133,"Mozilla/5.0 (Windows NT 10.0; Win64; x64) AppleWebKit/537.36 (KHTML, like Gecko) Chrome/94.0.4606.61 Safari/537.36 Edg/94.0.992.31",WebKit,Edge,94.0.992.31,Windows,10.0,fe3c1d035a65c549f7011c5446f73ede
14,1,null,null,psychophysics,248,490953,0.0-3.0-1.120,"""",key,null,16.662881355932953,682.5,325,"""","""","""","""","""","""","""","""","2021-10-02 15:11:50",99.229.52.133,"Mozilla/5.0 (Windows NT 10.0; Win64; x64) AppleWebKit/537.36 (KHTML, like Gecko) Chrome/94.0.4606.61 Safari/537.36 Edg/94.0.992.31",WebKit,Edge,94.0.992.31,Windows,10.0,fe3c1d035a65c549f7011c5446f73ede
14,1,1488.699999988079,arrowright,psychophysics,249,492447,0.0-3.0-0.121,"""",key,arrowright,16.661629213483252,682.5,325,122,5,1,27,35,25,35,true,"2021-10-02 15:11:50",99.229.52.133,"Mozilla/5.0 (Windows NT 10.0; Win64; x64) AppleWebKit/537.36 (KHTML, like Gecko) Chrome/94.0.4606.61 Safari/537.36 Edg/94.0.992.31",WebKit,Edge,94.0.992.31,Windows,10.0,fe3c1d035a65c549f7011c5446f73ede
14,1,null,null,psychophysics,250,493450,0.0-3.0-1.121,"""",key,null,16.663610169491374,682.5,325,"""","""","""","""","""","""","""","""","2021-10-02 15:11:50",99.229.52.133,"Mozilla/5.0 (Windows NT 10.0; Win64; x64) AppleWebKit/537.36 (KHTML, like Gecko) Chrome/94.0.4606.61 Safari/537.36 Edg/94.0.992.31",WebKit,Edge,94.0.992.31,Windows,10.0,fe3c1d035a65c549f7011c5446f73ede
14,1,7752.5999999940395,arrowright,psychophysics,251,501207,0.0-3.0-0.122,"""",key,arrowright,16.662724137930944,682.5,325,123,5,1,27,15,25,35,true,"2021-10-02 15:11:50",99.229.52.133,"Mozilla/5.0 (Windows NT 10.0; Win64; x64) AppleWebKit/537.36 (KHTML, like Gecko) Chrome/94.0.4606.61 Safari/537.36 Edg/94.0.992.31",WebKit,Edge,94.0.992.31,Windows,10.0,fe3c1d035a65c549f7011c5446f73ede
14,1,null,null,psychophysics,252,502220,0.0-3.0-1.122,"""",key,null,16.66206666666646,682.5,325,"""","""","""","""","""","""","""","""","2021-10-02 15:11:50",99.229.52.133,"Mozilla/5.0 (Windows NT 10.0; Win64; x64) AppleWebKit/537.36 (KHTML, like Gecko) Chrome/94.0.4606.61 Safari/537.36 Edg/94.0.992.31",WebKit,Edge,94.0.992.31,Windows,10.0,fe3c1d035a65c549f7011c5446f73ede
14,1,2590.0999999940395,arrowleft,psychophysics,253,504819,0.0-3.0-0.123,"""",key,arrowleft,16.66303870967747,682.5,325,124,5,-1,27,15,25,35,true,"2021-10-02 15:11:50",99.229.52.133,"Mozilla/5.0 (Windows NT 10.0; Win64; x64) AppleWebKit/537.36 (KHTML, like Gecko) Chrome/94.0.4606.61 Safari/537.36 Edg/94.0.992.31",WebKit,Edge,94.0.992.31,Windows,10.0,fe3c1d035a65c549f7011c5446f73ede
14,1,null,null,psychophysics,254,505822,0.0-3.0-1.123,"""",key,null,16.665203389830065,682.5,325,"""","""","""","""","""","""","""","""","2021-10-02 15:11:50",99.229.52.133,"Mozilla/5.0 (Windows NT 10.0; Win64; x64) AppleWebKit/537.36 (KHTML, like Gecko) Chrome/94.0.4606.61 Safari/537.36 Edg/94.0.992.31",WebKit,Edge,94.0.992.31,Windows,10.0,fe3c1d035a65c549f7011c5446f73ede
14,1,3840.2000000029802,arrowleft,psychophysics,255,509671,0.0-3.0-0.124,"""",key,arrowleft,16.663334782608867,682.5,325,125,5,1,24,35,25,35,false,"2021-10-02 15:11:50",99.229.52.133,"Mozilla/5.0 (Windows NT 10.0; Win64; x64) AppleWebKit/537.36 (KHTML, like Gecko) Chrome/94.0.4606.61 Safari/537.36 Edg/94.0.992.31",WebKit,Edge,94.0.992.31,Windows,10.0,fe3c1d035a65c549f7011c5446f73ede
14,1,null,null,psychophysics,256,510684,0.0-3.0-1.124,"""",key,null,16.662099999999434,682.5,325,"""","""","""","""","""","""","""","""","2021-10-02 15:11:50",99.229.52.133,"Mozilla/5.0 (Windows NT 10.0; Win64; x64) AppleWebKit/537.36 (KHTML, like Gecko) Chrome/94.0.4606.61 Safari/537.36 Edg/94.0.992.31",WebKit,Edge,94.0.992.31,Windows,10.0,fe3c1d035a65c549f7011c5446f73ede
14,1,1577.6000000089407,arrowleft,psychophysics,257,512264,0.0-3.0-0.125,"""",key,arrowleft,16.661872340425692,682.5,325,126,5,-1,27,35,25,35,true,"2021-10-02 15:11:50",99.229.52.133,"Mozilla/5.0 (Windows NT 10.0; Win64; x64) AppleWebKit/537.36 (KHTML, like Gecko) Chrome/94.0.4606.61 Safari/537.36 Edg/94.0.992.31",WebKit,Edge,94.0.992.31,Windows,10.0,fe3c1d035a65c549f7011c5446f73ede
14,1,null,null,psychophysics,258,513267,0.0-3.0-1.125,"""",key,null,16.66247457627136,682.5,325,"""","""","""","""","""","""","""","""","2021-10-02 15:11:50",99.229.52.133,"Mozilla/5.0 (Windows NT 10.0; Win64; x64) AppleWebKit/537.36 (KHTML, like Gecko) Chrome/94.0.4606.61 Safari/537.36 Edg/94.0.992.31",WebKit,Edge,94.0.992.31,Windows,10.0,fe3c1d035a65c549f7011c5446f73ede
