run_id,condition,rt,response,trial_type,trial_index,time_elapsed,internal_node_id,stimulus,response_type,key_press,avg_frame_time,center_x,center_y,trial,block,test_pos,test_inner_radius,test_outer_radius,ref_inner_radius,ref_outer_radius,test_bigger,recorded_at,ip,user_agent,device,browser,browser_version,platform,platform_version,source_code_version
32,1,31638.19999999553,"{""p_id"":""6555"",""age"":""23"",""handedness"":""right"",""sex"":""female"",""other_sex"":""}",survey-html-form,0,31643,0.0-0.0,"""","""","""","""","""","""","""","""","""","""","""","""","""","""","2021-10-05 06:48:25",99.244.207.252,"Mozilla/5.0 (Macintosh; Intel Mac OS X 10_13_6) AppleWebKit/537.36 (KHTML, like Gecko) Chrome/94.0.4606.61 Safari/537.36",Macintosh,Chrome,94.0.4606.61,"OS X",10_13_6,fe3c1d035a65c549f7011c5446f73ede
32,1,18843.30000000447," ",html-keyboard-response,1,50495,0.0-1.0,"<p style=""color: white"">Welcome to the Size Judgment Experiment. <br>There will be 10 blocks in this experiment. <br>There will be 28 trials in each block. <br>You will be given a chance to take a break between blocks. <br>Press any key to start the experiment.</p>","""","""","""","""","""","""","""","""","""","""","""","""","""","2021-10-05 06:48:25",99.244.207.252,"Mozilla/5.0 (Macintosh; Intel Mac OS X 10_13_6) AppleWebKit/537.36 (KHTML, like Gecko) Chrome/94.0.4606.61 Safari/537.36",Macintosh,Chrome,94.0.4606.61,"OS X",10_13_6,fe3c1d035a65c549f7011c5446f73ede
32,1,18076.89999999851," ",psychophysics,2,68633,0.0-2.0,"""",key," ",16.698154696132594,683,344.5,"""","""","""","""","""","""","""","""","2021-10-05 06:48:25",99.244.207.252,"Mozilla/5.0 (Macintosh; Intel Mac OS X 10_13_6) AppleWebKit/537.36 (KHTML, like Gecko) Chrome/94.0.4606.61 Safari/537.36",Macintosh,Chrome,94.0.4606.61,"OS X",10_13_6,fe3c1d035a65c549f7011c5446f73ede
32,1,6200.5,arrowright,psychophysics,3,74905,0.0-3.0-0.0,"""",key,arrowright,16.756741935483877,683,344.5,1,1,1,27,15,25,35,true,"2021-10-05 06:48:25",99.244.207.252,"Mozilla/5.0 (Macintosh; Intel Mac OS X 10_13_6) AppleWebKit/537.36 (KHTML, like Gecko) Chrome/94.0.4606.61 Safari/537.36",Macintosh,Chrome,94.0.4606.61,"OS X",10_13_6,fe3c1d035a65c549f7011c5446f73ede
32,1,null,null,psychophysics,4,75911,0.0-3.0-1.0,"""",key,null,16.666000000000064,683,344.5,"""","""","""","""","""","""","""","""","2021-10-05 06:48:25",99.244.207.252,"Mozilla/5.0 (Macintosh; Intel Mac OS X 10_13_6) AppleWebKit/537.36 (KHTML, like Gecko) Chrome/94.0.4606.61 Safari/537.36",Macintosh,Chrome,94.0.4606.61,"OS X",10_13_6,fe3c1d035a65c549f7011c5446f73ede
32,1,2596.60000000149,arrowleft,psychophysics,5,78519,0.0-3.0-0.1,"""",key,arrowleft,16.665999999999972,683,344.5,2,1,-1,26,15,25,35,true,"2021-10-05 06:48:25",99.244.207.252,"Mozilla/5.0 (Macintosh; Intel Mac OS X 10_13_6) AppleWebKit/537.36 (KHTML, like Gecko) Chrome/94.0.4606.61 Safari/537.36",Macintosh,Chrome,94.0.4606.61,"OS X",10_13_6,fe3c1d035a65c549f7011c5446f73ede
32,1,null,null,psychophysics,6,79523,0.0-3.0-1.1,"""",key,null,16.665999999999904,683,344.5,"""","""","""","""","""","""","""","""","2021-10-05 06:48:25",99.244.207.252,"Mozilla/5.0 (Macintosh; Intel Mac OS X 10_13_6) AppleWebKit/537.36 (KHTML, like Gecko) Chrome/94.0.4606.61 Safari/537.36",Macintosh,Chrome,94.0.4606.61,"OS X",10_13_6,fe3c1d035a65c549f7011c5446f73ede
32,1,6300.80000000447,arrowright,psychophysics,7,85836,0.0-3.0-0.2,"""",key,arrowright,16.667026455026452,683,344.5,3,1,-1,24,15,25,35,false,"2021-10-05 06:48:25",99.244.207.252,"Mozilla/5.0 (Macintosh; Intel Mac OS X 10_13_6) AppleWebKit/537.36 (KHTML, like Gecko) Chrome/94.0.4606.61 Safari/537.36",Macintosh,Chrome,94.0.4606.61,"OS X",10_13_6,fe3c1d035a65c549f7011c5446f73ede
32,1,null,null,psychophysics,8,86845,0.0-3.0-1.2,"""",key,null,16.666000000000107,683,344.5,"""","""","""","""","""","""","""","""","2021-10-05 06:48:25",99.244.207.252,"Mozilla/5.0 (Macintosh; Intel Mac OS X 10_13_6) AppleWebKit/537.36 (KHTML, like Gecko) Chrome/94.0.4606.61 Safari/537.36",Macintosh,Chrome,94.0.4606.61,"OS X",10_13_6,fe3c1d035a65c549f7011c5446f73ede
32,1,2730.7999999970198,arrowright,psychophysics,9,89584,0.0-3.0-0.3,"""",key,arrowright,16.66600000000003,683,344.5,4,1,-1,23,35,25,35,false,"2021-10-05 06:48:25",99.244.207.252,"Mozilla/5.0 (Macintosh; Intel Mac OS X 10_13_6) AppleWebKit/537.36 (KHTML, like Gecko) Chrome/94.0.4606.61 Safari/537.36",Macintosh,Chrome,94.0.4606.61,"OS X",10_13_6,fe3c1d035a65c549f7011c5446f73ede
32,1,null,null,psychophysics,10,90589,0.0-3.0-1.3,"""",key,null,16.665999999999904,683,344.5,"""","""","""","""","""","""","""","""","2021-10-05 06:48:25",99.244.207.252,"Mozilla/5.0 (Macintosh; Intel Mac OS X 10_13_6) AppleWebKit/537.36 (KHTML, like Gecko) Chrome/94.0.4606.61 Safari/537.36",Macintosh,Chrome,94.0.4606.61,"OS X",10_13_6,fe3c1d035a65c549f7011c5446f73ede
32,1,2754.7999999970198,arrowright,psychophysics,11,93355,0.0-3.0-0.4,"""",key,arrowright,16.668345454545467,683,344.5,5,1,1,27,15,25,35,true,"2021-10-05 06:48:25",99.244.207.252,"Mozilla/5.0 (Macintosh; Intel Mac OS X 10_13_6) AppleWebKit/537.36 (KHTML, like Gecko) Chrome/94.0.4606.61 Safari/537.36",Macintosh,Chrome,94.0.4606.61,"OS X",10_13_6,fe3c1d035a65c549f7011c5446f73ede
32,1,null,null,psychophysics,12,94364,0.0-3.0-1.4,"""",key,null,16.665999999999865,683,344.5,"""","""","""","""","""","""","""","""","2021-10-05 06:48:25",99.244.207.252,"Mozilla/5.0 (Macintosh; Intel Mac OS X 10_13_6) AppleWebKit/537.36 (KHTML, like Gecko) Chrome/94.0.4606.61 Safari/537.36",Macintosh,Chrome,94.0.4606.61,"OS X",10_13_6,fe3c1d035a65c549f7011c5446f73ede
32,1,2199.4000000059605,arrowright,psychophysics,13,96572,0.0-3.0-0.5,"""",key,arrowright,16.665999999999993,683,344.5,6,1,1,26,15,25,35,true,"2021-10-05 06:48:25",99.244.207.252,"Mozilla/5.0 (Macintosh; Intel Mac OS X 10_13_6) AppleWebKit/537.36 (KHTML, like Gecko) Chrome/94.0.4606.61 Safari/537.36",Macintosh,Chrome,94.0.4606.61,"OS X",10_13_6,fe3c1d035a65c549f7011c5446f73ede
32,1,null,null,psychophysics,14,97575,0.0-3.0-1.5,"""",key,null,16.665999999999904,683,344.5,"""","""","""","""","""","""","""","""","2021-10-05 06:48:25",99.244.207.252,"Mozilla/5.0 (Macintosh; Intel Mac OS X 10_13_6) AppleWebKit/537.36 (KHTML, like Gecko) Chrome/94.0.4606.61 Safari/537.36",Macintosh,Chrome,94.0.4606.61,"OS X",10_13_6,fe3c1d035a65c549f7011c5446f73ede
32,1,1385.2999999970198,arrowleft,psychophysics,15,98971,0.0-3.0-0.6,"""",key,arrowleft,16.666000000000068,683,344.5,7,1,-1,27,15,25,35,true,"2021-10-05 06:48:25",99.244.207.252,"Mozilla/5.0 (Macintosh; Intel Mac OS X 10_13_6) AppleWebKit/537.36 (KHTML, like Gecko) Chrome/94.0.4606.61 Safari/537.36",Macintosh,Chrome,94.0.4606.61,"OS X",10_13_6,fe3c1d035a65c549f7011c5446f73ede
32,1,null,null,psychophysics,16,99978,0.0-3.0-1.6,"""",key,null,16.666000000000107,683,344.5,"""","""","""","""","""","""","""","""","2021-10-05 06:48:25",99.244.207.252,"Mozilla/5.0 (Macintosh; Intel Mac OS X 10_13_6) AppleWebKit/537.36 (KHTML, like Gecko) Chrome/94.0.4606.61 Safari/537.36",Macintosh,Chrome,94.0.4606.61,"OS X",10_13_6,fe3c1d035a65c549f7011c5446f73ede
32,1,1145.6000000014901,arrowleft,psychophysics,17,101132,0.0-3.0-0.7,"""",key,arrowleft,16.672632352941196,683,344.5,8,1,1,20,35,25,35,false,"2021-10-05 06:48:25",99.244.207.252,"Mozilla/5.0 (Macintosh; Intel Mac OS X 10_13_6) AppleWebKit/537.36 (KHTML, like Gecko) Chrome/94.0.4606.61 Safari/537.36",Macintosh,Chrome,94.0.4606.61,"OS X",10_13_6,fe3c1d035a65c549f7011c5446f73ede
32,1,null,null,psychophysics,18,102135,0.0-3.0-1.7,"""",key,null,16.665999999999904,683,344.5,"""","""","""","""","""","""","""","""","2021-10-05 06:48:25",99.244.207.252,"Mozilla/5.0 (Macintosh; Intel Mac OS X 10_13_6) AppleWebKit/537.36 (KHTML, like Gecko) Chrome/94.0.4606.61 Safari/537.36",Macintosh,Chrome,94.0.4606.61,"OS X",10_13_6,fe3c1d035a65c549f7011c5446f73ede
32,1,904.7999999970198,arrowright,psychophysics,19,103047,0.0-3.0-0.8,"""",key,arrowright,16.666000000000185,683,344.5,9,1,1,24,35,25,35,true,"2021-10-05 06:48:25",99.244.207.252,"Mozilla/5.0 (Macintosh; Intel Mac OS X 10_13_6) AppleWebKit/537.36 (KHTML, like Gecko) Chrome/94.0.4606.61 Safari/537.36",Macintosh,Chrome,94.0.4606.61,"OS X",10_13_6,fe3c1d035a65c549f7011c5446f73ede
32,1,null,null,psychophysics,20,104051,0.0-3.0-1.8,"""",key,null,16.665999999999865,683,344.5,"""","""","""","""","""","""","""","""","2021-10-05 06:48:25",99.244.207.252,"Mozilla/5.0 (Macintosh; Intel Mac OS X 10_13_6) AppleWebKit/537.36 (KHTML, like Gecko) Chrome/94.0.4606.61 Safari/537.36",Macintosh,Chrome,94.0.4606.61,"OS X",10_13_6,fe3c1d035a65c549f7011c5446f73ede
32,1,1275.2999999970198,arrowleft,psychophysics,21,105333,0.0-3.0-0.9,"""",key,arrowleft,16.66599999999993,683,344.5,10,1,1,20,35,25,35,false,"2021-10-05 06:48:25",99.244.207.252,"Mozilla/5.0 (Macintosh; Intel Mac OS X 10_13_6) AppleWebKit/537.36 (KHTML, like Gecko) Chrome/94.0.4606.61 Safari/537.36",Macintosh,Chrome,94.0.4606.61,"OS X",10_13_6,fe3c1d035a65c549f7011c5446f73ede
32,1,null,null,psychophysics,22,106343,0.0-3.0-1.9,"""",key,null,16.666000000000153,683,344.5,"""","""","""","""","""","""","""","""","2021-10-05 06:48:25",99.244.207.252,"Mozilla/5.0 (Macintosh; Intel Mac OS X 10_13_6) AppleWebKit/537.36 (KHTML, like Gecko) Chrome/94.0.4606.61 Safari/537.36",Macintosh,Chrome,94.0.4606.61,"OS X",10_13_6,fe3c1d035a65c549f7011c5446f73ede
32,1,4692.69999999553,arrowleft,psychophysics,23,111050,0.0-3.0-0.10,"""",key,arrowleft,16.667450354609894,683,344.5,11,1,-1,27,35,25,35,true,"2021-10-05 06:48:25",99.244.207.252,"Mozilla/5.0 (Macintosh; Intel Mac OS X 10_13_6) AppleWebKit/537.36 (KHTML, like Gecko) Chrome/94.0.4606.61 Safari/537.36",Macintosh,Chrome,94.0.4606.61,"OS X",10_13_6,fe3c1d035a65c549f7011c5446f73ede
32,1,null,null,psychophysics,24,112057,0.0-3.0-1.10,"""",key,null,16.665999999999904,683,344.5,"""","""","""","""","""","""","""","""","2021-10-05 06:48:25",99.244.207.252,"Mozilla/5.0 (Macintosh; Intel Mac OS X 10_13_6) AppleWebKit/537.36 (KHTML, like Gecko) Chrome/94.0.4606.61 Safari/537.36",Macintosh,Chrome,94.0.4606.61,"OS X",10_13_6,fe3c1d035a65c549f7011c5446f73ede
32,1,925.8000000044703,arrowleft,psychophysics,25,112992,0.0-3.0-0.11,"""",key,arrowleft,16.666000000000086,683,344.5,12,1,-1,30,35,25,35,true,"2021-10-05 06:48:25",99.244.207.252,"Mozilla/5.0 (Macintosh; Intel Mac OS X 10_13_6) AppleWebKit/537.36 (KHTML, like Gecko) Chrome/94.0.4606.61 Safari/537.36",Macintosh,Chrome,94.0.4606.61,"OS X",10_13_6,fe3c1d035a65c549f7011c5446f73ede
32,1,null,null,psychophysics,26,113995,0.0-3.0-1.11,"""",key,null,16.666000000000107,683,344.5,"""","""","""","""","""","""","""","""","2021-10-05 06:48:25",99.244.207.252,"Mozilla/5.0 (Macintosh; Intel Mac OS X 10_13_6) AppleWebKit/537.36 (KHTML, like Gecko) Chrome/94.0.4606.61 Safari/537.36",Macintosh,Chrome,94.0.4606.61,"OS X",10_13_6,fe3c1d035a65c549f7011c5446f73ede
32,1,863.8999999985099,arrowright,psychophysics,27,114868,0.0-3.0-0.12,"""",key,arrowright,16.666000000000007,683,344.5,13,1,1,30,35,25,35,true,"2021-10-05 06:48:25",99.244.207.252,"Mozilla/5.0 (Macintosh; Intel Mac OS X 10_13_6) AppleWebKit/537.36 (KHTML, like Gecko) Chrome/94.0.4606.61 Safari/537.36",Macintosh,Chrome,94.0.4606.61,"OS X",10_13_6,fe3c1d035a65c549f7011c5446f73ede
32,1,null,null,psychophysics,28,115873,0.0-3.0-1.12,"""",key,null,16.665999999999904,683,344.5,"""","""","""","""","""","""","""","""","2021-10-05 06:48:25",99.244.207.252,"Mozilla/5.0 (Macintosh; Intel Mac OS X 10_13_6) AppleWebKit/537.36 (KHTML, like Gecko) Chrome/94.0.4606.61 Safari/537.36",Macintosh,Chrome,94.0.4606.61,"OS X",10_13_6,fe3c1d035a65c549f7011c5446f73ede
32,1,854.1999999955297,arrowleft,psychophysics,29,116738,0.0-3.0-0.13,"""",key,arrowleft,16.666000000000007,683,344.5,14,1,-1,30,15,25,35,true,"2021-10-05 06:48:25",99.244.207.252,"Mozilla/5.0 (Macintosh; Intel Mac OS X 10_13_6) AppleWebKit/537.36 (KHTML, like Gecko) Chrome/94.0.4606.61 Safari/537.36",Macintosh,Chrome,94.0.4606.61,"OS X",10_13_6,fe3c1d035a65c549f7011c5446f73ede
32,1,null,null,psychophysics,30,117749,0.0-3.0-1.13,"""",key,null,16.665999999999865,683,344.5,"""","""","""","""","""","""","""","""","2021-10-05 06:48:25",99.244.207.252,"Mozilla/5.0 (Macintosh; Intel Mac OS X 10_13_6) AppleWebKit/537.36 (KHTML, like Gecko) Chrome/94.0.4606.61 Safari/537.36",Macintosh,Chrome,94.0.4606.61,"OS X",10_13_6,fe3c1d035a65c549f7011c5446f73ede
32,1,1553.2000000029802,arrowright,psychophysics,31,119309,0.0-3.0-0.14,"""",key,arrowright,16.66600000000013,683,344.5,15,1,1,25,15,25,35,true,"2021-10-05 06:48:25",99.244.207.252,"Mozilla/5.0 (Macintosh; Intel Mac OS X 10_13_6) AppleWebKit/537.36 (KHTML, like Gecko) Chrome/94.0.4606.61 Safari/537.36",Macintosh,Chrome,94.0.4606.61,"OS X",10_13_6,fe3c1d035a65c549f7011c5446f73ede
32,1,null,null,psychophysics,32,120314,0.0-3.0-1.14,"""",key,null,16.665999999999865,683,344.5,"""","""","""","""","""","""","""","""","2021-10-05 06:48:25",99.244.207.252,"Mozilla/5.0 (Macintosh; Intel Mac OS X 10_13_6) AppleWebKit/537.36 (KHTML, like Gecko) Chrome/94.0.4606.61 Safari/537.36",Macintosh,Chrome,94.0.4606.61,"OS X",10_13_6,fe3c1d035a65c549f7011c5446f73ede
32,1,2745.5999999940395,arrowleft,psychophysics,33,123066,0.0-3.0-0.15,"""",key,arrowleft,16.668475609756126,683,344.5,16,1,1,23,35,25,35,false,"2021-10-05 06:48:25",99.244.207.252,"Mozilla/5.0 (Macintosh; Intel Mac OS X 10_13_6) AppleWebKit/537.36 (KHTML, like Gecko) Chrome/94.0.4606.61 Safari/537.36",Macintosh,Chrome,94.0.4606.61,"OS X",10_13_6,fe3c1d035a65c549f7011c5446f73ede
32,1,null,null,psychophysics,34,124074,0.0-3.0-1.15,"""",key,null,16.666000000000153,683,344.5,"""","""","""","""","""","""","""","""","2021-10-05 06:48:25",99.244.207.252,"Mozilla/5.0 (Macintosh; Intel Mac OS X 10_13_6) AppleWebKit/537.36 (KHTML, like Gecko) Chrome/94.0.4606.61 Safari/537.36",Macintosh,Chrome,94.0.4606.61,"OS X",10_13_6,fe3c1d035a65c549f7011c5446f73ede
32,1,3182.10000000149,arrowright,psychophysics,35,127267,0.0-3.0-0.16,"""",key,arrowright,16.665999999999954,683,344.5,17,1,1,26,15,25,35,true,"2021-10-05 06:48:25",99.244.207.252,"Mozilla/5.0 (Macintosh; Intel Mac OS X 10_13_6) AppleWebKit/537.36 (KHTML, like Gecko) Chrome/94.0.4606.61 Safari/537.36",Macintosh,Chrome,94.0.4606.61,"OS X",10_13_6,fe3c1d035a65c549f7011c5446f73ede
32,1,null,null,psychophysics,36,128270,0.0-3.0-1.16,"""",key,null,16.665999999999904,683,344.5,"""","""","""","""","""","""","""","""","2021-10-05 06:48:25",99.244.207.252,"Mozilla/5.0 (Macintosh; Intel Mac OS X 10_13_6) AppleWebKit/537.36 (KHTML, like Gecko) Chrome/94.0.4606.61 Safari/537.36",Macintosh,Chrome,94.0.4606.61,"OS X",10_13_6,fe3c1d035a65c549f7011c5446f73ede
32,1,3317.7000000029802,arrowleft,psychophysics,37,131604,0.0-3.0-0.17,"""",key,arrowleft,16.668030150753815,683,344.5,18,1,-1,27,35,25,35,true,"2021-10-05 06:48:25",99.244.207.252,"Mozilla/5.0 (Macintosh; Intel Mac OS X 10_13_6) AppleWebKit/537.36 (KHTML, like Gecko) Chrome/94.0.4606.61 Safari/537.36",Macintosh,Chrome,94.0.4606.61,"OS X",10_13_6,fe3c1d035a65c549f7011c5446f73ede
32,1,null,null,psychophysics,38,132617,0.0-3.0-1.17,"""",key,null,16.665999999999865,683,344.5,"""","""","""","""","""","""","""","""","2021-10-05 06:48:25",99.244.207.252,"Mozilla/5.0 (Macintosh; Intel Mac OS X 10_13_6) AppleWebKit/537.36 (KHTML, like Gecko) Chrome/94.0.4606.61 Safari/537.36",Macintosh,Chrome,94.0.4606.61,"OS X",10_13_6,fe3c1d035a65c549f7011c5446f73ede
32,1,4247.69999999553,arrowright,psychophysics,39,136874,0.0-3.0-0.18,"""",key,arrowright,16.666000000000075,683,344.5,19,1,1,26,35,25,35,true,"2021-10-05 06:48:25",99.244.207.252,"Mozilla/5.0 (Macintosh; Intel Mac OS X 10_13_6) AppleWebKit/537.36 (KHTML, like Gecko) Chrome/94.0.4606.61 Safari/537.36",Macintosh,Chrome,94.0.4606.61,"OS X",10_13_6,fe3c1d035a65c549f7011c5446f73ede
32,1,null,null,psychophysics,40,137877,0.0-3.0-1.18,"""",key,null,16.665999999999904,683,344.5,"""","""","""","""","""","""","""","""","2021-10-05 06:48:25",99.244.207.252,"Mozilla/5.0 (Macintosh; Intel Mac OS X 10_13_6) AppleWebKit/537.36 (KHTML, like Gecko) Chrome/94.0.4606.61 Safari/537.36",Macintosh,Chrome,94.0.4606.61,"OS X",10_13_6,fe3c1d035a65c549f7011c5446f73ede
32,1,1495.7000000029802,arrowright,psychophysics,41,139388,0.0-3.0-0.19,"""",key,arrowright,16.666000000000025,683,344.5,20,1,-1,20,15,25,35,false,"2021-10-05 06:48:25",99.244.207.252,"Mozilla/5.0 (Macintosh; Intel Mac OS X 10_13_6) AppleWebKit/537.36 (KHTML, like Gecko) Chrome/94.0.4606.61 Safari/537.36",Macintosh,Chrome,94.0.4606.61,"OS X",10_13_6,fe3c1d035a65c549f7011c5446f73ede
32,1,null,null,psychophysics,42,140391,0.0-3.0-1.19,"""",key,null,16.665999999999904,683,344.5,"""","""","""","""","""","""","""","""","2021-10-05 06:48:25",99.244.207.252,"Mozilla/5.0 (Macintosh; Intel Mac OS X 10_13_6) AppleWebKit/537.36 (KHTML, like Gecko) Chrome/94.0.4606.61 Safari/537.36",Macintosh,Chrome,94.0.4606.61,"OS X",10_13_6,fe3c1d035a65c549f7011c5446f73ede
32,1,1143.3000000044703,arrowleft,psychophysics,43,141547,0.0-3.0-0.20,"""",key,arrowleft,16.91704411764701,683,344.5,21,1,-1,30,15,25,35,true,"2021-10-05 06:48:25",99.244.207.252,"Mozilla/5.0 (Macintosh; Intel Mac OS X 10_13_6) AppleWebKit/537.36 (KHTML, like Gecko) Chrome/94.0.4606.61 Safari/537.36",Macintosh,Chrome,94.0.4606.61,"OS X",10_13_6,fe3c1d035a65c549f7011c5446f73ede
32,1,null,null,psychophysics,44,142549,0.0-3.0-1.20,"""",key,null,16.6660000000004,683,344.5,"""","""","""","""","""","""","""","""","2021-10-05 06:48:25",99.244.207.252,"Mozilla/5.0 (Macintosh; Intel Mac OS X 10_13_6) AppleWebKit/537.36 (KHTML, like Gecko) Chrome/94.0.4606.61 Safari/537.36",Macintosh,Chrome,94.0.4606.61,"OS X",10_13_6,fe3c1d035a65c549f7011c5446f73ede
32,1,13375,arrowright,psychophysics,45,155931,0.0-3.0-0.21,"""",key,arrowright,16.66651122194512,683,344.5,22,1,1,25,15,25,35,true,"2021-10-05 06:48:25",99.244.207.252,"Mozilla/5.0 (Macintosh; Intel Mac OS X 10_13_6) AppleWebKit/537.36 (KHTML, like Gecko) Chrome/94.0.4606.61 Safari/537.36",Macintosh,Chrome,94.0.4606.61,"OS X",10_13_6,fe3c1d035a65c549f7011c5446f73ede
32,1,null,null,psychophysics,46,156940,0.0-3.0-1.21,"""",key,null,16.665999999999904,683,344.5,"""","""","""","""","""","""","""","""","2021-10-05 06:48:25",99.244.207.252,"Mozilla/5.0 (Macintosh; Intel Mac OS X 10_13_6) AppleWebKit/537.36 (KHTML, like Gecko) Chrome/94.0.4606.61 Safari/537.36",Macintosh,Chrome,94.0.4606.61,"OS X",10_13_6,fe3c1d035a65c549f7011c5446f73ede
32,1,937.8000000044703,arrowleft,psychophysics,47,157891,0.0-3.0-0.22,"""",key,arrowleft,16.665999999999517,683,344.5,23,1,-1,27,15,25,35,true,"2021-10-05 06:48:25",99.244.207.252,"Mozilla/5.0 (Macintosh; Intel Mac OS X 10_13_6) AppleWebKit/537.36 (KHTML, like Gecko) Chrome/94.0.4606.61 Safari/537.36",Macintosh,Chrome,94.0.4606.61,"OS X",10_13_6,fe3c1d035a65c549f7011c5446f73ede
32,1,null,null,psychophysics,48,158894,0.0-3.0-1.22,"""",key,null,16.665999999999904,683,344.5,"""","""","""","""","""","""","""","""","2021-10-05 06:48:25",99.244.207.252,"Mozilla/5.0 (Macintosh; Intel Mac OS X 10_13_6) AppleWebKit/537.36 (KHTML, like Gecko) Chrome/94.0.4606.61 Safari/537.36",Macintosh,Chrome,94.0.4606.61,"OS X",10_13_6,fe3c1d035a65c549f7011c5446f73ede
32,1,5238.60000000149,arrowright,psychophysics,49,164158,0.0-3.0-0.23,"""",key,arrowright,16.667365079365084,683,344.5,24,1,1,26,15,25,35,true,"2021-10-05 06:48:25",99.244.207.252,"Mozilla/5.0 (Macintosh; Intel Mac OS X 10_13_6) AppleWebKit/537.36 (KHTML, like Gecko) Chrome/94.0.4606.61 Safari/537.36",Macintosh,Chrome,94.0.4606.61,"OS X",10_13_6,fe3c1d035a65c549f7011c5446f73ede
32,1,null,null,psychophysics,50,165169,0.0-3.0-1.23,"""",key,null,16.665999999999865,683,344.5,"""","""","""","""","""","""","""","""","2021-10-05 06:48:25",99.244.207.252,"Mozilla/5.0 (Macintosh; Intel Mac OS X 10_13_6) AppleWebKit/537.36 (KHTML, like Gecko) Chrome/94.0.4606.61 Safari/537.36",Macintosh,Chrome,94.0.4606.61,"OS X",10_13_6,fe3c1d035a65c549f7011c5446f73ede
32,1,1647.1000000014901,arrowright,psychophysics,51,166825,0.0-3.0-0.24,"""",key,arrowright,16.66600000000011,683,344.5,25,1,-1,25,35,25,35,false,"2021-10-05 06:48:25",99.244.207.252,"Mozilla/5.0 (Macintosh; Intel Mac OS X 10_13_6) AppleWebKit/537.36 (KHTML, like Gecko) Chrome/94.0.4606.61 Safari/537.36",Macintosh,Chrome,94.0.4606.61,"OS X",10_13_6,fe3c1d035a65c549f7011c5446f73ede
32,1,null,null,psychophysics,52,167828,0.0-3.0-1.24,"""",key,null,16.665999999999904,683,344.5,"""","""","""","""","""","""","""","""","2021-10-05 06:48:25",99.244.207.252,"Mozilla/5.0 (Macintosh; Intel Mac OS X 10_13_6) AppleWebKit/537.36 (KHTML, like Gecko) Chrome/94.0.4606.61 Safari/537.36",Macintosh,Chrome,94.0.4606.61,"OS X",10_13_6,fe3c1d035a65c549f7011c5446f73ede
32,1,2591,arrowright,psychophysics,53,170431,0.0-3.0-0.25,"""",key,arrowright,16.66600000000005,683,344.5,26,1,1,24,15,25,35,true,"2021-10-05 06:48:25",99.244.207.252,"Mozilla/5.0 (Macintosh; Intel Mac OS X 10_13_6) AppleWebKit/537.36 (KHTML, like Gecko) Chrome/94.0.4606.61 Safari/537.36",Macintosh,Chrome,94.0.4606.61,"OS X",10_13_6,fe3c1d035a65c549f7011c5446f73ede
32,1,null,null,psychophysics,54,171441,0.0-3.0-1.25,"""",key,null,16.672491525423663,683,344.5,"""","""","""","""","""","""","""","""","2021-10-05 06:48:25",99.244.207.252,"Mozilla/5.0 (Macintosh; Intel Mac OS X 10_13_6) AppleWebKit/537.36 (KHTML, like Gecko) Chrome/94.0.4606.61 Safari/537.36",Macintosh,Chrome,94.0.4606.61,"OS X",10_13_6,fe3c1d035a65c549f7011c5446f73ede
32,1,693.8000000044703,arrowright,psychophysics,55,172146,0.0-3.0-0.26,"""",key,arrowright,16.66600000000021,683,344.5,27,1,1,27,35,25,35,true,"2021-10-05 06:48:25",99.244.207.252,"Mozilla/5.0 (Macintosh; Intel Mac OS X 10_13_6) AppleWebKit/537.36 (KHTML, like Gecko) Chrome/94.0.4606.61 Safari/537.36",Macintosh,Chrome,94.0.4606.61,"OS X",10_13_6,fe3c1d035a65c549f7011c5446f73ede
32,1,null,null,psychophysics,56,173150,0.0-3.0-1.26,"""",key,null,16.665999999999904,683,344.5,"""","""","""","""","""","""","""","""","2021-10-05 06:48:25",99.244.207.252,"Mozilla/5.0 (Macintosh; Intel Mac OS X 10_13_6) AppleWebKit/537.36 (KHTML, like Gecko) Chrome/94.0.4606.61 Safari/537.36",Macintosh,Chrome,94.0.4606.61,"OS X",10_13_6,fe3c1d035a65c549f7011c5446f73ede
32,1,625.4000000059605,arrowright,psychophysics,57,173782,0.0-3.0-0.27,"""",key,arrowright,16.666000000000587,683,344.5,28,2,1,27,35,25,35,true,"2021-10-05 06:48:25",99.244.207.252,"Mozilla/5.0 (Macintosh; Intel Mac OS X 10_13_6) AppleWebKit/537.36 (KHTML, like Gecko) Chrome/94.0.4606.61 Safari/537.36",Macintosh,Chrome,94.0.4606.61,"OS X",10_13_6,fe3c1d035a65c549f7011c5446f73ede
32,1,null,null,psychophysics,58,174788,0.0-3.0-1.27,"""",key,null,16.665999999999904,683,344.5,"""","""","""","""","""","""","""","""","2021-10-05 06:48:25",99.244.207.252,"Mozilla/5.0 (Macintosh; Intel Mac OS X 10_13_6) AppleWebKit/537.36 (KHTML, like Gecko) Chrome/94.0.4606.61 Safari/537.36",Macintosh,Chrome,94.0.4606.61,"OS X",10_13_6,fe3c1d035a65c549f7011c5446f73ede
32,1,12613.59999999404," ",html-keyboard-response,59,187422,0.0-3.0-2.27-0.27,"<div style=""color: white; text-align: center; vertical-align: top; display: inline-block; width: 800px; margin: auto""><p>You have completed 10% of the trials. You are on block 2 of 10. <br>Good job! Take a break if you need to.</p><p>Press any key to continue the experiment.</p></div>","""","""","""","""","""","""","""","""","""","""","""","""","""","2021-10-05 06:48:25",99.244.207.252,"Mozilla/5.0 (Macintosh; Intel Mac OS X 10_13_6) AppleWebKit/537.36 (KHTML, like Gecko) Chrome/94.0.4606.61 Safari/537.36",Macintosh,Chrome,94.0.4606.61,"OS X",10_13_6,fe3c1d035a65c549f7011c5446f73ede
32,1,1806,arrowleft,psychophysics,60,190247,0.0-3.0-0.28,"""",key,arrowleft,16.672220183486214,683,344.5,29,2,-1,30,35,25,35,true,"2021-10-05 06:48:25",99.244.207.252,"Mozilla/5.0 (Macintosh; Intel Mac OS X 10_13_6) AppleWebKit/537.36 (KHTML, like Gecko) Chrome/94.0.4606.61 Safari/537.36",Macintosh,Chrome,94.0.4606.61,"OS X",10_13_6,fe3c1d035a65c549f7011c5446f73ede
32,1,null,null,psychophysics,61,191252,0.0-3.0-1.28,"""",key,null,16.665999999999904,683,344.5,"""","""","""","""","""","""","""","""","2021-10-05 06:48:25",99.244.207.252,"Mozilla/5.0 (Macintosh; Intel Mac OS X 10_13_6) AppleWebKit/537.36 (KHTML, like Gecko) Chrome/94.0.4606.61 Safari/537.36",Macintosh,Chrome,94.0.4606.61,"OS X",10_13_6,fe3c1d035a65c549f7011c5446f73ede
32,1,1791.5,arrowleft,psychophysics,62,193051,0.0-3.0-0.29,"""",key,arrowleft,16.66600000000016,683,344.5,30,2,-1,27,35,25,35,true,"2021-10-05 06:48:25",99.244.207.252,"Mozilla/5.0 (Macintosh; Intel Mac OS X 10_13_6) AppleWebKit/537.36 (KHTML, like Gecko) Chrome/94.0.4606.61 Safari/537.36",Macintosh,Chrome,94.0.4606.61,"OS X",10_13_6,fe3c1d035a65c549f7011c5446f73ede
32,1,null,null,psychophysics,63,194059,0.0-3.0-1.29,"""",key,null,16.665999999999904,683,344.5,"""","""","""","""","""","""","""","""","2021-10-05 06:48:25",99.244.207.252,"Mozilla/5.0 (Macintosh; Intel Mac OS X 10_13_6) AppleWebKit/537.36 (KHTML, like Gecko) Chrome/94.0.4606.61 Safari/537.36",Macintosh,Chrome,94.0.4606.61,"OS X",10_13_6,fe3c1d035a65c549f7011c5446f73ede
32,1,496.5,arrowright,psychophysics,64,194567,0.0-3.0-0.30,"""",key,arrowright,16.66600000000035,683,344.5,31,2,-1,23,15,25,35,false,"2021-10-05 06:48:25",99.244.207.252,"Mozilla/5.0 (Macintosh; Intel Mac OS X 10_13_6) AppleWebKit/537.36 (KHTML, like Gecko) Chrome/94.0.4606.61 Safari/537.36",Macintosh,Chrome,94.0.4606.61,"OS X",10_13_6,fe3c1d035a65c549f7011c5446f73ede
32,1,null,null,psychophysics,65,195571,0.0-3.0-1.30,"""",key,null,17.250771929824463,683,344.5,"""","""","""","""","""","""","""","""","2021-10-05 06:48:25",99.244.207.252,"Mozilla/5.0 (Macintosh; Intel Mac OS X 10_13_6) AppleWebKit/537.36 (KHTML, like Gecko) Chrome/94.0.4606.61 Safari/537.36",Macintosh,Chrome,94.0.4606.61,"OS X",10_13_6,fe3c1d035a65c549f7011c5446f73ede
32,1,712.5,arrowright,psychophysics,66,196292,0.0-3.0-0.31,"""",key,arrowright,16.66600000000021,683,344.5,32,2,1,24,15,25,35,true,"2021-10-05 06:48:25",99.244.207.252,"Mozilla/5.0 (Macintosh; Intel Mac OS X 10_13_6) AppleWebKit/537.36 (KHTML, like Gecko) Chrome/94.0.4606.61 Safari/537.36",Macintosh,Chrome,94.0.4606.61,"OS X",10_13_6,fe3c1d035a65c549f7011c5446f73ede
32,1,null,null,psychophysics,67,197296,0.0-3.0-1.31,"""",key,null,16.665999999999865,683,344.5,"""","""","""","""","""","""","""","""","2021-10-05 06:48:25",99.244.207.252,"Mozilla/5.0 (Macintosh; Intel Mac OS X 10_13_6) AppleWebKit/537.36 (KHTML, like Gecko) Chrome/94.0.4606.61 Safari/537.36",Macintosh,Chrome,94.0.4606.61,"OS X",10_13_6,fe3c1d035a65c549f7011c5446f73ede
32,1,734.6000000014901,arrowright,psychophysics,68,198038,0.0-3.0-0.32,"""",key,arrowright,16.67504651162795,683,344.5,33,2,1,23,15,25,35,true,"2021-10-05 06:48:25",99.244.207.252,"Mozilla/5.0 (Macintosh; Intel Mac OS X 10_13_6) AppleWebKit/537.36 (KHTML, like Gecko) Chrome/94.0.4606.61 Safari/537.36",Macintosh,Chrome,94.0.4606.61,"OS X",10_13_6,fe3c1d035a65c549f7011c5446f73ede
32,1,null,null,psychophysics,69,199043,0.0-3.0-1.32,"""",key,null,16.6660000000004,683,344.5,"""","""","""","""","""","""","""","""","2021-10-05 06:48:25",99.244.207.252,"Mozilla/5.0 (Macintosh; Intel Mac OS X 10_13_6) AppleWebKit/537.36 (KHTML, like Gecko) Chrome/94.0.4606.61 Safari/537.36",Macintosh,Chrome,94.0.4606.61,"OS X",10_13_6,fe3c1d035a65c549f7011c5446f73ede
32,1,1079.3000000044703,arrowleft,psychophysics,70,200141,0.0-3.0-0.33,"""",key,arrowleft,16.665999999999677,683,344.5,34,2,-1,26,35,25,35,true,"2021-10-05 06:48:25",99.244.207.252,"Mozilla/5.0 (Macintosh; Intel Mac OS X 10_13_6) AppleWebKit/537.36 (KHTML, like Gecko) Chrome/94.0.4606.61 Safari/537.36",Macintosh,Chrome,94.0.4606.61,"OS X",10_13_6,fe3c1d035a65c549f7011c5446f73ede
32,1,null,null,psychophysics,71,201145,0.0-3.0-1.33,"""",key,null,16.6660000000004,683,344.5,"""","""","""","""","""","""","""","""","2021-10-05 06:48:25",99.244.207.252,"Mozilla/5.0 (Macintosh; Intel Mac OS X 10_13_6) AppleWebKit/537.36 (KHTML, like Gecko) Chrome/94.0.4606.61 Safari/537.36",Macintosh,Chrome,94.0.4606.61,"OS X",10_13_6,fe3c1d035a65c549f7011c5446f73ede
32,1,767.1000000014901,arrowright,psychophysics,72,201923,0.0-3.0-0.34,"""",key,arrowright,16.66599999999997,683,344.5,35,2,1,26,15,25,35,true,"2021-10-05 06:48:25",99.244.207.252,"Mozilla/5.0 (Macintosh; Intel Mac OS X 10_13_6) AppleWebKit/537.36 (KHTML, like Gecko) Chrome/94.0.4606.61 Safari/537.36",Macintosh,Chrome,94.0.4606.61,"OS X",10_13_6,fe3c1d035a65c549f7011c5446f73ede
32,1,null,null,psychophysics,73,202927,0.0-3.0-1.34,"""",key,null,16.665999999999904,683,344.5,"""","""","""","""","""","""","""","""","2021-10-05 06:48:25",99.244.207.252,"Mozilla/5.0 (Macintosh; Intel Mac OS X 10_13_6) AppleWebKit/537.36 (KHTML, like Gecko) Chrome/94.0.4606.61 Safari/537.36",Macintosh,Chrome,94.0.4606.61,"OS X",10_13_6,fe3c1d035a65c549f7011c5446f73ede
32,1,1381.1999999955297,arrowleft,psychophysics,74,204319,0.0-3.0-0.35,"""",key,arrowleft,16.665999999999894,683,344.5,36,2,1,23,15,25,35,false,"2021-10-05 06:48:25",99.244.207.252,"Mozilla/5.0 (Macintosh; Intel Mac OS X 10_13_6) AppleWebKit/537.36 (KHTML, like Gecko) Chrome/94.0.4606.61 Safari/537.36",Macintosh,Chrome,94.0.4606.61,"OS X",10_13_6,fe3c1d035a65c549f7011c5446f73ede
32,1,null,null,psychophysics,75,205323,0.0-3.0-1.35,"""",key,null,16.665999999999904,683,344.5,"""","""","""","""","""","""","""","""","2021-10-05 06:48:25",99.244.207.252,"Mozilla/5.0 (Macintosh; Intel Mac OS X 10_13_6) AppleWebKit/537.36 (KHTML, like Gecko) Chrome/94.0.4606.61 Safari/537.36",Macintosh,Chrome,94.0.4606.61,"OS X",10_13_6,fe3c1d035a65c549f7011c5446f73ede
32,1,2493.3000000044703,arrowright,psychophysics,76,207838,0.0-3.0-0.36,"""",key,arrowright,16.668919999999925,683,344.5,37,2,1,25,35,25,35,true,"2021-10-05 06:48:25",99.244.207.252,"Mozilla/5.0 (Macintosh; Intel Mac OS X 10_13_6) AppleWebKit/537.36 (KHTML, like Gecko) Chrome/94.0.4606.61 Safari/537.36",Macintosh,Chrome,94.0.4606.61,"OS X",10_13_6,fe3c1d035a65c549f7011c5446f73ede
32,1,null,null,psychophysics,77,208844,0.0-3.0-1.36,"""",key,null,16.6660000000004,683,344.5,"""","""","""","""","""","""","""","""","2021-10-05 06:48:25",99.244.207.252,"Mozilla/5.0 (Macintosh; Intel Mac OS X 10_13_6) AppleWebKit/537.36 (KHTML, like Gecko) Chrome/94.0.4606.61 Safari/537.36",Macintosh,Chrome,94.0.4606.61,"OS X",10_13_6,fe3c1d035a65c549f7011c5446f73ede
32,1,2557.7000000029802,arrowright,psychophysics,78,211414,0.0-3.0-0.37,"""",key,arrowright,16.66599999999991,683,344.5,38,2,1,24,35,25,35,true,"2021-10-05 06:48:25",99.244.207.252,"Mozilla/5.0 (Macintosh; Intel Mac OS X 10_13_6) AppleWebKit/537.36 (KHTML, like Gecko) Chrome/94.0.4606.61 Safari/537.36",Macintosh,Chrome,94.0.4606.61,"OS X",10_13_6,fe3c1d035a65c549f7011c5446f73ede
32,1,null,null,psychophysics,79,212426,0.0-3.0-1.37,"""",key,null,16.665999999999865,683,344.5,"""","""","""","""","""","""","""","""","2021-10-05 06:48:25",99.244.207.252,"Mozilla/5.0 (Macintosh; Intel Mac OS X 10_13_6) AppleWebKit/537.36 (KHTML, like Gecko) Chrome/94.0.4606.61 Safari/537.36",Macintosh,Chrome,94.0.4606.61,"OS X",10_13_6,fe3c1d035a65c549f7011c5446f73ede
32,1,4620.19999999553,arrowright,psychophysics,80,217058,0.0-3.0-0.38,"""",key,arrowright,16.66599999999996,683,344.5,39,2,1,25,15,25,35,true,"2021-10-05 06:48:25",99.244.207.252,"Mozilla/5.0 (Macintosh; Intel Mac OS X 10_13_6) AppleWebKit/537.36 (KHTML, like Gecko) Chrome/94.0.4606.61 Safari/537.36",Macintosh,Chrome,94.0.4606.61,"OS X",10_13_6,fe3c1d035a65c549f7011c5446f73ede
32,1,null,null,psychophysics,81,218071,0.0-3.0-1.38,"""",key,null,16.673066666666514,683,344.5,"""","""","""","""","""","""","""","""","2021-10-05 06:48:25",99.244.207.252,"Mozilla/5.0 (Macintosh; Intel Mac OS X 10_13_6) AppleWebKit/537.36 (KHTML, like Gecko) Chrome/94.0.4606.61 Safari/537.36",Macintosh,Chrome,94.0.4606.61,"OS X",10_13_6,fe3c1d035a65c549f7011c5446f73ede
32,1,2239.7000000029802,arrowright,psychophysics,82,220319,0.0-3.0-0.39,"""",key,arrowright,16.666000000000047,683,344.5,40,2,-1,25,35,25,35,false,"2021-10-05 06:48:25",99.244.207.252,"Mozilla/5.0 (Macintosh; Intel Mac OS X 10_13_6) AppleWebKit/537.36 (KHTML, like Gecko) Chrome/94.0.4606.61 Safari/537.36",Macintosh,Chrome,94.0.4606.61,"OS X",10_13_6,fe3c1d035a65c549f7011c5446f73ede
32,1,null,null,psychophysics,83,221323,0.0-3.0-1.39,"""",key,null,16.665999999999904,683,344.5,"""","""","""","""","""","""","""","""","2021-10-05 06:48:25",99.244.207.252,"Mozilla/5.0 (Macintosh; Intel Mac OS X 10_13_6) AppleWebKit/537.36 (KHTML, like Gecko) Chrome/94.0.4606.61 Safari/537.36",Macintosh,Chrome,94.0.4606.61,"OS X",10_13_6,fe3c1d035a65c549f7011c5446f73ede
32,1,1183.5999999940395,arrowleft,psychophysics,84,222518,0.0-3.0-0.40,"""",key,arrowleft,16.665999999999897,683,344.5,41,2,1,23,35,25,35,false,"2021-10-05 06:48:25",99.244.207.252,"Mozilla/5.0 (Macintosh; Intel Mac OS X 10_13_6) AppleWebKit/537.36 (KHTML, like Gecko) Chrome/94.0.4606.61 Safari/537.36",Macintosh,Chrome,94.0.4606.61,"OS X",10_13_6,fe3c1d035a65c549f7011c5446f73ede
32,1,null,null,psychophysics,85,223529,0.0-3.0-1.40,"""",key,null,16.665999999999904,683,344.5,"""","""","""","""","""","""","""","""","2021-10-05 06:48:25",99.244.207.252,"Mozilla/5.0 (Macintosh; Intel Mac OS X 10_13_6) AppleWebKit/537.36 (KHTML, like Gecko) Chrome/94.0.4606.61 Safari/537.36",Macintosh,Chrome,94.0.4606.61,"OS X",10_13_6,fe3c1d035a65c549f7011c5446f73ede
32,1,795.6999999955297,arrowleft,psychophysics,86,224335,0.0-3.0-0.41,"""",key,arrowleft,16.665999999999865,683,344.5,42,2,-1,27,15,25,35,true,"2021-10-05 06:48:25",99.244.207.252,"Mozilla/5.0 (Macintosh; Intel Mac OS X 10_13_6) AppleWebKit/537.36 (KHTML, like Gecko) Chrome/94.0.4606.61 Safari/537.36",Macintosh,Chrome,94.0.4606.61,"OS X",10_13_6,fe3c1d035a65c549f7011c5446f73ede
32,1,null,null,psychophysics,87,225339,0.0-3.0-1.41,"""",key,null,16.6660000000004,683,344.5,"""","""","""","""","""","""","""","""","2021-10-05 06:48:25",99.244.207.252,"Mozilla/5.0 (Macintosh; Intel Mac OS X 10_13_6) AppleWebKit/537.36 (KHTML, like Gecko) Chrome/94.0.4606.61 Safari/537.36",Macintosh,Chrome,94.0.4606.61,"OS X",10_13_6,fe3c1d035a65c549f7011c5446f73ede
32,1,546.2999999970198,arrowright,psychophysics,88,225891,0.0-3.0-0.42,"""",key,arrowright,16.666000000000167,683,344.5,43,2,1,27,35,25,35,true,"2021-10-05 06:48:25",99.244.207.252,"Mozilla/5.0 (Macintosh; Intel Mac OS X 10_13_6) AppleWebKit/537.36 (KHTML, like Gecko) Chrome/94.0.4606.61 Safari/537.36",Macintosh,Chrome,94.0.4606.61,"OS X",10_13_6,fe3c1d035a65c549f7011c5446f73ede
32,1,null,null,psychophysics,89,226894,0.0-3.0-1.42,"""",key,null,16.665999999999904,683,344.5,"""","""","""","""","""","""","""","""","2021-10-05 06:48:25",99.244.207.252,"Mozilla/5.0 (Macintosh; Intel Mac OS X 10_13_6) AppleWebKit/537.36 (KHTML, like Gecko) Chrome/94.0.4606.61 Safari/537.36",Macintosh,Chrome,94.0.4606.61,"OS X",10_13_6,fe3c1d035a65c549f7011c5446f73ede
32,1,439.30000000447035,arrowright,psychophysics,90,227345,0.0-3.0-0.43,"""",key,arrowright,16.665999999999677,683,344.5,44,2,1,30,35,25,35,true,"2021-10-05 06:48:25",99.244.207.252,"Mozilla/5.0 (Macintosh; Intel Mac OS X 10_13_6) AppleWebKit/537.36 (KHTML, like Gecko) Chrome/94.0.4606.61 Safari/537.36",Macintosh,Chrome,94.0.4606.61,"OS X",10_13_6,fe3c1d035a65c549f7011c5446f73ede
32,1,null,null,psychophysics,91,228355,0.0-3.0-1.43,"""",key,null,21.385369565217683,683,344.5,"""","""","""","""","""","""","""","""","2021-10-05 06:48:25",99.244.207.252,"Mozilla/5.0 (Macintosh; Intel Mac OS X 10_13_6) AppleWebKit/537.36 (KHTML, like Gecko) Chrome/94.0.4606.61 Safari/537.36",Macintosh,Chrome,94.0.4606.61,"OS X",10_13_6,fe3c1d035a65c549f7011c5446f73ede
32,1,465.30000000447035,arrowright,psychophysics,92,228937,0.0-3.0-0.44,"""",key,arrowright,19.539448275862078,683,344.5,45,2,-1,25,15,25,35,false,"2021-10-05 06:48:25",99.244.207.252,"Mozilla/5.0 (Macintosh; Intel Mac OS X 10_13_6) AppleWebKit/537.36 (KHTML, like Gecko) Chrome/94.0.4606.61 Safari/537.36",Macintosh,Chrome,94.0.4606.61,"OS X",10_13_6,fe3c1d035a65c549f7011c5446f73ede
32,1,null,null,psychophysics,93,229941,0.0-3.0-1.44,"""",key,null,16.665999999999904,683,344.5,"""","""","""","""","""","""","""","""","2021-10-05 06:48:25",99.244.207.252,"Mozilla/5.0 (Macintosh; Intel Mac OS X 10_13_6) AppleWebKit/537.36 (KHTML, like Gecko) Chrome/94.0.4606.61 Safari/537.36",Macintosh,Chrome,94.0.4606.61,"OS X",10_13_6,fe3c1d035a65c549f7011c5446f73ede
32,1,495.3999999985099,arrowleft,psychophysics,94,230448,0.0-3.0-0.45,"""",key,arrowleft,16.66600000000035,683,344.5,46,2,1,20,15,25,35,false,"2021-10-05 06:48:25",99.244.207.252,"Mozilla/5.0 (Macintosh; Intel Mac OS X 10_13_6) AppleWebKit/537.36 (KHTML, like Gecko) Chrome/94.0.4606.61 Safari/537.36",Macintosh,Chrome,94.0.4606.61,"OS X",10_13_6,fe3c1d035a65c549f7011c5446f73ede
32,1,null,null,psychophysics,95,231452,0.0-3.0-1.45,"""",key,null,16.665999999999904,683,344.5,"""","""","""","""","""","""","""","""","2021-10-05 06:48:25",99.244.207.252,"Mozilla/5.0 (Macintosh; Intel Mac OS X 10_13_6) AppleWebKit/537.36 (KHTML, like Gecko) Chrome/94.0.4606.61 Safari/537.36",Macintosh,Chrome,94.0.4606.61,"OS X",10_13_6,fe3c1d035a65c549f7011c5446f73ede
32,1,571,arrowleft,psychophysics,96,232028,0.0-3.0-0.46,"""",key,arrowleft,16.666000000000086,683,344.5,47,2,-1,30,35,25,35,true,"2021-10-05 06:48:25",99.244.207.252,"Mozilla/5.0 (Macintosh; Intel Mac OS X 10_13_6) AppleWebKit/537.36 (KHTML, like Gecko) Chrome/94.0.4606.61 Safari/537.36",Macintosh,Chrome,94.0.4606.61,"OS X",10_13_6,fe3c1d035a65c549f7011c5446f73ede
32,1,null,null,psychophysics,97,233032,0.0-3.0-1.46,"""",key,null,16.66600000000035,683,344.5,"""","""","""","""","""","""","""","""","2021-10-05 06:48:25",99.244.207.252,"Mozilla/5.0 (Macintosh; Intel Mac OS X 10_13_6) AppleWebKit/537.36 (KHTML, like Gecko) Chrome/94.0.4606.61 Safari/537.36",Macintosh,Chrome,94.0.4606.61,"OS X",10_13_6,fe3c1d035a65c549f7011c5446f73ede
32,1,718.3999999985099,arrowright,psychophysics,98,233757,0.0-3.0-0.47,"""",key,arrowright,16.665999999999517,683,344.5,48,2,1,25,15,25,35,true,"2021-10-05 06:48:25",99.244.207.252,"Mozilla/5.0 (Macintosh; Intel Mac OS X 10_13_6) AppleWebKit/537.36 (KHTML, like Gecko) Chrome/94.0.4606.61 Safari/537.36",Macintosh,Chrome,94.0.4606.61,"OS X",10_13_6,fe3c1d035a65c549f7011c5446f73ede
32,1,null,null,psychophysics,99,234772,0.0-3.0-1.47,"""",key,null,16.665999999999865,683,344.5,"""","""","""","""","""","""","""","""","2021-10-05 06:48:25",99.244.207.252,"Mozilla/5.0 (Macintosh; Intel Mac OS X 10_13_6) AppleWebKit/537.36 (KHTML, like Gecko) Chrome/94.0.4606.61 Safari/537.36",Macintosh,Chrome,94.0.4606.61,"OS X",10_13_6,fe3c1d035a65c549f7011c5446f73ede
32,1,759.3999999985099,arrowleft,psychophysics,100,235544,0.0-3.0-0.48,"""",key,arrowleft,16.666000000000025,683,344.5,49,2,-1,27,35,25,35,true,"2021-10-05 06:48:25",99.244.207.252,"Mozilla/5.0 (Macintosh; Intel Mac OS X 10_13_6) AppleWebKit/537.36 (KHTML, like Gecko) Chrome/94.0.4606.61 Safari/537.36",Macintosh,Chrome,94.0.4606.61,"OS X",10_13_6,fe3c1d035a65c549f7011c5446f73ede
32,1,null,null,psychophysics,101,236548,0.0-3.0-1.48,"""",key,null,16.665999999999865,683,344.5,"""","""","""","""","""","""","""","""","2021-10-05 06:48:25",99.244.207.252,"Mozilla/5.0 (Macintosh; Intel Mac OS X 10_13_6) AppleWebKit/537.36 (KHTML, like Gecko) Chrome/94.0.4606.61 Safari/537.36",Macintosh,Chrome,94.0.4606.61,"OS X",10_13_6,fe3c1d035a65c549f7011c5446f73ede
32,1,499,arrowright,psychophysics,102,237053,0.0-3.0-0.49,"""",key,arrowright,16.666000000000448,683,344.5,50,2,-1,26,35,25,35,false,"2021-10-05 06:48:25",99.244.207.252,"Mozilla/5.0 (Macintosh; Intel Mac OS X 10_13_6) AppleWebKit/537.36 (KHTML, like Gecko) Chrome/94.0.4606.61 Safari/537.36",Macintosh,Chrome,94.0.4606.61,"OS X",10_13_6,fe3c1d035a65c549f7011c5446f73ede
32,1,null,null,psychophysics,103,238056,0.0-3.0-1.49,"""",key,null,16.672525423728878,683,344.5,"""","""","""","""","""","""","""","""","2021-10-05 06:48:25",99.244.207.252,"Mozilla/5.0 (Macintosh; Intel Mac OS X 10_13_6) AppleWebKit/537.36 (KHTML, like Gecko) Chrome/94.0.4606.61 Safari/537.36",Macintosh,Chrome,94.0.4606.61,"OS X",10_13_6,fe3c1d035a65c549f7011c5446f73ede
32,1,1048.8999999985099,arrowleft,psychophysics,104,239118,0.0-3.0-0.50,"""",key,arrowleft,16.665999999999748,683,344.5,51,2,-1,26,35,25,35,true,"2021-10-05 06:48:25",99.244.207.252,"Mozilla/5.0 (Macintosh; Intel Mac OS X 10_13_6) AppleWebKit/537.36 (KHTML, like Gecko) Chrome/94.0.4606.61 Safari/537.36",Macintosh,Chrome,94.0.4606.61,"OS X",10_13_6,fe3c1d035a65c549f7011c5446f73ede
32,1,null,null,psychophysics,105,240129,0.0-3.0-1.50,"""",key,null,16.665999999999904,683,344.5,"""","""","""","""","""","""","""","""","2021-10-05 06:48:25",99.244.207.252,"Mozilla/5.0 (Macintosh; Intel Mac OS X 10_13_6) AppleWebKit/537.36 (KHTML, like Gecko) Chrome/94.0.4606.61 Safari/537.36",Macintosh,Chrome,94.0.4606.61,"OS X",10_13_6,fe3c1d035a65c549f7011c5446f73ede
32,1,731.4000000059605,arrowleft,psychophysics,106,240871,0.0-3.0-0.51,"""",key,arrowleft,16.666000000000086,683,344.5,52,2,-1,24,15,25,35,true,"2021-10-05 06:48:25",99.244.207.252,"Mozilla/5.0 (Macintosh; Intel Mac OS X 10_13_6) AppleWebKit/537.36 (KHTML, like Gecko) Chrome/94.0.4606.61 Safari/537.36",Macintosh,Chrome,94.0.4606.61,"OS X",10_13_6,fe3c1d035a65c549f7011c5446f73ede
32,1,null,null,psychophysics,107,241874,0.0-3.0-1.51,"""",key,null,16.665999999999904,683,344.5,"""","""","""","""","""","""","""","""","2021-10-05 06:48:25",99.244.207.252,"Mozilla/5.0 (Macintosh; Intel Mac OS X 10_13_6) AppleWebKit/537.36 (KHTML, like Gecko) Chrome/94.0.4606.61 Safari/537.36",Macintosh,Chrome,94.0.4606.61,"OS X",10_13_6,fe3c1d035a65c549f7011c5446f73ede
32,1,871.9000000059605,arrowright,psychophysics,108,242758,0.0-3.0-0.52,"""",key,arrowright,16.66600000000024,683,344.5,53,2,1,23,15,25,35,true,"2021-10-05 06:48:25",99.244.207.252,"Mozilla/5.0 (Macintosh; Intel Mac OS X 10_13_6) AppleWebKit/537.36 (KHTML, like Gecko) Chrome/94.0.4606.61 Safari/537.36",Macintosh,Chrome,94.0.4606.61,"OS X",10_13_6,fe3c1d035a65c549f7011c5446f73ede
32,1,null,null,psychophysics,109,243762,0.0-3.0-1.52,"""",key,null,16.665999999999904,683,344.5,"""","""","""","""","""","""","""","""","2021-10-05 06:48:25",99.244.207.252,"Mozilla/5.0 (Macintosh; Intel Mac OS X 10_13_6) AppleWebKit/537.36 (KHTML, like Gecko) Chrome/94.0.4606.61 Safari/537.36",Macintosh,Chrome,94.0.4606.61,"OS X",10_13_6,fe3c1d035a65c549f7011c5446f73ede
32,1,713.8000000044703,arrowright,psychophysics,110,244486,0.0-3.0-0.53,"""",key,arrowright,16.666000000000146,683,344.5,54,2,-1,24,35,25,35,false,"2021-10-05 06:48:25",99.244.207.252,"Mozilla/5.0 (Macintosh; Intel Mac OS X 10_13_6) AppleWebKit/537.36 (KHTML, like Gecko) Chrome/94.0.4606.61 Safari/537.36",Macintosh,Chrome,94.0.4606.61,"OS X",10_13_6,fe3c1d035a65c549f7011c5446f73ede
32,1,null,null,psychophysics,111,245499,0.0-3.0-1.53,"""",key,null,16.665999999999865,683,344.5,"""","""","""","""","""","""","""","""","2021-10-05 06:48:25",99.244.207.252,"Mozilla/5.0 (Macintosh; Intel Mac OS X 10_13_6) AppleWebKit/537.36 (KHTML, like Gecko) Chrome/94.0.4606.61 Safari/537.36",Macintosh,Chrome,94.0.4606.61,"OS X",10_13_6,fe3c1d035a65c549f7011c5446f73ede
32,1,780.7999999970198,arrowleft,psychophysics,112,246285,0.0-3.0-0.54,"""",key,arrowleft,16.66599999999997,683,344.5,55,2,-1,24,15,25,35,true,"2021-10-05 06:48:25",99.244.207.252,"Mozilla/5.0 (Macintosh; Intel Mac OS X 10_13_6) AppleWebKit/537.36 (KHTML, like Gecko) Chrome/94.0.4606.61 Safari/537.36",Macintosh,Chrome,94.0.4606.61,"OS X",10_13_6,fe3c1d035a65c549f7011c5446f73ede
32,1,null,null,psychophysics,113,247289,0.0-3.0-1.54,"""",key,null,16.6660000000004,683,344.5,"""","""","""","""","""","""","""","""","2021-10-05 06:48:25",99.244.207.252,"Mozilla/5.0 (Macintosh; Intel Mac OS X 10_13_6) AppleWebKit/537.36 (KHTML, like Gecko) Chrome/94.0.4606.61 Safari/537.36",Macintosh,Chrome,94.0.4606.61,"OS X",10_13_6,fe3c1d035a65c549f7011c5446f73ede
32,1,1666.2000000029802,arrowright,psychophysics,114,248961,0.0-3.0-0.55,"""",key,arrowright,16.670111111110966,683,344.5,56,3,1,30,35,25,35,true,"2021-10-05 06:48:25",99.244.207.252,"Mozilla/5.0 (Macintosh; Intel Mac OS X 10_13_6) AppleWebKit/537.36 (KHTML, like Gecko) Chrome/94.0.4606.61 Safari/537.36",Macintosh,Chrome,94.0.4606.61,"OS X",10_13_6,fe3c1d035a65c549f7011c5446f73ede
32,1,null,null,psychophysics,115,249966,0.0-3.0-1.55,"""",key,null,16.66600000000035,683,344.5,"""","""","""","""","""","""","""","""","2021-10-05 06:48:25",99.244.207.252,"Mozilla/5.0 (Macintosh; Intel Mac OS X 10_13_6) AppleWebKit/537.36 (KHTML, like Gecko) Chrome/94.0.4606.61 Safari/537.36",Macintosh,Chrome,94.0.4606.61,"OS X",10_13_6,fe3c1d035a65c549f7011c5446f73ede
32,1,5710," ",html-keyboard-response,116,255688,0.0-3.0-2.55-0.55,"<div style=""color: white; text-align: center; vertical-align: top; display: inline-block; width: 800px; margin: auto""><p>You have completed 20% of the trials. You are on block 3 of 10. <br>Good job! Take a break if you need to.</p><p>Press any key to continue the experiment.</p></div>","""","""","""","""","""","""","""","""","""","""","""","""","""","2021-10-05 06:48:25",99.244.207.252,"Mozilla/5.0 (Macintosh; Intel Mac OS X 10_13_6) AppleWebKit/537.36 (KHTML, like Gecko) Chrome/94.0.4606.61 Safari/537.36",Macintosh,Chrome,94.0.4606.61,"OS X",10_13_6,fe3c1d035a65c549f7011c5446f73ede
32,1,480.6000000014901,arrowright,psychophysics,117,257181,0.0-3.0-0.56,"""",key,arrowright,16.666000000000448,683,344.5,57,3,1,25,35,25,35,true,"2021-10-05 06:48:25",99.244.207.252,"Mozilla/5.0 (Macintosh; Intel Mac OS X 10_13_6) AppleWebKit/537.36 (KHTML, like Gecko) Chrome/94.0.4606.61 Safari/537.36",Macintosh,Chrome,94.0.4606.61,"OS X",10_13_6,fe3c1d035a65c549f7011c5446f73ede
32,1,null,null,psychophysics,118,258197,0.0-3.0-1.56,"""",key,null,16.672949152542337,683,344.5,"""","""","""","""","""","""","""","""","2021-10-05 06:48:25",99.244.207.252,"Mozilla/5.0 (Macintosh; Intel Mac OS X 10_13_6) AppleWebKit/537.36 (KHTML, like Gecko) Chrome/94.0.4606.61 Safari/537.36",Macintosh,Chrome,94.0.4606.61,"OS X",10_13_6,fe3c1d035a65c549f7011c5446f73ede
32,1,517.3999999985099,arrowright,psychophysics,119,258724,0.0-3.0-0.57,"""",key,arrowright,16.666000000000256,683,344.5,58,3,1,24,35,25,35,true,"2021-10-05 06:48:25",99.244.207.252,"Mozilla/5.0 (Macintosh; Intel Mac OS X 10_13_6) AppleWebKit/537.36 (KHTML, like Gecko) Chrome/94.0.4606.61 Safari/537.36",Macintosh,Chrome,94.0.4606.61,"OS X",10_13_6,fe3c1d035a65c549f7011c5446f73ede
32,1,null,null,psychophysics,120,259728,0.0-3.0-1.57,"""",key,null,16.665999999999904,683,344.5,"""","""","""","""","""","""","""","""","2021-10-05 06:48:25",99.244.207.252,"Mozilla/5.0 (Macintosh; Intel Mac OS X 10_13_6) AppleWebKit/537.36 (KHTML, like Gecko) Chrome/94.0.4606.61 Safari/537.36",Macintosh,Chrome,94.0.4606.61,"OS X",10_13_6,fe3c1d035a65c549f7011c5446f73ede
32,1,324.1000000014901,arrowright,psychophysics,121,260063,0.0-3.0-0.58,"""",key,arrowright,16.6660000000005,683,344.5,59,3,1,20,35,25,35,true,"2021-10-05 06:48:25",99.244.207.252,"Mozilla/5.0 (Macintosh; Intel Mac OS X 10_13_6) AppleWebKit/537.36 (KHTML, like Gecko) Chrome/94.0.4606.61 Safari/537.36",Macintosh,Chrome,94.0.4606.61,"OS X",10_13_6,fe3c1d035a65c549f7011c5446f73ede
32,1,null,null,psychophysics,122,261066,0.0-3.0-1.58,"""",key,null,16.66600000000035,683,344.5,"""","""","""","""","""","""","""","""","2021-10-05 06:48:25",99.244.207.252,"Mozilla/5.0 (Macintosh; Intel Mac OS X 10_13_6) AppleWebKit/537.36 (KHTML, like Gecko) Chrome/94.0.4606.61 Safari/537.36",Macintosh,Chrome,94.0.4606.61,"OS X",10_13_6,fe3c1d035a65c549f7011c5446f73ede
32,1,155.5,arrowleft,psychophysics,123,261228,0.0-3.0-0.59,"""",key,arrowleft,16.66599999999744,683,344.5,60,3,-1,27,35,25,35,true,"2021-10-05 06:48:25",99.244.207.252,"Mozilla/5.0 (Macintosh; Intel Mac OS X 10_13_6) AppleWebKit/537.36 (KHTML, like Gecko) Chrome/94.0.4606.61 Safari/537.36",Macintosh,Chrome,94.0.4606.61,"OS X",10_13_6,fe3c1d035a65c549f7011c5446f73ede
32,1,null,null,psychophysics,124,262232,0.0-3.0-1.59,"""",key,null,16.66600000000035,683,344.5,"""","""","""","""","""","""","""","""","2021-10-05 06:48:25",99.244.207.252,"Mozilla/5.0 (Macintosh; Intel Mac OS X 10_13_6) AppleWebKit/537.36 (KHTML, like Gecko) Chrome/94.0.4606.61 Safari/537.36",Macintosh,Chrome,94.0.4606.61,"OS X",10_13_6,fe3c1d035a65c549f7011c5446f73ede
32,1,501.19999999552965,arrowright,psychophysics,125,262741,0.0-3.0-0.60,"""",key,arrowright,16.66599999999844,683,344.5,61,3,1,30,15,25,35,true,"2021-10-05 06:48:25",99.244.207.252,"Mozilla/5.0 (Macintosh; Intel Mac OS X 10_13_6) AppleWebKit/537.36 (KHTML, like Gecko) Chrome/94.0.4606.61 Safari/537.36",Macintosh,Chrome,94.0.4606.61,"OS X",10_13_6,fe3c1d035a65c549f7011c5446f73ede
32,1,null,null,psychophysics,126,263758,0.0-3.0-1.60,"""",key,null,16.66600000000035,683,344.5,"""","""","""","""","""","""","""","""","2021-10-05 06:48:25",99.244.207.252,"Mozilla/5.0 (Macintosh; Intel Mac OS X 10_13_6) AppleWebKit/537.36 (KHTML, like Gecko) Chrome/94.0.4606.61 Safari/537.36",Macintosh,Chrome,94.0.4606.61,"OS X",10_13_6,fe3c1d035a65c549f7011c5446f73ede
32,1,461.70000000298023,arrowright,psychophysics,127,264229,0.0-3.0-0.61,"""",key,arrowright,16.666000000000672,683,344.5,62,3,-1,20,15,25,35,false,"2021-10-05 06:48:25",99.244.207.252,"Mozilla/5.0 (Macintosh; Intel Mac OS X 10_13_6) AppleWebKit/537.36 (KHTML, like Gecko) Chrome/94.0.4606.61 Safari/537.36",Macintosh,Chrome,94.0.4606.61,"OS X",10_13_6,fe3c1d035a65c549f7011c5446f73ede
32,1,null,null,psychophysics,128,265233,0.0-3.0-1.61,"""",key,null,16.66600000000035,683,344.5,"""","""","""","""","""","""","""","""","2021-10-05 06:48:25",99.244.207.252,"Mozilla/5.0 (Macintosh; Intel Mac OS X 10_13_6) AppleWebKit/537.36 (KHTML, like Gecko) Chrome/94.0.4606.61 Safari/537.36",Macintosh,Chrome,94.0.4606.61,"OS X",10_13_6,fe3c1d035a65c549f7011c5446f73ede
32,1,472.5,arrowleft,psychophysics,129,265727,0.0-3.0-0.62,"""",key,arrowleft,16.665999999999517,683,344.5,63,3,1,23,15,25,35,false,"2021-10-05 06:48:25",99.244.207.252,"Mozilla/5.0 (Macintosh; Intel Mac OS X 10_13_6) AppleWebKit/537.36 (KHTML, like Gecko) Chrome/94.0.4606.61 Safari/537.36",Macintosh,Chrome,94.0.4606.61,"OS X",10_13_6,fe3c1d035a65c549f7011c5446f73ede
32,1,null,null,psychophysics,130,266730,0.0-3.0-1.62,"""",key,null,16.66600000000035,683,344.5,"""","""","""","""","""","""","""","""","2021-10-05 06:48:25",99.244.207.252,"Mozilla/5.0 (Macintosh; Intel Mac OS X 10_13_6) AppleWebKit/537.36 (KHTML, like Gecko) Chrome/94.0.4606.61 Safari/537.36",Macintosh,Chrome,94.0.4606.61,"OS X",10_13_6,fe3c1d035a65c549f7011c5446f73ede
32,1,141.09999999403954,arrowright,psychophysics,131,266879,0.0-3.0-0.63,"""",key,arrowright,16.665999999993282,683,344.5,64,3,-1,20,15,25,35,false,"2021-10-05 06:48:25",99.244.207.252,"Mozilla/5.0 (Macintosh; Intel Mac OS X 10_13_6) AppleWebKit/537.36 (KHTML, like Gecko) Chrome/94.0.4606.61 Safari/537.36",Macintosh,Chrome,94.0.4606.61,"OS X",10_13_6,fe3c1d035a65c549f7011c5446f73ede
32,1,null,null,psychophysics,132,267882,0.0-3.0-1.63,"""",key,null,16.67280000000028,683,344.5,"""","""","""","""","""","""","""","""","2021-10-05 06:48:25",99.244.207.252,"Mozilla/5.0 (Macintosh; Intel Mac OS X 10_13_6) AppleWebKit/537.36 (KHTML, like Gecko) Chrome/94.0.4606.61 Safari/537.36",Macintosh,Chrome,94.0.4606.61,"OS X",10_13_6,fe3c1d035a65c549f7011c5446f73ede
32,1,516.5,arrowleft,psychophysics,133,268405,0.0-3.0-0.64,"""",key,arrowleft,16.66599999999938,683,344.5,65,3,-1,30,15,25,35,true,"2021-10-05 06:48:25",99.244.207.252,"Mozilla/5.0 (Macintosh; Intel Mac OS X 10_13_6) AppleWebKit/537.36 (KHTML, like Gecko) Chrome/94.0.4606.61 Safari/537.36",Macintosh,Chrome,94.0.4606.61,"OS X",10_13_6,fe3c1d035a65c549f7011c5446f73ede
32,1,null,null,psychophysics,134,269419,0.0-3.0-1.64,"""",key,null,17.240689655172776,683,344.5,"""","""","""","""","""","""","""","""","2021-10-05 06:48:25",99.244.207.252,"Mozilla/5.0 (Macintosh; Intel Mac OS X 10_13_6) AppleWebKit/537.36 (KHTML, like Gecko) Chrome/94.0.4606.61 Safari/537.36",Macintosh,Chrome,94.0.4606.61,"OS X",10_13_6,fe3c1d035a65c549f7011c5446f73ede
32,1,542.3999999985099,arrowleft,psychophysics,135,269968,0.0-3.0-0.65,"""",key,arrowleft,16.666000000001077,683,344.5,66,3,-1,30,15,25,35,true,"2021-10-05 06:48:25",99.244.207.252,"Mozilla/5.0 (Macintosh; Intel Mac OS X 10_13_6) AppleWebKit/537.36 (KHTML, like Gecko) Chrome/94.0.4606.61 Safari/537.36",Macintosh,Chrome,94.0.4606.61,"OS X",10_13_6,fe3c1d035a65c549f7011c5446f73ede
32,1,null,null,psychophysics,136,270971,0.0-3.0-1.65,"""",key,null,16.665999999999904,683,344.5,"""","""","""","""","""","""","""","""","2021-10-05 06:48:25",99.244.207.252,"Mozilla/5.0 (Macintosh; Intel Mac OS X 10_13_6) AppleWebKit/537.36 (KHTML, like Gecko) Chrome/94.0.4606.61 Safari/537.36",Macintosh,Chrome,94.0.4606.61,"OS X",10_13_6,fe3c1d035a65c549f7011c5446f73ede
32,1,769.1000000014901,arrowleft,psychophysics,137,271745,0.0-3.0-0.66,"""",key,arrowleft,16.66599999999938,683,344.5,67,3,1,23,15,25,35,false,"2021-10-05 06:48:25",99.244.207.252,"Mozilla/5.0 (Macintosh; Intel Mac OS X 10_13_6) AppleWebKit/537.36 (KHTML, like Gecko) Chrome/94.0.4606.61 Safari/537.36",Macintosh,Chrome,94.0.4606.61,"OS X",10_13_6,fe3c1d035a65c549f7011c5446f73ede
32,1,null,null,psychophysics,138,272750,0.0-3.0-1.66,"""",key,null,16.66599999999938,683,344.5,"""","""","""","""","""","""","""","""","2021-10-05 06:48:25",99.244.207.252,"Mozilla/5.0 (Macintosh; Intel Mac OS X 10_13_6) AppleWebKit/537.36 (KHTML, like Gecko) Chrome/94.0.4606.61 Safari/537.36",Macintosh,Chrome,94.0.4606.61,"OS X",10_13_6,fe3c1d035a65c549f7011c5446f73ede
32,1,604.4000000059605,arrowright,psychophysics,139,273361,0.0-3.0-0.67,"""",key,arrowright,16.665999999999933,683,344.5,68,3,1,25,15,25,35,true,"2021-10-05 06:48:25",99.244.207.252,"Mozilla/5.0 (Macintosh; Intel Mac OS X 10_13_6) AppleWebKit/537.36 (KHTML, like Gecko) Chrome/94.0.4606.61 Safari/537.36",Macintosh,Chrome,94.0.4606.61,"OS X",10_13_6,fe3c1d035a65c549f7011c5446f73ede
32,1,null,null,psychophysics,140,274366,0.0-3.0-1.67,"""",key,null,16.66599999999938,683,344.5,"""","""","""","""","""","""","""","""","2021-10-05 06:48:25",99.244.207.252,"Mozilla/5.0 (Macintosh; Intel Mac OS X 10_13_6) AppleWebKit/537.36 (KHTML, like Gecko) Chrome/94.0.4606.61 Safari/537.36",Macintosh,Chrome,94.0.4606.61,"OS X",10_13_6,fe3c1d035a65c549f7011c5446f73ede
32,1,533.3000000044703,arrowright,psychophysics,141,274919,0.0-3.0-0.68,"""",key,arrowright,16.665999999999258,683,344.5,69,3,-1,20,15,25,35,false,"2021-10-05 06:48:25",99.244.207.252,"Mozilla/5.0 (Macintosh; Intel Mac OS X 10_13_6) AppleWebKit/537.36 (KHTML, like Gecko) Chrome/94.0.4606.61 Safari/537.36",Macintosh,Chrome,94.0.4606.61,"OS X",10_13_6,fe3c1d035a65c549f7011c5446f73ede
32,1,null,null,psychophysics,142,275925,0.0-3.0-1.68,"""",key,null,16.665999999999904,683,344.5,"""","""","""","""","""","""","""","""","2021-10-05 06:48:25",99.244.207.252,"Mozilla/5.0 (Macintosh; Intel Mac OS X 10_13_6) AppleWebKit/537.36 (KHTML, like Gecko) Chrome/94.0.4606.61 Safari/537.36",Macintosh,Chrome,94.0.4606.61,"OS X",10_13_6,fe3c1d035a65c549f7011c5446f73ede
32,1,523.6000000014901,arrowright,psychophysics,143,276459,0.0-3.0-0.69,"""",key,arrowright,16.666000000000256,683,344.5,70,3,-1,23,15,25,35,false,"2021-10-05 06:48:25",99.244.207.252,"Mozilla/5.0 (Macintosh; Intel Mac OS X 10_13_6) AppleWebKit/537.36 (KHTML, like Gecko) Chrome/94.0.4606.61 Safari/537.36",Macintosh,Chrome,94.0.4606.61,"OS X",10_13_6,fe3c1d035a65c549f7011c5446f73ede
32,1,null,null,psychophysics,144,277463,0.0-3.0-1.69,"""",key,null,16.665999999999904,683,344.5,"""","""","""","""","""","""","""","""","2021-10-05 06:48:25",99.244.207.252,"Mozilla/5.0 (Macintosh; Intel Mac OS X 10_13_6) AppleWebKit/537.36 (KHTML, like Gecko) Chrome/94.0.4606.61 Safari/537.36",Macintosh,Chrome,94.0.4606.61,"OS X",10_13_6,fe3c1d035a65c549f7011c5446f73ede
32,1,593.7999999970198,arrowright,psychophysics,145,278070,0.0-3.0-0.70,"""",key,arrowright,16.67802777777898,683,344.5,71,3,-1,25,35,25,35,false,"2021-10-05 06:48:25",99.244.207.252,"Mozilla/5.0 (Macintosh; Intel Mac OS X 10_13_6) AppleWebKit/537.36 (KHTML, like Gecko) Chrome/94.0.4606.61 Safari/537.36",Macintosh,Chrome,94.0.4606.61,"OS X",10_13_6,fe3c1d035a65c549f7011c5446f73ede
32,1,null,null,psychophysics,146,279090,0.0-3.0-1.70,"""",key,null,16.66600000000035,683,344.5,"""","""","""","""","""","""","""","""","2021-10-05 06:48:25",99.244.207.252,"Mozilla/5.0 (Macintosh; Intel Mac OS X 10_13_6) AppleWebKit/537.36 (KHTML, like Gecko) Chrome/94.0.4606.61 Safari/537.36",Macintosh,Chrome,94.0.4606.61,"OS X",10_13_6,fe3c1d035a65c549f7011c5446f73ede
32,1,308.29999999701977,arrowright,psychophysics,147,279404,0.0-3.0-0.71,"""",key,arrowright,16.666000000000672,683,344.5,72,3,1,30,35,25,35,true,"2021-10-05 06:48:25",99.244.207.252,"Mozilla/5.0 (Macintosh; Intel Mac OS X 10_13_6) AppleWebKit/537.36 (KHTML, like Gecko) Chrome/94.0.4606.61 Safari/537.36",Macintosh,Chrome,94.0.4606.61,"OS X",10_13_6,fe3c1d035a65c549f7011c5446f73ede
32,1,null,null,psychophysics,148,280408,0.0-3.0-1.71,"""",key,null,16.665999999999904,683,344.5,"""","""","""","""","""","""","""","""","2021-10-05 06:48:25",99.244.207.252,"Mozilla/5.0 (Macintosh; Intel Mac OS X 10_13_6) AppleWebKit/537.36 (KHTML, like Gecko) Chrome/94.0.4606.61 Safari/537.36",Macintosh,Chrome,94.0.4606.61,"OS X",10_13_6,fe3c1d035a65c549f7011c5446f73ede
32,1,54.69999999552965,arrowright,psychophysics,149,280484,0.0-3.0-0.72,"""",key,arrowright,16.66600000001199,683,344.5,73,3,-1,26,15,25,35,false,"2021-10-05 06:48:25",99.244.207.252,"Mozilla/5.0 (Macintosh; Intel Mac OS X 10_13_6) AppleWebKit/537.36 (KHTML, like Gecko) Chrome/94.0.4606.61 Safari/537.36",Macintosh,Chrome,94.0.4606.61,"OS X",10_13_6,fe3c1d035a65c549f7011c5446f73ede
32,1,null,null,psychophysics,150,281487,0.0-3.0-1.72,"""",key,null,16.665999999999904,683,344.5,"""","""","""","""","""","""","""","""","2021-10-05 06:48:25",99.244.207.252,"Mozilla/5.0 (Macintosh; Intel Mac OS X 10_13_6) AppleWebKit/537.36 (KHTML, like Gecko) Chrome/94.0.4606.61 Safari/537.36",Macintosh,Chrome,94.0.4606.61,"OS X",10_13_6,fe3c1d035a65c549f7011c5446f73ede
32,1,263.20000000298023,arrowleft,psychophysics,151,281756,0.0-3.0-0.73,"""",key,arrowleft,16.66599999999938,683,344.5,74,3,1,26,35,25,35,false,"2021-10-05 06:48:25",99.244.207.252,"Mozilla/5.0 (Macintosh; Intel Mac OS X 10_13_6) AppleWebKit/537.36 (KHTML, like Gecko) Chrome/94.0.4606.61 Safari/537.36",Macintosh,Chrome,94.0.4606.61,"OS X",10_13_6,fe3c1d035a65c549f7011c5446f73ede
32,1,null,null,psychophysics,152,282760,0.0-3.0-1.73,"""",key,null,16.665999999999904,683,344.5,"""","""","""","""","""","""","""","""","2021-10-05 06:48:25",99.244.207.252,"Mozilla/5.0 (Macintosh; Intel Mac OS X 10_13_6) AppleWebKit/537.36 (KHTML, like Gecko) Chrome/94.0.4606.61 Safari/537.36",Macintosh,Chrome,94.0.4606.61,"OS X",10_13_6,fe3c1d035a65c549f7011c5446f73ede
32,1,295.30000000447035,arrowright,psychophysics,153,283066,0.0-3.0-0.74,"""",key,arrowright,16.666000000000672,683,344.5,75,3,-1,30,35,25,35,false,"2021-10-05 06:48:25",99.244.207.252,"Mozilla/5.0 (Macintosh; Intel Mac OS X 10_13_6) AppleWebKit/537.36 (KHTML, like Gecko) Chrome/94.0.4606.61 Safari/537.36",Macintosh,Chrome,94.0.4606.61,"OS X",10_13_6,fe3c1d035a65c549f7011c5446f73ede
32,1,null,null,psychophysics,154,284070,0.0-3.0-1.74,"""",key,null,16.665999999999904,683,344.5,"""","""","""","""","""","""","""","""","2021-10-05 06:48:25",99.244.207.252,"Mozilla/5.0 (Macintosh; Intel Mac OS X 10_13_6) AppleWebKit/537.36 (KHTML, like Gecko) Chrome/94.0.4606.61 Safari/537.36",Macintosh,Chrome,94.0.4606.61,"OS X",10_13_6,fe3c1d035a65c549f7011c5446f73ede
32,1,557.8999999985099,arrowright,psychophysics,155,284635,0.0-3.0-0.75,"""",key,arrowright,16.666000000000086,683,344.5,76,3,-1,20,15,25,35,false,"2021-10-05 06:48:25",99.244.207.252,"Mozilla/5.0 (Macintosh; Intel Mac OS X 10_13_6) AppleWebKit/537.36 (KHTML, like Gecko) Chrome/94.0.4606.61 Safari/537.36",Macintosh,Chrome,94.0.4606.61,"OS X",10_13_6,fe3c1d035a65c549f7011c5446f73ede
32,1,null,null,psychophysics,156,285637,0.0-3.0-1.75,"""",key,null,16.665999999999904,683,344.5,"""","""","""","""","""","""","""","""","2021-10-05 06:48:25",99.244.207.252,"Mozilla/5.0 (Macintosh; Intel Mac OS X 10_13_6) AppleWebKit/537.36 (KHTML, like Gecko) Chrome/94.0.4606.61 Safari/537.36",Macintosh,Chrome,94.0.4606.61,"OS X",10_13_6,fe3c1d035a65c549f7011c5446f73ede
32,1,644,arrowleft,psychophysics,157,286287,0.0-3.0-0.76,"""",key,arrowleft,16.6660000000005,683,344.5,77,3,-1,27,15,25,35,true,"2021-10-05 06:48:25",99.244.207.252,"Mozilla/5.0 (Macintosh; Intel Mac OS X 10_13_6) AppleWebKit/537.36 (KHTML, like Gecko) Chrome/94.0.4606.61 Safari/537.36",Macintosh,Chrome,94.0.4606.61,"OS X",10_13_6,fe3c1d035a65c549f7011c5446f73ede
32,1,null,null,psychophysics,158,287303,0.0-3.0-1.76,"""",key,null,16.66600000000035,683,344.5,"""","""","""","""","""","""","""","""","2021-10-05 06:48:25",99.244.207.252,"Mozilla/5.0 (Macintosh; Intel Mac OS X 10_13_6) AppleWebKit/537.36 (KHTML, like Gecko) Chrome/94.0.4606.61 Safari/537.36",Macintosh,Chrome,94.0.4606.61,"OS X",10_13_6,fe3c1d035a65c549f7011c5446f73ede
32,1,512.6000000014901,arrowleft,psychophysics,159,287822,0.0-3.0-0.77,"""",key,arrowleft,16.66599999999938,683,344.5,78,3,1,20,15,25,35,false,"2021-10-05 06:48:25",99.244.207.252,"Mozilla/5.0 (Macintosh; Intel Mac OS X 10_13_6) AppleWebKit/537.36 (KHTML, like Gecko) Chrome/94.0.4606.61 Safari/537.36",Macintosh,Chrome,94.0.4606.61,"OS X",10_13_6,fe3c1d035a65c549f7011c5446f73ede
32,1,null,null,psychophysics,160,288826,0.0-3.0-1.77,"""",key,null,16.665999999999904,683,344.5,"""","""","""","""","""","""","""","""","2021-10-05 06:48:25",99.244.207.252,"Mozilla/5.0 (Macintosh; Intel Mac OS X 10_13_6) AppleWebKit/537.36 (KHTML, like Gecko) Chrome/94.0.4606.61 Safari/537.36",Macintosh,Chrome,94.0.4606.61,"OS X",10_13_6,fe3c1d035a65c549f7011c5446f73ede
32,1,283.6000000014901,arrowright,psychophysics,161,289120,0.0-3.0-0.78,"""",key,arrowright,16.66599999999915,683,344.5,79,3,-1,23,35,25,35,false,"2021-10-05 06:48:25",99.244.207.252,"Mozilla/5.0 (Macintosh; Intel Mac OS X 10_13_6) AppleWebKit/537.36 (KHTML, like Gecko) Chrome/94.0.4606.61 Safari/537.36",Macintosh,Chrome,94.0.4606.61,"OS X",10_13_6,fe3c1d035a65c549f7011c5446f73ede
32,1,null,null,psychophysics,162,290123,0.0-3.0-1.78,"""",key,null,16.665999999999904,683,344.5,"""","""","""","""","""","""","""","""","2021-10-05 06:48:25",99.244.207.252,"Mozilla/5.0 (Macintosh; Intel Mac OS X 10_13_6) AppleWebKit/537.36 (KHTML, like Gecko) Chrome/94.0.4606.61 Safari/537.36",Macintosh,Chrome,94.0.4606.61,"OS X",10_13_6,fe3c1d035a65c549f7011c5446f73ede
32,1,287.09999999403954,arrowleft,psychophysics,163,290424,0.0-3.0-0.79,"""",key,arrowleft,16.666000000002576,683,344.5,80,3,-1,24,15,25,35,true,"2021-10-05 06:48:25",99.244.207.252,"Mozilla/5.0 (Macintosh; Intel Mac OS X 10_13_6) AppleWebKit/537.36 (KHTML, like Gecko) Chrome/94.0.4606.61 Safari/537.36",Macintosh,Chrome,94.0.4606.61,"OS X",10_13_6,fe3c1d035a65c549f7011c5446f73ede
32,1,null,null,psychophysics,164,291427,0.0-3.0-1.79,"""",key,null,16.665999999999904,683,344.5,"""","""","""","""","""","""","""","""","2021-10-05 06:48:25",99.244.207.252,"Mozilla/5.0 (Macintosh; Intel Mac OS X 10_13_6) AppleWebKit/537.36 (KHTML, like Gecko) Chrome/94.0.4606.61 Safari/537.36",Macintosh,Chrome,94.0.4606.61,"OS X",10_13_6,fe3c1d035a65c549f7011c5446f73ede
32,1,478.6000000014901,arrowright,psychophysics,165,292041,0.0-3.0-0.80,"""",key,arrowright,21.427714285713073,683,344.5,81,3,-1,27,15,25,35,false,"2021-10-05 06:48:25",99.244.207.252,"Mozilla/5.0 (Macintosh; Intel Mac OS X 10_13_6) AppleWebKit/537.36 (KHTML, like Gecko) Chrome/94.0.4606.61 Safari/537.36",Macintosh,Chrome,94.0.4606.61,"OS X",10_13_6,fe3c1d035a65c549f7011c5446f73ede
32,1,null,null,psychophysics,166,293071,0.0-3.0-1.80,"""",key,null,16.665999999999823,683,344.5,"""","""","""","""","""","""","""","""","2021-10-05 06:48:25",99.244.207.252,"Mozilla/5.0 (Macintosh; Intel Mac OS X 10_13_6) AppleWebKit/537.36 (KHTML, like Gecko) Chrome/94.0.4606.61 Safari/537.36",Macintosh,Chrome,94.0.4606.61,"OS X",10_13_6,fe3c1d035a65c549f7011c5446f73ede
32,1,718.5999999940395,arrowright,psychophysics,167,293805,0.0-3.0-0.81,"""",key,arrowright,16.66599999999947,683,344.5,82,3,1,24,15,25,35,true,"2021-10-05 06:48:25",99.244.207.252,"Mozilla/5.0 (Macintosh; Intel Mac OS X 10_13_6) AppleWebKit/537.36 (KHTML, like Gecko) Chrome/94.0.4606.61 Safari/537.36",Macintosh,Chrome,94.0.4606.61,"OS X",10_13_6,fe3c1d035a65c549f7011c5446f73ede
32,1,null,null,psychophysics,168,294807,0.0-3.0-1.81,"""",key,null,16.665999999999904,683,344.5,"""","""","""","""","""","""","""","""","2021-10-05 06:48:25",99.244.207.252,"Mozilla/5.0 (Macintosh; Intel Mac OS X 10_13_6) AppleWebKit/537.36 (KHTML, like Gecko) Chrome/94.0.4606.61 Safari/537.36",Macintosh,Chrome,94.0.4606.61,"OS X",10_13_6,fe3c1d035a65c549f7011c5446f73ede
32,1,584.1999999955297,arrowleft,psychophysics,169,295402,0.0-3.0-0.82,"""",key,arrowleft,16.665999999999933,683,344.5,83,3,1,23,35,25,35,false,"2021-10-05 06:48:25",99.244.207.252,"Mozilla/5.0 (Macintosh; Intel Mac OS X 10_13_6) AppleWebKit/537.36 (KHTML, like Gecko) Chrome/94.0.4606.61 Safari/537.36",Macintosh,Chrome,94.0.4606.61,"OS X",10_13_6,fe3c1d035a65c549f7011c5446f73ede
32,1,null,null,psychophysics,170,296406,0.0-3.0-1.82,"""",key,null,21.850977777777654,683,344.5,"""","""","""","""","""","""","""","""","2021-10-05 06:48:25",99.244.207.252,"Mozilla/5.0 (Macintosh; Intel Mac OS X 10_13_6) AppleWebKit/537.36 (KHTML, like Gecko) Chrome/94.0.4606.61 Safari/537.36",Macintosh,Chrome,94.0.4606.61,"OS X",10_13_6,fe3c1d035a65c549f7011c5446f73ede
32,1,589.2999999970198,arrowright,psychophysics,171,297003,0.0-3.0-0.83,"""",key,arrowright,16.665999999999933,683,344.5,84,4,1,25,35,25,35,true,"2021-10-05 06:48:25",99.244.207.252,"Mozilla/5.0 (Macintosh; Intel Mac OS X 10_13_6) AppleWebKit/537.36 (KHTML, like Gecko) Chrome/94.0.4606.61 Safari/537.36",Macintosh,Chrome,94.0.4606.61,"OS X",10_13_6,fe3c1d035a65c549f7011c5446f73ede
32,1,null,null,psychophysics,172,298007,0.0-3.0-1.83,"""",key,null,16.671118644068127,683,344.5,"""","""","""","""","""","""","""","""","2021-10-05 06:48:25",99.244.207.252,"Mozilla/5.0 (Macintosh; Intel Mac OS X 10_13_6) AppleWebKit/537.36 (KHTML, like Gecko) Chrome/94.0.4606.61 Safari/537.36",Macintosh,Chrome,94.0.4606.61,"OS X",10_13_6,fe3c1d035a65c549f7011c5446f73ede
32,1,1378.3999999985099," ",html-keyboard-response,173,299417,0.0-3.0-2.83-0.83,"<div style=""color: white; text-align: center; vertical-align: top; display: inline-block; width: 800px; margin: auto""><p>You have completed 30% of the trials. You are on block 4 of 10. <br>Good job! Take a break if you need to.</p><p>Press any key to continue the experiment.</p></div>","""","""","""","""","""","""","""","""","""","""","""","""","""","2021-10-05 06:48:25",99.244.207.252,"Mozilla/5.0 (Macintosh; Intel Mac OS X 10_13_6) AppleWebKit/537.36 (KHTML, like Gecko) Chrome/94.0.4606.61 Safari/537.36",Macintosh,Chrome,94.0.4606.61,"OS X",10_13_6,fe3c1d035a65c549f7011c5446f73ede
32,1,690,arrowleft,psychophysics,174,301121,0.0-3.0-0.84,"""",key,arrowleft,16.66600000000021,683,344.5,85,4,1,23,15,25,35,false,"2021-10-05 06:48:25",99.244.207.252,"Mozilla/5.0 (Macintosh; Intel Mac OS X 10_13_6) AppleWebKit/537.36 (KHTML, like Gecko) Chrome/94.0.4606.61 Safari/537.36",Macintosh,Chrome,94.0.4606.61,"OS X",10_13_6,fe3c1d035a65c549f7011c5446f73ede
32,1,null,null,psychophysics,175,302125,0.0-3.0-1.84,"""",key,null,16.665999999999904,683,344.5,"""","""","""","""","""","""","""","""","2021-10-05 06:48:25",99.244.207.252,"Mozilla/5.0 (Macintosh; Intel Mac OS X 10_13_6) AppleWebKit/537.36 (KHTML, like Gecko) Chrome/94.0.4606.61 Safari/537.36",Macintosh,Chrome,94.0.4606.61,"OS X",10_13_6,fe3c1d035a65c549f7011c5446f73ede
32,1,681.1000000014901,arrowright,psychophysics,176,302812,0.0-3.0-0.85,"""",key,arrowright,16.665999999998895,683,344.5,86,4,1,27,35,25,35,true,"2021-10-05 06:48:25",99.244.207.252,"Mozilla/5.0 (Macintosh; Intel Mac OS X 10_13_6) AppleWebKit/537.36 (KHTML, like Gecko) Chrome/94.0.4606.61 Safari/537.36",Macintosh,Chrome,94.0.4606.61,"OS X",10_13_6,fe3c1d035a65c549f7011c5446f73ede
32,1,null,null,psychophysics,177,303817,0.0-3.0-1.85,"""",key,null,16.66600000000035,683,344.5,"""","""","""","""","""","""","""","""","2021-10-05 06:48:25",99.244.207.252,"Mozilla/5.0 (Macintosh; Intel Mac OS X 10_13_6) AppleWebKit/537.36 (KHTML, like Gecko) Chrome/94.0.4606.61 Safari/537.36",Macintosh,Chrome,94.0.4606.61,"OS X",10_13_6,fe3c1d035a65c549f7011c5446f73ede
32,1,2348.8000000044703,arrowleft,psychophysics,178,306187,0.0-3.0-0.86,"""",key,arrowleft,16.66600000000012,683,344.5,87,4,-1,30,15,25,35,true,"2021-10-05 06:48:25",99.244.207.252,"Mozilla/5.0 (Macintosh; Intel Mac OS X 10_13_6) AppleWebKit/537.36 (KHTML, like Gecko) Chrome/94.0.4606.61 Safari/537.36",Macintosh,Chrome,94.0.4606.61,"OS X",10_13_6,fe3c1d035a65c549f7011c5446f73ede
32,1,null,null,psychophysics,179,307189,0.0-3.0-1.86,"""",key,null,16.666000000000892,683,344.5,"""","""","""","""","""","""","""","""","2021-10-05 06:48:25",99.244.207.252,"Mozilla/5.0 (Macintosh; Intel Mac OS X 10_13_6) AppleWebKit/537.36 (KHTML, like Gecko) Chrome/94.0.4606.61 Safari/537.36",Macintosh,Chrome,94.0.4606.61,"OS X",10_13_6,fe3c1d035a65c549f7011c5446f73ede
32,1,668.5,arrowleft,psychophysics,180,307863,0.0-3.0-0.87,"""",key,arrowleft,16.665999999999677,683,344.5,88,4,-1,24,15,25,35,true,"2021-10-05 06:48:25",99.244.207.252,"Mozilla/5.0 (Macintosh; Intel Mac OS X 10_13_6) AppleWebKit/537.36 (KHTML, like Gecko) Chrome/94.0.4606.61 Safari/537.36",Macintosh,Chrome,94.0.4606.61,"OS X",10_13_6,fe3c1d035a65c549f7011c5446f73ede
32,1,null,null,psychophysics,181,308867,0.0-3.0-1.87,"""",key,null,16.957271186440543,683,344.5,"""","""","""","""","""","""","""","""","2021-10-05 06:48:25",99.244.207.252,"Mozilla/5.0 (Macintosh; Intel Mac OS X 10_13_6) AppleWebKit/537.36 (KHTML, like Gecko) Chrome/94.0.4606.61 Safari/537.36",Macintosh,Chrome,94.0.4606.61,"OS X",10_13_6,fe3c1d035a65c549f7011c5446f73ede
32,1,1302.1999999955297,arrowleft,psychophysics,182,310173,0.0-3.0-0.88,"""",key,arrowleft,16.66599999999933,683,344.5,89,4,-1,30,15,25,35,true,"2021-10-05 06:48:25",99.244.207.252,"Mozilla/5.0 (Macintosh; Intel Mac OS X 10_13_6) AppleWebKit/537.36 (KHTML, like Gecko) Chrome/94.0.4606.61 Safari/537.36",Macintosh,Chrome,94.0.4606.61,"OS X",10_13_6,fe3c1d035a65c549f7011c5446f73ede
32,1,null,null,psychophysics,183,311187,0.0-3.0-1.88,"""",key,null,16.66600000000035,683,344.5,"""","""","""","""","""","""","""","""","2021-10-05 06:48:25",99.244.207.252,"Mozilla/5.0 (Macintosh; Intel Mac OS X 10_13_6) AppleWebKit/537.36 (KHTML, like Gecko) Chrome/94.0.4606.61 Safari/537.36",Macintosh,Chrome,94.0.4606.61,"OS X",10_13_6,fe3c1d035a65c549f7011c5446f73ede
32,1,467.79999999701977,arrowleft,psychophysics,184,311661,0.0-3.0-0.89,"""",key,arrowleft,16.666000000000672,683,344.5,90,4,1,23,15,25,35,false,"2021-10-05 06:48:25",99.244.207.252,"Mozilla/5.0 (Macintosh; Intel Mac OS X 10_13_6) AppleWebKit/537.36 (KHTML, like Gecko) Chrome/94.0.4606.61 Safari/537.36",Macintosh,Chrome,94.0.4606.61,"OS X",10_13_6,fe3c1d035a65c549f7011c5446f73ede
32,1,null,null,psychophysics,185,312664,0.0-3.0-1.89,"""",key,null,16.665999999999904,683,344.5,"""","""","""","""","""","""","""","""","2021-10-05 06:48:25",99.244.207.252,"Mozilla/5.0 (Macintosh; Intel Mac OS X 10_13_6) AppleWebKit/537.36 (KHTML, like Gecko) Chrome/94.0.4606.61 Safari/537.36",Macintosh,Chrome,94.0.4606.61,"OS X",10_13_6,fe3c1d035a65c549f7011c5446f73ede
32,1,565.6000000014901,arrowright,psychophysics,186,313241,0.0-3.0-0.90,"""",key,arrowright,16.666000000000864,683,344.5,91,4,1,27,35,25,35,true,"2021-10-05 06:48:25",99.244.207.252,"Mozilla/5.0 (Macintosh; Intel Mac OS X 10_13_6) AppleWebKit/537.36 (KHTML, like Gecko) Chrome/94.0.4606.61 Safari/537.36",Macintosh,Chrome,94.0.4606.61,"OS X",10_13_6,fe3c1d035a65c549f7011c5446f73ede
32,1,null,null,psychophysics,187,314246,0.0-3.0-1.90,"""",key,null,16.665999999999904,683,344.5,"""","""","""","""","""","""","""","""","2021-10-05 06:48:25",99.244.207.252,"Mozilla/5.0 (Macintosh; Intel Mac OS X 10_13_6) AppleWebKit/537.36 (KHTML, like Gecko) Chrome/94.0.4606.61 Safari/537.36",Macintosh,Chrome,94.0.4606.61,"OS X",10_13_6,fe3c1d035a65c549f7011c5446f73ede
32,1,552.8999999985099,arrowright,psychophysics,188,314811,0.0-3.0-0.91,"""",key,arrowright,16.666000000000086,683,344.5,92,4,1,30,35,25,35,true,"2021-10-05 06:48:25",99.244.207.252,"Mozilla/5.0 (Macintosh; Intel Mac OS X 10_13_6) AppleWebKit/537.36 (KHTML, like Gecko) Chrome/94.0.4606.61 Safari/537.36",Macintosh,Chrome,94.0.4606.61,"OS X",10_13_6,fe3c1d035a65c549f7011c5446f73ede
32,1,null,null,psychophysics,189,315814,0.0-3.0-1.91,"""",key,null,16.665999999999904,683,344.5,"""","""","""","""","""","""","""","""","2021-10-05 06:48:25",99.244.207.252,"Mozilla/5.0 (Macintosh; Intel Mac OS X 10_13_6) AppleWebKit/537.36 (KHTML, like Gecko) Chrome/94.0.4606.61 Safari/537.36",Macintosh,Chrome,94.0.4606.61,"OS X",10_13_6,fe3c1d035a65c549f7011c5446f73ede
32,1,549.2999999970198,arrowleft,psychophysics,190,316374,0.0-3.0-0.92,"""",key,arrowleft,16.666000000000086,683,344.5,93,4,1,26,35,25,35,false,"2021-10-05 06:48:25",99.244.207.252,"Mozilla/5.0 (Macintosh; Intel Mac OS X 10_13_6) AppleWebKit/537.36 (KHTML, like Gecko) Chrome/94.0.4606.61 Safari/537.36",Macintosh,Chrome,94.0.4606.61,"OS X",10_13_6,fe3c1d035a65c549f7011c5446f73ede
32,1,null,null,psychophysics,191,317379,0.0-3.0-1.92,"""",key,null,16.665999999999904,683,344.5,"""","""","""","""","""","""","""","""","2021-10-05 06:48:25",99.244.207.252,"Mozilla/5.0 (Macintosh; Intel Mac OS X 10_13_6) AppleWebKit/537.36 (KHTML, like Gecko) Chrome/94.0.4606.61 Safari/537.36",Macintosh,Chrome,94.0.4606.61,"OS X",10_13_6,fe3c1d035a65c549f7011c5446f73ede
32,1,629.7999999970198,arrowright,psychophysics,192,318037,0.0-3.0-0.93,"""",key,arrowright,16.67587179487171,683,344.5,94,4,1,26,35,25,35,true,"2021-10-05 06:48:25",99.244.207.252,"Mozilla/5.0 (Macintosh; Intel Mac OS X 10_13_6) AppleWebKit/537.36 (KHTML, like Gecko) Chrome/94.0.4606.61 Safari/537.36",Macintosh,Chrome,94.0.4606.61,"OS X",10_13_6,fe3c1d035a65c549f7011c5446f73ede
32,1,null,null,psychophysics,193,319040,0.0-3.0-1.93,"""",key,null,16.665999999999904,683,344.5,"""","""","""","""","""","""","""","""","2021-10-05 06:48:25",99.244.207.252,"Mozilla/5.0 (Macintosh; Intel Mac OS X 10_13_6) AppleWebKit/537.36 (KHTML, like Gecko) Chrome/94.0.4606.61 Safari/537.36",Macintosh,Chrome,94.0.4606.61,"OS X",10_13_6,fe3c1d035a65c549f7011c5446f73ede
32,1,338.6000000014901,arrowleft,psychophysics,194,319385,0.0-3.0-0.94,"""",key,arrowleft,16.66600000000035,683,344.5,95,4,1,30,35,25,35,false,"2021-10-05 06:48:25",99.244.207.252,"Mozilla/5.0 (Macintosh; Intel Mac OS X 10_13_6) AppleWebKit/537.36 (KHTML, like Gecko) Chrome/94.0.4606.61 Safari/537.36",Macintosh,Chrome,94.0.4606.61,"OS X",10_13_6,fe3c1d035a65c549f7011c5446f73ede
32,1,null,null,psychophysics,195,320402,0.0-3.0-1.94,"""",key,null,16.66599999999938,683,344.5,"""","""","""","""","""","""","""","""","2021-10-05 06:48:25",99.244.207.252,"Mozilla/5.0 (Macintosh; Intel Mac OS X 10_13_6) AppleWebKit/537.36 (KHTML, like Gecko) Chrome/94.0.4606.61 Safari/537.36",Macintosh,Chrome,94.0.4606.61,"OS X",10_13_6,fe3c1d035a65c549f7011c5446f73ede
32,1,66.5,arrowright,psychophysics,196,320472,0.0-3.0-0.95,"""",key,arrowright,16.665999999987736,683,344.5,96,4,-1,20,15,25,35,false,"2021-10-05 06:48:25",99.244.207.252,"Mozilla/5.0 (Macintosh; Intel Mac OS X 10_13_6) AppleWebKit/537.36 (KHTML, like Gecko) Chrome/94.0.4606.61 Safari/537.36",Macintosh,Chrome,94.0.4606.61,"OS X",10_13_6,fe3c1d035a65c549f7011c5446f73ede
32,1,null,null,psychophysics,197,321477,0.0-3.0-1.95,"""",key,null,16.665999999999904,683,344.5,"""","""","""","""","""","""","""","""","2021-10-05 06:48:25",99.244.207.252,"Mozilla/5.0 (Macintosh; Intel Mac OS X 10_13_6) AppleWebKit/537.36 (KHTML, like Gecko) Chrome/94.0.4606.61 Safari/537.36",Macintosh,Chrome,94.0.4606.61,"OS X",10_13_6,fe3c1d035a65c549f7011c5446f73ede
32,1,520.8999999985099,arrowright,psychophysics,198,322008,0.0-3.0-0.96,"""",key,arrowright,16.665999999998377,683,344.5,97,4,-1,24,35,25,35,false,"2021-10-05 06:48:25",99.244.207.252,"Mozilla/5.0 (Macintosh; Intel Mac OS X 10_13_6) AppleWebKit/537.36 (KHTML, like Gecko) Chrome/94.0.4606.61 Safari/537.36",Macintosh,Chrome,94.0.4606.61,"OS X",10_13_6,fe3c1d035a65c549f7011c5446f73ede
32,1,null,null,psychophysics,199,323013,0.0-3.0-1.96,"""",key,null,16.665999999999904,683,344.5,"""","""","""","""","""","""","""","""","2021-10-05 06:48:25",99.244.207.252,"Mozilla/5.0 (Macintosh; Intel Mac OS X 10_13_6) AppleWebKit/537.36 (KHTML, like Gecko) Chrome/94.0.4606.61 Safari/537.36",Macintosh,Chrome,94.0.4606.61,"OS X",10_13_6,fe3c1d035a65c549f7011c5446f73ede
32,1,247.39999999850988,arrowright,psychophysics,200,323285,0.0-3.0-0.97,"""",key,arrowright,16.66599999999744,683,344.5,98,4,-1,23,35,25,35,false,"2021-10-05 06:48:25",99.244.207.252,"Mozilla/5.0 (Macintosh; Intel Mac OS X 10_13_6) AppleWebKit/537.36 (KHTML, like Gecko) Chrome/94.0.4606.61 Safari/537.36",Macintosh,Chrome,94.0.4606.61,"OS X",10_13_6,fe3c1d035a65c549f7011c5446f73ede
32,1,null,null,psychophysics,201,324288,0.0-3.0-1.97,"""",key,null,16.665999999999904,683,344.5,"""","""","""","""","""","""","""","""","2021-10-05 06:48:25",99.244.207.252,"Mozilla/5.0 (Macintosh; Intel Mac OS X 10_13_6) AppleWebKit/537.36 (KHTML, like Gecko) Chrome/94.0.4606.61 Safari/537.36",Macintosh,Chrome,94.0.4606.61,"OS X",10_13_6,fe3c1d035a65c549f7011c5446f73ede
32,1,243.60000000149012,arrowright,psychophysics,202,324537,0.0-3.0-0.98,"""",key,arrowright,16.66599999999744,683,344.5,99,4,1,26,35,25,35,true,"2021-10-05 06:48:25",99.244.207.252,"Mozilla/5.0 (Macintosh; Intel Mac OS X 10_13_6) AppleWebKit/537.36 (KHTML, like Gecko) Chrome/94.0.4606.61 Safari/537.36",Macintosh,Chrome,94.0.4606.61,"OS X",10_13_6,fe3c1d035a65c549f7011c5446f73ede
32,1,null,null,psychophysics,203,325542,0.0-3.0-1.98,"""",key,null,16.665999999999904,683,344.5,"""","""","""","""","""","""","""","""","2021-10-05 06:48:25",99.244.207.252,"Mozilla/5.0 (Macintosh; Intel Mac OS X 10_13_6) AppleWebKit/537.36 (KHTML, like Gecko) Chrome/94.0.4606.61 Safari/537.36",Macintosh,Chrome,94.0.4606.61,"OS X",10_13_6,fe3c1d035a65c549f7011c5446f73ede
32,1,184.10000000149012,arrowright,psychophysics,204,325737,0.0-3.0-0.99,"""",key,arrowright,16.666000000000086,683,344.5,100,4,-1,24,35,25,35,false,"2021-10-05 06:48:25",99.244.207.252,"Mozilla/5.0 (Macintosh; Intel Mac OS X 10_13_6) AppleWebKit/537.36 (KHTML, like Gecko) Chrome/94.0.4606.61 Safari/537.36",Macintosh,Chrome,94.0.4606.61,"OS X",10_13_6,fe3c1d035a65c549f7011c5446f73ede
32,1,null,null,psychophysics,205,326741,0.0-3.0-1.99,"""",key,null,16.665999999999904,683,344.5,"""","""","""","""","""","""","""","""","2021-10-05 06:48:25",99.244.207.252,"Mozilla/5.0 (Macintosh; Intel Mac OS X 10_13_6) AppleWebKit/537.36 (KHTML, like Gecko) Chrome/94.0.4606.61 Safari/537.36",Macintosh,Chrome,94.0.4606.61,"OS X",10_13_6,fe3c1d035a65c549f7011c5446f73ede
32,1,228.80000000447035,arrowright,psychophysics,206,326975,0.0-3.0-0.100,"""",key,arrowright,16.665999999999677,683,344.5,101,4,1,25,35,25,35,true,"2021-10-05 06:48:25",99.244.207.252,"Mozilla/5.0 (Macintosh; Intel Mac OS X 10_13_6) AppleWebKit/537.36 (KHTML, like Gecko) Chrome/94.0.4606.61 Safari/537.36",Macintosh,Chrome,94.0.4606.61,"OS X",10_13_6,fe3c1d035a65c549f7011c5446f73ede
32,1,null,null,psychophysics,207,327980,0.0-3.0-1.100,"""",key,null,16.673220338983565,683,344.5,"""","""","""","""","""","""","""","""","2021-10-05 06:48:25",99.244.207.252,"Mozilla/5.0 (Macintosh; Intel Mac OS X 10_13_6) AppleWebKit/537.36 (KHTML, like Gecko) Chrome/94.0.4606.61 Safari/537.36",Macintosh,Chrome,94.0.4606.61,"OS X",10_13_6,fe3c1d035a65c549f7011c5446f73ede
32,1,149,arrowright,psychophysics,208,328140,0.0-3.0-0.101,"""",key,arrowright,16.666000000000672,683,344.5,102,4,-1,25,15,25,35,false,"2021-10-05 06:48:25",99.244.207.252,"Mozilla/5.0 (Macintosh; Intel Mac OS X 10_13_6) AppleWebKit/537.36 (KHTML, like Gecko) Chrome/94.0.4606.61 Safari/537.36",Macintosh,Chrome,94.0.4606.61,"OS X",10_13_6,fe3c1d035a65c549f7011c5446f73ede
32,1,null,null,psychophysics,209,329148,0.0-3.0-1.101,"""",key,null,18.209148148148046,683,344.5,"""","""","""","""","""","""","""","""","2021-10-05 06:48:25",99.244.207.252,"Mozilla/5.0 (Macintosh; Intel Mac OS X 10_13_6) AppleWebKit/537.36 (KHTML, like Gecko) Chrome/94.0.4606.61 Safari/537.36",Macintosh,Chrome,94.0.4606.61,"OS X",10_13_6,fe3c1d035a65c549f7011c5446f73ede
32,1,528.5,arrowleft,psychophysics,210,329704,0.0-3.0-0.102,"""",key,arrowleft,16.666000000000086,683,344.5,103,4,1,20,15,25,35,false,"2021-10-05 06:48:25",99.244.207.252,"Mozilla/5.0 (Macintosh; Intel Mac OS X 10_13_6) AppleWebKit/537.36 (KHTML, like Gecko) Chrome/94.0.4606.61 Safari/537.36",Macintosh,Chrome,94.0.4606.61,"OS X",10_13_6,fe3c1d035a65c549f7011c5446f73ede
32,1,null,null,psychophysics,211,330707,0.0-3.0-1.102,"""",key,null,16.665999999999904,683,344.5,"""","""","""","""","""","""","""","""","2021-10-05 06:48:25",99.244.207.252,"Mozilla/5.0 (Macintosh; Intel Mac OS X 10_13_6) AppleWebKit/537.36 (KHTML, like Gecko) Chrome/94.0.4606.61 Safari/537.36",Macintosh,Chrome,94.0.4606.61,"OS X",10_13_6,fe3c1d035a65c549f7011c5446f73ede
32,1,524.7999999970198,arrowright,psychophysics,212,331238,0.0-3.0-0.103,"""",key,arrowright,16.666000000000256,683,344.5,104,4,1,30,15,25,35,true,"2021-10-05 06:48:25",99.244.207.252,"Mozilla/5.0 (Macintosh; Intel Mac OS X 10_13_6) AppleWebKit/537.36 (KHTML, like Gecko) Chrome/94.0.4606.61 Safari/537.36",Macintosh,Chrome,94.0.4606.61,"OS X",10_13_6,fe3c1d035a65c549f7011c5446f73ede
32,1,null,null,psychophysics,213,332242,0.0-3.0-1.103,"""",key,null,16.665999999999904,683,344.5,"""","""","""","""","""","""","""","""","2021-10-05 06:48:25",99.244.207.252,"Mozilla/5.0 (Macintosh; Intel Mac OS X 10_13_6) AppleWebKit/537.36 (KHTML, like Gecko) Chrome/94.0.4606.61 Safari/537.36",Macintosh,Chrome,94.0.4606.61,"OS X",10_13_6,fe3c1d035a65c549f7011c5446f73ede
32,1,1300.3000000044703,arrowleft,psychophysics,214,333553,0.0-3.0-0.104,"""",key,arrowleft,16.666000000000423,683,344.5,105,4,1,23,15,25,35,false,"2021-10-05 06:48:25",99.244.207.252,"Mozilla/5.0 (Macintosh; Intel Mac OS X 10_13_6) AppleWebKit/537.36 (KHTML, like Gecko) Chrome/94.0.4606.61 Safari/537.36",Macintosh,Chrome,94.0.4606.61,"OS X",10_13_6,fe3c1d035a65c549f7011c5446f73ede
32,1,null,null,psychophysics,215,334556,0.0-3.0-1.104,"""",key,null,16.666000000000892,683,344.5,"""","""","""","""","""","""","""","""","2021-10-05 06:48:25",99.244.207.252,"Mozilla/5.0 (Macintosh; Intel Mac OS X 10_13_6) AppleWebKit/537.36 (KHTML, like Gecko) Chrome/94.0.4606.61 Safari/537.36",Macintosh,Chrome,94.0.4606.61,"OS X",10_13_6,fe3c1d035a65c549f7011c5446f73ede
32,1,611.8999999985099,arrowleft,psychophysics,216,335173,0.0-3.0-0.105,"""",key,arrowleft,16.666000000000672,683,344.5,106,4,-1,30,35,25,35,true,"2021-10-05 06:48:25",99.244.207.252,"Mozilla/5.0 (Macintosh; Intel Mac OS X 10_13_6) AppleWebKit/537.36 (KHTML, like Gecko) Chrome/94.0.4606.61 Safari/537.36",Macintosh,Chrome,94.0.4606.61,"OS X",10_13_6,fe3c1d035a65c549f7011c5446f73ede
32,1,null,null,psychophysics,217,336192,0.0-3.0-1.105,"""",key,null,16.66600000000035,683,344.5,"""","""","""","""","""","""","""","""","2021-10-05 06:48:25",99.244.207.252,"Mozilla/5.0 (Macintosh; Intel Mac OS X 10_13_6) AppleWebKit/537.36 (KHTML, like Gecko) Chrome/94.0.4606.61 Safari/537.36",Macintosh,Chrome,94.0.4606.61,"OS X",10_13_6,fe3c1d035a65c549f7011c5446f73ede
32,1,504.69999999552965,arrowright,psychophysics,218,336703,0.0-3.0-0.106,"""",key,arrowright,16.66600000000132,683,344.5,107,4,1,30,15,25,35,true,"2021-10-05 06:48:25",99.244.207.252,"Mozilla/5.0 (Macintosh; Intel Mac OS X 10_13_6) AppleWebKit/537.36 (KHTML, like Gecko) Chrome/94.0.4606.61 Safari/537.36",Macintosh,Chrome,94.0.4606.61,"OS X",10_13_6,fe3c1d035a65c549f7011c5446f73ede
32,1,null,null,psychophysics,219,337708,0.0-3.0-1.106,"""",key,null,16.665999999999904,683,344.5,"""","""","""","""","""","""","""","""","2021-10-05 06:48:25",99.244.207.252,"Mozilla/5.0 (Macintosh; Intel Mac OS X 10_13_6) AppleWebKit/537.36 (KHTML, like Gecko) Chrome/94.0.4606.61 Safari/537.36",Macintosh,Chrome,94.0.4606.61,"OS X",10_13_6,fe3c1d035a65c549f7011c5446f73ede
32,1,712.5,arrowright,psychophysics,220,338432,0.0-3.0-0.107,"""",key,arrowright,16.67483333333318,683,344.5,108,4,-1,20,35,25,35,false,"2021-10-05 06:48:25",99.244.207.252,"Mozilla/5.0 (Macintosh; Intel Mac OS X 10_13_6) AppleWebKit/537.36 (KHTML, like Gecko) Chrome/94.0.4606.61 Safari/537.36",Macintosh,Chrome,94.0.4606.61,"OS X",10_13_6,fe3c1d035a65c549f7011c5446f73ede
32,1,null,null,psychophysics,221,339436,0.0-3.0-1.107,"""",key,null,16.66599999999938,683,344.5,"""","""","""","""","""","""","""","""","2021-10-05 06:48:25",99.244.207.252,"Mozilla/5.0 (Macintosh; Intel Mac OS X 10_13_6) AppleWebKit/537.36 (KHTML, like Gecko) Chrome/94.0.4606.61 Safari/537.36",Macintosh,Chrome,94.0.4606.61,"OS X",10_13_6,fe3c1d035a65c549f7011c5446f73ede
32,1,532.2999999970198,arrowright,psychophysics,222,339974,0.0-3.0-0.108,"""",key,arrowright,16.666000000000256,683,344.5,109,4,-1,23,15,25,35,false,"2021-10-05 06:48:25",99.244.207.252,"Mozilla/5.0 (Macintosh; Intel Mac OS X 10_13_6) AppleWebKit/537.36 (KHTML, like Gecko) Chrome/94.0.4606.61 Safari/537.36",Macintosh,Chrome,94.0.4606.61,"OS X",10_13_6,fe3c1d035a65c549f7011c5446f73ede
32,1,null,null,psychophysics,223,340979,0.0-3.0-1.108,"""",key,null,16.665999999999904,683,344.5,"""","""","""","""","""","""","""","""","2021-10-05 06:48:25",99.244.207.252,"Mozilla/5.0 (Macintosh; Intel Mac OS X 10_13_6) AppleWebKit/537.36 (KHTML, like Gecko) Chrome/94.0.4606.61 Safari/537.36",Macintosh,Chrome,94.0.4606.61,"OS X",10_13_6,fe3c1d035a65c549f7011c5446f73ede
32,1,534.2999999970198,arrowright,psychophysics,224,341525,0.0-3.0-0.109,"""",key,arrowright,16.665999999999258,683,344.5,110,4,-1,20,35,25,35,false,"2021-10-05 06:48:25",99.244.207.252,"Mozilla/5.0 (Macintosh; Intel Mac OS X 10_13_6) AppleWebKit/537.36 (KHTML, like Gecko) Chrome/94.0.4606.61 Safari/537.36",Macintosh,Chrome,94.0.4606.61,"OS X",10_13_6,fe3c1d035a65c549f7011c5446f73ede
32,1,null,null,psychophysics,225,342549,0.0-3.0-1.109,"""",key,null,16.66599999999938,683,344.5,"""","""","""","""","""","""","""","""","2021-10-05 06:48:25",99.244.207.252,"Mozilla/5.0 (Macintosh; Intel Mac OS X 10_13_6) AppleWebKit/537.36 (KHTML, like Gecko) Chrome/94.0.4606.61 Safari/537.36",Macintosh,Chrome,94.0.4606.61,"OS X",10_13_6,fe3c1d035a65c549f7011c5446f73ede
32,1,653.8999999985099,arrowright,psychophysics,226,343230,0.0-3.0-0.110,"""",key,arrowright,16.66600000000035,683,344.5,111,4,1,27,15,25,35,true,"2021-10-05 06:48:25",99.244.207.252,"Mozilla/5.0 (Macintosh; Intel Mac OS X 10_13_6) AppleWebKit/537.36 (KHTML, like Gecko) Chrome/94.0.4606.61 Safari/537.36",Macintosh,Chrome,94.0.4606.61,"OS X",10_13_6,fe3c1d035a65c549f7011c5446f73ede
32,1,null,null,psychophysics,227,344234,0.0-3.0-1.110,"""",key,null,16.66600000000035,683,344.5,"""","""","""","""","""","""","""","""","2021-10-05 06:48:25",99.244.207.252,"Mozilla/5.0 (Macintosh; Intel Mac OS X 10_13_6) AppleWebKit/537.36 (KHTML, like Gecko) Chrome/94.0.4606.61 Safari/537.36",Macintosh,Chrome,94.0.4606.61,"OS X",10_13_6,fe3c1d035a65c549f7011c5446f73ede
32,1,397.20000000298023,arrowright,psychophysics,228,344637,0.0-3.0-0.111,"""",key,arrowright,16.666000000001237,683,344.5,112,5,-1,26,15,25,35,false,"2021-10-05 06:48:25",99.244.207.252,"Mozilla/5.0 (Macintosh; Intel Mac OS X 10_13_6) AppleWebKit/537.36 (KHTML, like Gecko) Chrome/94.0.4606.61 Safari/537.36",Macintosh,Chrome,94.0.4606.61,"OS X",10_13_6,fe3c1d035a65c549f7011c5446f73ede
32,1,null,null,psychophysics,229,345640,0.0-3.0-1.111,"""",key,null,16.666000000000892,683,344.5,"""","""","""","""","""","""","""","""","2021-10-05 06:48:25",99.244.207.252,"Mozilla/5.0 (Macintosh; Intel Mac OS X 10_13_6) AppleWebKit/537.36 (KHTML, like Gecko) Chrome/94.0.4606.61 Safari/537.36",Macintosh,Chrome,94.0.4606.61,"OS X",10_13_6,fe3c1d035a65c549f7011c5446f73ede
32,1,189.29999999701977,arrowright,html-keyboard-response,230,345833,0.0-3.0-2.111-0.111,"<div style=""color: white; text-align: center; vertical-align: top; display: inline-block; width: 800px; margin: auto""><p>You have completed 40% of the trials. You are on block 5 of 10. <br>Good job! Take a break if you need to.</p><p>Press any key to continue the experiment.</p></div>","""","""","""","""","""","""","""","""","""","""","""","""","""","2021-10-05 06:48:25",99.244.207.252,"Mozilla/5.0 (Macintosh; Intel Mac OS X 10_13_6) AppleWebKit/537.36 (KHTML, like Gecko) Chrome/94.0.4606.61 Safari/537.36",Macintosh,Chrome,94.0.4606.61,"OS X",10_13_6,fe3c1d035a65c549f7011c5446f73ede
32,1,520.5,arrowright,psychophysics,231,347362,0.0-3.0-0.112,"""",key,arrowright,16.666000000000256,683,344.5,113,5,-1,26,35,25,35,false,"2021-10-05 06:48:25",99.244.207.252,"Mozilla/5.0 (Macintosh; Intel Mac OS X 10_13_6) AppleWebKit/537.36 (KHTML, like Gecko) Chrome/94.0.4606.61 Safari/537.36",Macintosh,Chrome,94.0.4606.61,"OS X",10_13_6,fe3c1d035a65c549f7011c5446f73ede
32,1,null,null,psychophysics,232,348382,0.0-3.0-1.112,"""",key,null,16.672583333333023,683,344.5,"""","""","""","""","""","""","""","""","2021-10-05 06:48:25",99.244.207.252,"Mozilla/5.0 (Macintosh; Intel Mac OS X 10_13_6) AppleWebKit/537.36 (KHTML, like Gecko) Chrome/94.0.4606.61 Safari/537.36",Macintosh,Chrome,94.0.4606.61,"OS X",10_13_6,fe3c1d035a65c549f7011c5446f73ede
32,1,610.4000000059605,arrowright,psychophysics,233,349018,0.0-3.0-0.113,"""",key,arrowright,16.6660000000005,683,344.5,114,5,1,25,35,25,35,true,"2021-10-05 06:48:25",99.244.207.252,"Mozilla/5.0 (Macintosh; Intel Mac OS X 10_13_6) AppleWebKit/537.36 (KHTML, like Gecko) Chrome/94.0.4606.61 Safari/537.36",Macintosh,Chrome,94.0.4606.61,"OS X",10_13_6,fe3c1d035a65c549f7011c5446f73ede
32,1,null,null,psychophysics,234,350022,0.0-3.0-1.113,"""",key,null,16.665999999999904,683,344.5,"""","""","""","""","""","""","""","""","2021-10-05 06:48:25",99.244.207.252,"Mozilla/5.0 (Macintosh; Intel Mac OS X 10_13_6) AppleWebKit/537.36 (KHTML, like Gecko) Chrome/94.0.4606.61 Safari/537.36",Macintosh,Chrome,94.0.4606.61,"OS X",10_13_6,fe3c1d035a65c549f7011c5446f73ede
32,1,668.5,arrowleft,psychophysics,235,350696,0.0-3.0-0.114,"""",key,arrowleft,16.665999999999677,683,344.5,115,5,-1,30,15,25,35,true,"2021-10-05 06:48:25",99.244.207.252,"Mozilla/5.0 (Macintosh; Intel Mac OS X 10_13_6) AppleWebKit/537.36 (KHTML, like Gecko) Chrome/94.0.4606.61 Safari/537.36",Macintosh,Chrome,94.0.4606.61,"OS X",10_13_6,fe3c1d035a65c549f7011c5446f73ede
32,1,null,null,psychophysics,236,351699,0.0-3.0-1.114,"""",key,null,16.665999999999904,683,344.5,"""","""","""","""","""","""","""","""","2021-10-05 06:48:25",99.244.207.252,"Mozilla/5.0 (Macintosh; Intel Mac OS X 10_13_6) AppleWebKit/537.36 (KHTML, like Gecko) Chrome/94.0.4606.61 Safari/537.36",Macintosh,Chrome,94.0.4606.61,"OS X",10_13_6,fe3c1d035a65c549f7011c5446f73ede
32,1,461.79999999701977,arrowright,psychophysics,237,352171,0.0-3.0-0.115,"""",key,arrowright,16.665999999999517,683,344.5,116,5,1,30,15,25,35,true,"2021-10-05 06:48:25",99.244.207.252,"Mozilla/5.0 (Macintosh; Intel Mac OS X 10_13_6) AppleWebKit/537.36 (KHTML, like Gecko) Chrome/94.0.4606.61 Safari/537.36",Macintosh,Chrome,94.0.4606.61,"OS X",10_13_6,fe3c1d035a65c549f7011c5446f73ede
32,1,null,null,psychophysics,238,353175,0.0-3.0-1.115,"""",key,null,16.665999999999904,683,344.5,"""","""","""","""","""","""","""","""","2021-10-05 06:48:25",99.244.207.252,"Mozilla/5.0 (Macintosh; Intel Mac OS X 10_13_6) AppleWebKit/537.36 (KHTML, like Gecko) Chrome/94.0.4606.61 Safari/537.36",Macintosh,Chrome,94.0.4606.61,"OS X",10_13_6,fe3c1d035a65c549f7011c5446f73ede
32,1,549.3999999985099,arrowright,psychophysics,239,353753,0.0-3.0-0.116,"""",key,arrowright,16.66599999999915,683,344.5,117,5,-1,27,35,25,35,false,"2021-10-05 06:48:25",99.244.207.252,"Mozilla/5.0 (Macintosh; Intel Mac OS X 10_13_6) AppleWebKit/537.36 (KHTML, like Gecko) Chrome/94.0.4606.61 Safari/537.36",Macintosh,Chrome,94.0.4606.61,"OS X",10_13_6,fe3c1d035a65c549f7011c5446f73ede
32,1,null,null,psychophysics,240,354756,0.0-3.0-1.116,"""",key,null,16.665999999999904,683,344.5,"""","""","""","""","""","""","""","""","2021-10-05 06:48:25",99.244.207.252,"Mozilla/5.0 (Macintosh; Intel Mac OS X 10_13_6) AppleWebKit/537.36 (KHTML, like Gecko) Chrome/94.0.4606.61 Safari/537.36",Macintosh,Chrome,94.0.4606.61,"OS X",10_13_6,fe3c1d035a65c549f7011c5446f73ede
32,1,500.70000000298023,arrowright,psychophysics,241,355263,0.0-3.0-0.117,"""",key,arrowright,16.666000000000448,683,344.5,118,5,-1,27,35,25,35,false,"2021-10-05 06:48:25",99.244.207.252,"Mozilla/5.0 (Macintosh; Intel Mac OS X 10_13_6) AppleWebKit/537.36 (KHTML, like Gecko) Chrome/94.0.4606.61 Safari/537.36",Macintosh,Chrome,94.0.4606.61,"OS X",10_13_6,fe3c1d035a65c549f7011c5446f73ede
32,1,null,null,psychophysics,242,356266,0.0-3.0-1.117,"""",key,null,16.665999999999904,683,344.5,"""","""","""","""","""","""","""","""","2021-10-05 06:48:25",99.244.207.252,"Mozilla/5.0 (Macintosh; Intel Mac OS X 10_13_6) AppleWebKit/537.36 (KHTML, like Gecko) Chrome/94.0.4606.61 Safari/537.36",Macintosh,Chrome,94.0.4606.61,"OS X",10_13_6,fe3c1d035a65c549f7011c5446f73ede
32,1,467.8999999985099,arrowright,psychophysics,243,356745,0.0-3.0-0.118,"""",key,arrowright,16.666000000001596,683,344.5,119,5,1,25,35,25,35,true,"2021-10-05 06:48:25",99.244.207.252,"Mozilla/5.0 (Macintosh; Intel Mac OS X 10_13_6) AppleWebKit/537.36 (KHTML, like Gecko) Chrome/94.0.4606.61 Safari/537.36",Macintosh,Chrome,94.0.4606.61,"OS X",10_13_6,fe3c1d035a65c549f7011c5446f73ede
32,1,null,null,psychophysics,244,357749,0.0-3.0-1.118,"""",key,null,16.665999999999904,683,344.5,"""","""","""","""","""","""","""","""","2021-10-05 06:48:25",99.244.207.252,"Mozilla/5.0 (Macintosh; Intel Mac OS X 10_13_6) AppleWebKit/537.36 (KHTML, like Gecko) Chrome/94.0.4606.61 Safari/537.36",Macintosh,Chrome,94.0.4606.61,"OS X",10_13_6,fe3c1d035a65c549f7011c5446f73ede
32,1,713.8999999985099,arrowright,psychophysics,245,358473,0.0-3.0-0.119,"""",key,arrowright,16.676930232558313,683,344.5,120,5,1,27,15,25,35,true,"2021-10-05 06:48:25",99.244.207.252,"Mozilla/5.0 (Macintosh; Intel Mac OS X 10_13_6) AppleWebKit/537.36 (KHTML, like Gecko) Chrome/94.0.4606.61 Safari/537.36",Macintosh,Chrome,94.0.4606.61,"OS X",10_13_6,fe3c1d035a65c549f7011c5446f73ede
32,1,null,null,psychophysics,246,359476,0.0-3.0-1.119,"""",key,null,16.665999999999904,683,344.5,"""","""","""","""","""","""","""","""","2021-10-05 06:48:25",99.244.207.252,"Mozilla/5.0 (Macintosh; Intel Mac OS X 10_13_6) AppleWebKit/537.36 (KHTML, like Gecko) Chrome/94.0.4606.61 Safari/537.36",Macintosh,Chrome,94.0.4606.61,"OS X",10_13_6,fe3c1d035a65c549f7011c5446f73ede
32,1,622.1000000014901,arrowright,psychophysics,247,360126,0.0-3.0-0.120,"""",key,arrowright,16.66599999999897,683,344.5,121,5,1,27,15,25,35,true,"2021-10-05 06:48:25",99.244.207.252,"Mozilla/5.0 (Macintosh; Intel Mac OS X 10_13_6) AppleWebKit/537.36 (KHTML, like Gecko) Chrome/94.0.4606.61 Safari/537.36",Macintosh,Chrome,94.0.4606.61,"OS X",10_13_6,fe3c1d035a65c549f7011c5446f73ede
32,1,null,null,psychophysics,248,361131,0.0-3.0-1.120,"""",key,null,16.665999999999904,683,344.5,"""","""","""","""","""","""","""","""","2021-10-05 06:48:25",99.244.207.252,"Mozilla/5.0 (Macintosh; Intel Mac OS X 10_13_6) AppleWebKit/537.36 (KHTML, like Gecko) Chrome/94.0.4606.61 Safari/537.36",Macintosh,Chrome,94.0.4606.61,"OS X",10_13_6,fe3c1d035a65c549f7011c5446f73ede
32,1,778.6000000014901,arrowright,psychophysics,249,361937,0.0-3.0-0.121,"""",key,arrowright,16.665999999999297,683,344.5,122,5,1,24,15,25,35,true,"2021-10-05 06:48:25",99.244.207.252,"Mozilla/5.0 (Macintosh; Intel Mac OS X 10_13_6) AppleWebKit/537.36 (KHTML, like Gecko) Chrome/94.0.4606.61 Safari/537.36",Macintosh,Chrome,94.0.4606.61,"OS X",10_13_6,fe3c1d035a65c549f7011c5446f73ede
32,1,null,null,psychophysics,250,362939,0.0-3.0-1.121,"""",key,null,16.66599999999938,683,344.5,"""","""","""","""","""","""","""","""","2021-10-05 06:48:25",99.244.207.252,"Mozilla/5.0 (Macintosh; Intel Mac OS X 10_13_6) AppleWebKit/537.36 (KHTML, like Gecko) Chrome/94.0.4606.61 Safari/537.36",Macintosh,Chrome,94.0.4606.61,"OS X",10_13_6,fe3c1d035a65c549f7011c5446f73ede
32,1,550.8000000044703,arrowleft,psychophysics,251,363496,0.0-3.0-0.122,"""",key,arrowleft,16.665999999999258,683,344.5,123,5,1,20,15,25,35,false,"2021-10-05 06:48:25",99.244.207.252,"Mozilla/5.0 (Macintosh; Intel Mac OS X 10_13_6) AppleWebKit/537.36 (KHTML, like Gecko) Chrome/94.0.4606.61 Safari/537.36",Macintosh,Chrome,94.0.4606.61,"OS X",10_13_6,fe3c1d035a65c549f7011c5446f73ede
32,1,null,null,psychophysics,252,364499,0.0-3.0-1.122,"""",key,null,16.665999999999904,683,344.5,"""","""","""","""","""","""","""","""","2021-10-05 06:48:25",99.244.207.252,"Mozilla/5.0 (Macintosh; Intel Mac OS X 10_13_6) AppleWebKit/537.36 (KHTML, like Gecko) Chrome/94.0.4606.61 Safari/537.36",Macintosh,Chrome,94.0.4606.61,"OS X",10_13_6,fe3c1d035a65c549f7011c5446f73ede
32,1,703.2999999970198,arrowleft,psychophysics,253,365213,0.0-3.0-0.123,"""",key,arrowleft,16.66600000000021,683,344.5,124,5,-1,30,15,25,35,true,"2021-10-05 06:48:25",99.244.207.252,"Mozilla/5.0 (Macintosh; Intel Mac OS X 10_13_6) AppleWebKit/537.36 (KHTML, like Gecko) Chrome/94.0.4606.61 Safari/537.36",Macintosh,Chrome,94.0.4606.61,"OS X",10_13_6,fe3c1d035a65c549f7011c5446f73ede
32,1,null,null,psychophysics,254,366234,0.0-3.0-1.123,"""",key,null,16.665999999999823,683,344.5,"""","""","""","""","""","""","""","""","2021-10-05 06:48:25",99.244.207.252,"Mozilla/5.0 (Macintosh; Intel Mac OS X 10_13_6) AppleWebKit/537.36 (KHTML, like Gecko) Chrome/94.0.4606.61 Safari/537.36",Macintosh,Chrome,94.0.4606.61,"OS X",10_13_6,fe3c1d035a65c549f7011c5446f73ede
32,1,563.1000000014901,arrowright,psychophysics,255,366804,0.0-3.0-0.124,"""",key,arrowright,16.666000000000086,683,344.5,125,5,-1,23,15,25,35,false,"2021-10-05 06:48:25",99.244.207.252,"Mozilla/5.0 (Macintosh; Intel Mac OS X 10_13_6) AppleWebKit/537.36 (KHTML, like Gecko) Chrome/94.0.4606.61 Safari/537.36",Macintosh,Chrome,94.0.4606.61,"OS X",10_13_6,fe3c1d035a65c549f7011c5446f73ede
32,1,null,null,psychophysics,256,367808,0.0-3.0-1.124,"""",key,null,16.665999999999904,683,344.5,"""","""","""","""","""","""","""","""","2021-10-05 06:48:25",99.244.207.252,"Mozilla/5.0 (Macintosh; Intel Mac OS X 10_13_6) AppleWebKit/537.36 (KHTML, like Gecko) Chrome/94.0.4606.61 Safari/537.36",Macintosh,Chrome,94.0.4606.61,"OS X",10_13_6,fe3c1d035a65c549f7011c5446f73ede
32,1,638.8999999985099,arrowright,psychophysics,257,368452,0.0-3.0-0.125,"""",key,arrowright,16.67443243243159,683,344.5,126,5,1,26,15,25,35,true,"2021-10-05 06:48:25",99.244.207.252,"Mozilla/5.0 (Macintosh; Intel Mac OS X 10_13_6) AppleWebKit/537.36 (KHTML, like Gecko) Chrome/94.0.4606.61 Safari/537.36",Macintosh,Chrome,94.0.4606.61,"OS X",10_13_6,fe3c1d035a65c549f7011c5446f73ede
32,1,null,null,psychophysics,258,369455,0.0-3.0-1.125,"""",key,null,16.66599999999938,683,344.5,"""","""","""","""","""","""","""","""","2021-10-05 06:48:25",99.244.207.252,"Mozilla/5.0 (Macintosh; Intel Mac OS X 10_13_6) AppleWebKit/537.36 (KHTML, like Gecko) Chrome/94.0.4606.61 Safari/537.36",Macintosh,Chrome,94.0.4606.61,"OS X",10_13_6,fe3c1d035a65c549f7011c5446f73ede
32,1,459.3999999985099,arrowleft,psychophysics,259,369920,0.0-3.0-0.126,"""",key,arrowleft,16.666000000000672,683,344.5,127,5,1,25,15,25,35,false,"2021-10-05 06:48:25",99.244.207.252,"Mozilla/5.0 (Macintosh; Intel Mac OS X 10_13_6) AppleWebKit/537.36 (KHTML, like Gecko) Chrome/94.0.4606.61 Safari/537.36",Macintosh,Chrome,94.0.4606.61,"OS X",10_13_6,fe3c1d035a65c549f7011c5446f73ede
