run_id,condition,rt,response,trial_type,trial_index,time_elapsed,internal_node_id,stimulus,response_type,key_press,avg_frame_time,center_x,center_y,trial,block,test_pos,test_inner_radius,test_outer_radius,ref_inner_radius,ref_outer_radius,test_bigger,recorded_at,ip,user_agent,device,browser,browser_version,platform,platform_version,source_code_version
24,1,118464.00000000001,"{""p_id"":""0345"",""age"":""21"",""handedness"":""right"",""sex"":""female"",""other_sex"":""}",survey-html-form,0,118472,0.0-0.0,"""","""","""","""","""","""","""","""","""","""","""","""","""","""","2021-10-04 18:55:04",99.231.64.33,"Mozilla/5.0 (Macintosh; Intel Mac OS X 10_14_6) AppleWebKit/605.1.15 (KHTML, like Gecko) Version/14.1.2 Safari/605.1.15",Macintosh,Safari,14.1.2,"OS X",10_14_6,fe3c1d035a65c549f7011c5446f73ede
24,1,27183.000000000015," ",html-keyboard-response,1,145664,0.0-1.0,"<p style=""color: white"">Welcome to the Size Judgment Experiment. <br>There will be 10 blocks in this experiment. <br>There will be 28 trials in each block. <br>You will be given a chance to take a break between blocks. <br>Press any key to start the experiment.</p>","""","""","""","""","""","""","""","""","""","""","""","""","""","2021-10-04 18:55:04",99.231.64.33,"Mozilla/5.0 (Macintosh; Intel Mac OS X 10_14_6) AppleWebKit/605.1.15 (KHTML, like Gecko) Version/14.1.2 Safari/605.1.15",Macintosh,Safari,14.1.2,"OS X",10_14_6,fe3c1d035a65c549f7011c5446f73ede
24,1,37453," ",psychophysics,2,183126,0.0-2.0,"""",key," ",16.694605439144002,720,418.5,"""","""","""","""","""","""","""","""","2021-10-04 18:55:04",99.231.64.33,"Mozilla/5.0 (Macintosh; Intel Mac OS X 10_14_6) AppleWebKit/605.1.15 (KHTML, like Gecko) Version/14.1.2 Safari/605.1.15",Macintosh,Safari,14.1.2,"OS X",10_14_6,fe3c1d035a65c549f7011c5446f73ede
24,1,13310,arrowright,psychophysics,3,196444,0.0-3.0-0.0,"""",key,arrowright,16.64831038798498,720,418.5,1,1,1,26,35,25,35,true,"2021-10-04 18:55:04",99.231.64.33,"Mozilla/5.0 (Macintosh; Intel Mac OS X 10_14_6) AppleWebKit/605.1.15 (KHTML, like Gecko) Version/14.1.2 Safari/605.1.15",Macintosh,Safari,14.1.2,"OS X",10_14_6,fe3c1d035a65c549f7011c5446f73ede
24,1,null,null,psychophysics,4,197449,0.0-3.0-1.0,"""",key,null,16.466666666666665,720,418.5,"""","""","""","""","""","""","""","""","2021-10-04 18:55:04",99.231.64.33,"Mozilla/5.0 (Macintosh; Intel Mac OS X 10_14_6) AppleWebKit/605.1.15 (KHTML, like Gecko) Version/14.1.2 Safari/605.1.15",Macintosh,Safari,14.1.2,"OS X",10_14_6,fe3c1d035a65c549f7011c5446f73ede
24,1,3274.999999999971,arrowright,psychophysics,5,200733,0.0-3.0-0.1,"""",key,arrowright,16.647959183673468,720,418.5,2,1,1,25,15,25,35,true,"2021-10-04 18:55:04",99.231.64.33,"Mozilla/5.0 (Macintosh; Intel Mac OS X 10_14_6) AppleWebKit/605.1.15 (KHTML, like Gecko) Version/14.1.2 Safari/605.1.15",Macintosh,Safari,14.1.2,"OS X",10_14_6,fe3c1d035a65c549f7011c5446f73ede
24,1,null,null,psychophysics,6,201736,0.0-3.0-1.1,"""",key,null,16.4,720,418.5,"""","""","""","""","""","""","""","""","2021-10-04 18:55:04",99.231.64.33,"Mozilla/5.0 (Macintosh; Intel Mac OS X 10_14_6) AppleWebKit/605.1.15 (KHTML, like Gecko) Version/14.1.2 Safari/605.1.15",Macintosh,Safari,14.1.2,"OS X",10_14_6,fe3c1d035a65c549f7011c5446f73ede
24,1,1428,arrowleft,psychophysics,7,203167,0.0-3.0-0.2,"""",key,arrowleft,16.63529411764706,720,418.5,3,1,-1,27,15,25,35,true,"2021-10-04 18:55:04",99.231.64.33,"Mozilla/5.0 (Macintosh; Intel Mac OS X 10_14_6) AppleWebKit/605.1.15 (KHTML, like Gecko) Version/14.1.2 Safari/605.1.15",Macintosh,Safari,14.1.2,"OS X",10_14_6,fe3c1d035a65c549f7011c5446f73ede
24,1,null,null,psychophysics,8,204174,0.0-3.0-1.2,"""",key,null,16.327868852459016,720,418.5,"""","""","""","""","""","""","""","""","2021-10-04 18:55:04",99.231.64.33,"Mozilla/5.0 (Macintosh; Intel Mac OS X 10_14_6) AppleWebKit/605.1.15 (KHTML, like Gecko) Version/14.1.2 Safari/605.1.15",Macintosh,Safari,14.1.2,"OS X",10_14_6,fe3c1d035a65c549f7011c5446f73ede
24,1,1101,arrowleft,psychophysics,9,205278,0.0-3.0-0.3,"""",key,arrowleft,16.661538461538463,720,418.5,4,1,1,20,15,25,35,false,"2021-10-04 18:55:04",99.231.64.33,"Mozilla/5.0 (Macintosh; Intel Mac OS X 10_14_6) AppleWebKit/605.1.15 (KHTML, like Gecko) Version/14.1.2 Safari/605.1.15",Macintosh,Safari,14.1.2,"OS X",10_14_6,fe3c1d035a65c549f7011c5446f73ede
24,1,null,null,psychophysics,10,206281,0.0-3.0-1.3,"""",key,null,16.483333333333334,720,418.5,"""","""","""","""","""","""","""","""","2021-10-04 18:55:04",99.231.64.33,"Mozilla/5.0 (Macintosh; Intel Mac OS X 10_14_6) AppleWebKit/605.1.15 (KHTML, like Gecko) Version/14.1.2 Safari/605.1.15",Macintosh,Safari,14.1.2,"OS X",10_14_6,fe3c1d035a65c549f7011c5446f73ede
24,1,871,arrowleft,psychophysics,11,207158,0.0-3.0-0.4,"""",key,arrowleft,16.653846153846153,720,418.5,5,1,1,20,35,25,35,false,"2021-10-04 18:55:04",99.231.64.33,"Mozilla/5.0 (Macintosh; Intel Mac OS X 10_14_6) AppleWebKit/605.1.15 (KHTML, like Gecko) Version/14.1.2 Safari/605.1.15",Macintosh,Safari,14.1.2,"OS X",10_14_6,fe3c1d035a65c549f7011c5446f73ede
24,1,null,null,psychophysics,12,208161,0.0-3.0-1.4,"""",key,null,16.533333333333335,720,418.5,"""","""","""","""","""","""","""","""","2021-10-04 18:55:04",99.231.64.33,"Mozilla/5.0 (Macintosh; Intel Mac OS X 10_14_6) AppleWebKit/605.1.15 (KHTML, like Gecko) Version/14.1.2 Safari/605.1.15",Macintosh,Safari,14.1.2,"OS X",10_14_6,fe3c1d035a65c549f7011c5446f73ede
24,1,2469,arrowleft,psychophysics,13,210636,0.0-3.0-0.5,"""",key,arrowleft,16.666666666666668,720,418.5,6,1,-1,23,15,25,35,true,"2021-10-04 18:55:04",99.231.64.33,"Mozilla/5.0 (Macintosh; Intel Mac OS X 10_14_6) AppleWebKit/605.1.15 (KHTML, like Gecko) Version/14.1.2 Safari/605.1.15",Macintosh,Safari,14.1.2,"OS X",10_14_6,fe3c1d035a65c549f7011c5446f73ede
24,1,null,null,psychophysics,14,211641,0.0-3.0-1.5,"""",key,null,16.34426229508197,720,418.5,"""","""","""","""","""","""","""","""","2021-10-04 18:55:04",99.231.64.33,"Mozilla/5.0 (Macintosh; Intel Mac OS X 10_14_6) AppleWebKit/605.1.15 (KHTML, like Gecko) Version/14.1.2 Safari/605.1.15",Macintosh,Safari,14.1.2,"OS X",10_14_6,fe3c1d035a65c549f7011c5446f73ede
24,1,1034,arrowright,psychophysics,15,212680,0.0-3.0-0.6,"""",key,arrowright,16.672131147540984,720,418.5,7,1,-1,25,35,25,35,false,"2021-10-04 18:55:04",99.231.64.33,"Mozilla/5.0 (Macintosh; Intel Mac OS X 10_14_6) AppleWebKit/605.1.15 (KHTML, like Gecko) Version/14.1.2 Safari/605.1.15",Macintosh,Safari,14.1.2,"OS X",10_14_6,fe3c1d035a65c549f7011c5446f73ede
24,1,null,null,psychophysics,16,213684,0.0-3.0-1.6,"""",key,null,16.45,720,418.5,"""","""","""","""","""","""","""","""","2021-10-04 18:55:04",99.231.64.33,"Mozilla/5.0 (Macintosh; Intel Mac OS X 10_14_6) AppleWebKit/605.1.15 (KHTML, like Gecko) Version/14.1.2 Safari/605.1.15",Macintosh,Safari,14.1.2,"OS X",10_14_6,fe3c1d035a65c549f7011c5446f73ede
24,1,914.9999999999709,arrowright,psychophysics,17,214604,0.0-3.0-0.7,"""",key,arrowright,16.64814814814815,720,418.5,8,1,1,27,35,25,35,true,"2021-10-04 18:55:04",99.231.64.33,"Mozilla/5.0 (Macintosh; Intel Mac OS X 10_14_6) AppleWebKit/605.1.15 (KHTML, like Gecko) Version/14.1.2 Safari/605.1.15",Macintosh,Safari,14.1.2,"OS X",10_14_6,fe3c1d035a65c549f7011c5446f73ede
24,1,null,null,psychophysics,18,215609,0.0-3.0-1.7,"""",key,null,16.34426229508197,720,418.5,"""","""","""","""","""","""","""","""","2021-10-04 18:55:04",99.231.64.33,"Mozilla/5.0 (Macintosh; Intel Mac OS X 10_14_6) AppleWebKit/605.1.15 (KHTML, like Gecko) Version/14.1.2 Safari/605.1.15",Macintosh,Safari,14.1.2,"OS X",10_14_6,fe3c1d035a65c549f7011c5446f73ede
24,1,2271,arrowleft,psychophysics,19,217883,0.0-3.0-0.8,"""",key,arrowleft,16.666666666666668,720,418.5,9,1,1,24,35,25,35,false,"2021-10-04 18:55:04",99.231.64.33,"Mozilla/5.0 (Macintosh; Intel Mac OS X 10_14_6) AppleWebKit/605.1.15 (KHTML, like Gecko) Version/14.1.2 Safari/605.1.15",Macintosh,Safari,14.1.2,"OS X",10_14_6,fe3c1d035a65c549f7011c5446f73ede
24,1,null,null,psychophysics,20,218889,0.0-3.0-1.8,"""",key,null,16.366666666666667,720,418.5,"""","""","""","""","""","""","""","""","2021-10-04 18:55:04",99.231.64.33,"Mozilla/5.0 (Macintosh; Intel Mac OS X 10_14_6) AppleWebKit/605.1.15 (KHTML, like Gecko) Version/14.1.2 Safari/605.1.15",Macintosh,Safari,14.1.2,"OS X",10_14_6,fe3c1d035a65c549f7011c5446f73ede
24,1,743,arrowright,psychophysics,21,219636,0.0-3.0-0.9,"""",key,arrowright,16.568181818181817,720,418.5,10,1,1,26,35,25,35,true,"2021-10-04 18:55:04",99.231.64.33,"Mozilla/5.0 (Macintosh; Intel Mac OS X 10_14_6) AppleWebKit/605.1.15 (KHTML, like Gecko) Version/14.1.2 Safari/605.1.15",Macintosh,Safari,14.1.2,"OS X",10_14_6,fe3c1d035a65c549f7011c5446f73ede
24,1,null,null,psychophysics,22,220642,0.0-3.0-1.9,"""",key,null,16.278688524590162,720,418.5,"""","""","""","""","""","""","""","""","2021-10-04 18:55:04",99.231.64.33,"Mozilla/5.0 (Macintosh; Intel Mac OS X 10_14_6) AppleWebKit/605.1.15 (KHTML, like Gecko) Version/14.1.2 Safari/605.1.15",Macintosh,Safari,14.1.2,"OS X",10_14_6,fe3c1d035a65c549f7011c5446f73ede
24,1,2449.999999999971,arrowleft,psychophysics,23,223097,0.0-3.0-0.10,"""",key,arrowleft,16.664383561643834,720,418.5,11,1,-1,30,35,25,35,true,"2021-10-04 18:55:04",99.231.64.33,"Mozilla/5.0 (Macintosh; Intel Mac OS X 10_14_6) AppleWebKit/605.1.15 (KHTML, like Gecko) Version/14.1.2 Safari/605.1.15",Macintosh,Safari,14.1.2,"OS X",10_14_6,fe3c1d035a65c549f7011c5446f73ede
24,1,null,null,psychophysics,24,224100,0.0-3.0-1.10,"""",key,null,16.433333333333334,720,418.5,"""","""","""","""","""","""","""","""","2021-10-04 18:55:04",99.231.64.33,"Mozilla/5.0 (Macintosh; Intel Mac OS X 10_14_6) AppleWebKit/605.1.15 (KHTML, like Gecko) Version/14.1.2 Safari/605.1.15",Macintosh,Safari,14.1.2,"OS X",10_14_6,fe3c1d035a65c549f7011c5446f73ede
24,1,1308.000000000029,arrowleft,psychophysics,25,225415,0.0-3.0-0.11,"""",key,arrowleft,16.653846153846153,720,418.5,12,1,-1,24,15,25,35,true,"2021-10-04 18:55:04",99.231.64.33,"Mozilla/5.0 (Macintosh; Intel Mac OS X 10_14_6) AppleWebKit/605.1.15 (KHTML, like Gecko) Version/14.1.2 Safari/605.1.15",Macintosh,Safari,14.1.2,"OS X",10_14_6,fe3c1d035a65c549f7011c5446f73ede
24,1,null,null,psychophysics,26,226419,0.0-3.0-1.11,"""",key,null,16.45,720,418.5,"""","""","""","""","""","""","""","""","2021-10-04 18:55:04",99.231.64.33,"Mozilla/5.0 (Macintosh; Intel Mac OS X 10_14_6) AppleWebKit/605.1.15 (KHTML, like Gecko) Version/14.1.2 Safari/605.1.15",Macintosh,Safari,14.1.2,"OS X",10_14_6,fe3c1d035a65c549f7011c5446f73ede
24,1,658,arrowright,psychophysics,27,227080,0.0-3.0-0.12,"""",key,arrowright,16.666666666666668,720,418.5,13,1,1,30,15,25,35,true,"2021-10-04 18:55:04",99.231.64.33,"Mozilla/5.0 (Macintosh; Intel Mac OS X 10_14_6) AppleWebKit/605.1.15 (KHTML, like Gecko) Version/14.1.2 Safari/605.1.15",Macintosh,Safari,14.1.2,"OS X",10_14_6,fe3c1d035a65c549f7011c5446f73ede
24,1,null,null,psychophysics,28,228083,0.0-3.0-1.12,"""",key,null,16.466666666666665,720,418.5,"""","""","""","""","""","""","""","""","2021-10-04 18:55:04",99.231.64.33,"Mozilla/5.0 (Macintosh; Intel Mac OS X 10_14_6) AppleWebKit/605.1.15 (KHTML, like Gecko) Version/14.1.2 Safari/605.1.15",Macintosh,Safari,14.1.2,"OS X",10_14_6,fe3c1d035a65c549f7011c5446f73ede
24,1,1101,arrowleft,psychophysics,29,229188,0.0-3.0-0.13,"""",key,arrowleft,16.661538461538463,720,418.5,14,1,-1,27,35,25,35,true,"2021-10-04 18:55:04",99.231.64.33,"Mozilla/5.0 (Macintosh; Intel Mac OS X 10_14_6) AppleWebKit/605.1.15 (KHTML, like Gecko) Version/14.1.2 Safari/605.1.15",Macintosh,Safari,14.1.2,"OS X",10_14_6,fe3c1d035a65c549f7011c5446f73ede
24,1,null,null,psychophysics,30,230192,0.0-3.0-1.13,"""",key,null,16.34426229508197,720,418.5,"""","""","""","""","""","""","""","""","2021-10-04 18:55:04",99.231.64.33,"Mozilla/5.0 (Macintosh; Intel Mac OS X 10_14_6) AppleWebKit/605.1.15 (KHTML, like Gecko) Version/14.1.2 Safari/605.1.15",Macintosh,Safari,14.1.2,"OS X",10_14_6,fe3c1d035a65c549f7011c5446f73ede
24,1,552,arrowright,psychophysics,31,230751,0.0-3.0-0.14,"""",key,arrowright,16.65625,720,418.5,15,1,-1,24,35,25,35,false,"2021-10-04 18:55:04",99.231.64.33,"Mozilla/5.0 (Macintosh; Intel Mac OS X 10_14_6) AppleWebKit/605.1.15 (KHTML, like Gecko) Version/14.1.2 Safari/605.1.15",Macintosh,Safari,14.1.2,"OS X",10_14_6,fe3c1d035a65c549f7011c5446f73ede
24,1,null,null,psychophysics,32,231754,0.0-3.0-1.14,"""",key,null,16.416666666666668,720,418.5,"""","""","""","""","""","""","""","""","2021-10-04 18:55:04",99.231.64.33,"Mozilla/5.0 (Macintosh; Intel Mac OS X 10_14_6) AppleWebKit/605.1.15 (KHTML, like Gecko) Version/14.1.2 Safari/605.1.15",Macintosh,Safari,14.1.2,"OS X",10_14_6,fe3c1d035a65c549f7011c5446f73ede
24,1,1288,arrowright,psychophysics,33,233047,0.0-3.0-0.15,"""",key,arrowright,16.623376623376622,720,418.5,16,1,-1,24,35,25,35,false,"2021-10-04 18:55:04",99.231.64.33,"Mozilla/5.0 (Macintosh; Intel Mac OS X 10_14_6) AppleWebKit/605.1.15 (KHTML, like Gecko) Version/14.1.2 Safari/605.1.15",Macintosh,Safari,14.1.2,"OS X",10_14_6,fe3c1d035a65c549f7011c5446f73ede
24,1,null,null,psychophysics,34,234051,0.0-3.0-1.15,"""",key,null,16.466666666666665,720,418.5,"""","""","""","""","""","""","""","""","2021-10-04 18:55:04",99.231.64.33,"Mozilla/5.0 (Macintosh; Intel Mac OS X 10_14_6) AppleWebKit/605.1.15 (KHTML, like Gecko) Version/14.1.2 Safari/605.1.15",Macintosh,Safari,14.1.2,"OS X",10_14_6,fe3c1d035a65c549f7011c5446f73ede
24,1,848.0000000000291,arrowright,psychophysics,35,234903,0.0-3.0-0.16,"""",key,arrowright,16.68,720,418.5,17,1,1,27,15,25,35,true,"2021-10-04 18:55:04",99.231.64.33,"Mozilla/5.0 (Macintosh; Intel Mac OS X 10_14_6) AppleWebKit/605.1.15 (KHTML, like Gecko) Version/14.1.2 Safari/605.1.15",Macintosh,Safari,14.1.2,"OS X",10_14_6,fe3c1d035a65c549f7011c5446f73ede
24,1,null,null,psychophysics,36,235907,0.0-3.0-1.16,"""",key,null,16.383333333333333,720,418.5,"""","""","""","""","""","""","""","""","2021-10-04 18:55:04",99.231.64.33,"Mozilla/5.0 (Macintosh; Intel Mac OS X 10_14_6) AppleWebKit/605.1.15 (KHTML, like Gecko) Version/14.1.2 Safari/605.1.15",Macintosh,Safari,14.1.2,"OS X",10_14_6,fe3c1d035a65c549f7011c5446f73ede
24,1,728,arrowleft,psychophysics,37,236643,0.0-3.0-0.17,"""",key,arrowleft,16.454545454545453,720,418.5,18,1,-1,30,15,25,35,true,"2021-10-04 18:55:04",99.231.64.33,"Mozilla/5.0 (Macintosh; Intel Mac OS X 10_14_6) AppleWebKit/605.1.15 (KHTML, like Gecko) Version/14.1.2 Safari/605.1.15",Macintosh,Safari,14.1.2,"OS X",10_14_6,fe3c1d035a65c549f7011c5446f73ede
24,1,null,null,psychophysics,38,237646,0.0-3.0-1.17,"""",key,null,16.55,720,418.5,"""","""","""","""","""","""","""","""","2021-10-04 18:55:04",99.231.64.33,"Mozilla/5.0 (Macintosh; Intel Mac OS X 10_14_6) AppleWebKit/605.1.15 (KHTML, like Gecko) Version/14.1.2 Safari/605.1.15",Macintosh,Safari,14.1.2,"OS X",10_14_6,fe3c1d035a65c549f7011c5446f73ede
24,1,1602,arrowleft,psychophysics,39,239253,0.0-3.0-0.18,"""",key,arrowleft,16.66315789473684,720,418.5,19,1,1,23,35,25,35,false,"2021-10-04 18:55:04",99.231.64.33,"Mozilla/5.0 (Macintosh; Intel Mac OS X 10_14_6) AppleWebKit/605.1.15 (KHTML, like Gecko) Version/14.1.2 Safari/605.1.15",Macintosh,Safari,14.1.2,"OS X",10_14_6,fe3c1d035a65c549f7011c5446f73ede
24,1,null,null,psychophysics,40,240256,0.0-3.0-1.18,"""",key,null,16.4,720,418.5,"""","""","""","""","""","""","""","""","2021-10-04 18:55:04",99.231.64.33,"Mozilla/5.0 (Macintosh; Intel Mac OS X 10_14_6) AppleWebKit/605.1.15 (KHTML, like Gecko) Version/14.1.2 Safari/605.1.15",Macintosh,Safari,14.1.2,"OS X",10_14_6,fe3c1d035a65c549f7011c5446f73ede
24,1,1222.000000000029,arrowright,psychophysics,41,241482,0.0-3.0-0.19,"""",key,arrowright,16.63013698630137,720,418.5,20,1,1,27,15,25,35,true,"2021-10-04 18:55:04",99.231.64.33,"Mozilla/5.0 (Macintosh; Intel Mac OS X 10_14_6) AppleWebKit/605.1.15 (KHTML, like Gecko) Version/14.1.2 Safari/605.1.15",Macintosh,Safari,14.1.2,"OS X",10_14_6,fe3c1d035a65c549f7011c5446f73ede
24,1,null,null,psychophysics,42,242489,0.0-3.0-1.19,"""",key,null,16.416666666666668,720,418.5,"""","""","""","""","""","""","""","""","2021-10-04 18:55:04",99.231.64.33,"Mozilla/5.0 (Macintosh; Intel Mac OS X 10_14_6) AppleWebKit/605.1.15 (KHTML, like Gecko) Version/14.1.2 Safari/605.1.15",Macintosh,Safari,14.1.2,"OS X",10_14_6,fe3c1d035a65c549f7011c5446f73ede
24,1,1205,arrowleft,psychophysics,43,243698,0.0-3.0-0.20,"""",key,arrowleft,16.63888888888889,720,418.5,21,1,1,26,35,25,35,false,"2021-10-04 18:55:04",99.231.64.33,"Mozilla/5.0 (Macintosh; Intel Mac OS X 10_14_6) AppleWebKit/605.1.15 (KHTML, like Gecko) Version/14.1.2 Safari/605.1.15",Macintosh,Safari,14.1.2,"OS X",10_14_6,fe3c1d035a65c549f7011c5446f73ede
24,1,null,null,psychophysics,44,244701,0.0-3.0-1.20,"""",key,null,16.483333333333334,720,418.5,"""","""","""","""","""","""","""","""","2021-10-04 18:55:04",99.231.64.33,"Mozilla/5.0 (Macintosh; Intel Mac OS X 10_14_6) AppleWebKit/605.1.15 (KHTML, like Gecko) Version/14.1.2 Safari/605.1.15",Macintosh,Safari,14.1.2,"OS X",10_14_6,fe3c1d035a65c549f7011c5446f73ede
24,1,762,arrowleft,psychophysics,45,245469,0.0-3.0-0.21,"""",key,arrowleft,16.68888888888889,720,418.5,22,1,-1,26,15,25,35,true,"2021-10-04 18:55:04",99.231.64.33,"Mozilla/5.0 (Macintosh; Intel Mac OS X 10_14_6) AppleWebKit/605.1.15 (KHTML, like Gecko) Version/14.1.2 Safari/605.1.15",Macintosh,Safari,14.1.2,"OS X",10_14_6,fe3c1d035a65c549f7011c5446f73ede
24,1,null,null,psychophysics,46,246472,0.0-3.0-1.21,"""",key,null,16.433333333333334,720,418.5,"""","""","""","""","""","""","""","""","2021-10-04 18:55:04",99.231.64.33,"Mozilla/5.0 (Macintosh; Intel Mac OS X 10_14_6) AppleWebKit/605.1.15 (KHTML, like Gecko) Version/14.1.2 Safari/605.1.15",Macintosh,Safari,14.1.2,"OS X",10_14_6,fe3c1d035a65c549f7011c5446f73ede
24,1,3613,arrowleft,psychophysics,47,250088,0.0-3.0-0.22,"""",key,arrowleft,16.662037037037038,720,418.5,23,1,-1,26,35,25,35,true,"2021-10-04 18:55:04",99.231.64.33,"Mozilla/5.0 (Macintosh; Intel Mac OS X 10_14_6) AppleWebKit/605.1.15 (KHTML, like Gecko) Version/14.1.2 Safari/605.1.15",Macintosh,Safari,14.1.2,"OS X",10_14_6,fe3c1d035a65c549f7011c5446f73ede
24,1,null,null,psychophysics,48,251095,0.0-3.0-1.22,"""",key,null,16.311475409836067,720,418.5,"""","""","""","""","""","""","""","""","2021-10-04 18:55:04",99.231.64.33,"Mozilla/5.0 (Macintosh; Intel Mac OS X 10_14_6) AppleWebKit/605.1.15 (KHTML, like Gecko) Version/14.1.2 Safari/605.1.15",Macintosh,Safari,14.1.2,"OS X",10_14_6,fe3c1d035a65c549f7011c5446f73ede
24,1,1122,arrowleft,psychophysics,49,252220,0.0-3.0-0.23,"""",key,arrowleft,16.681818181818183,720,418.5,24,1,-1,23,15,25,35,true,"2021-10-04 18:55:04",99.231.64.33,"Mozilla/5.0 (Macintosh; Intel Mac OS X 10_14_6) AppleWebKit/605.1.15 (KHTML, like Gecko) Version/14.1.2 Safari/605.1.15",Macintosh,Safari,14.1.2,"OS X",10_14_6,fe3c1d035a65c549f7011c5446f73ede
24,1,null,null,psychophysics,50,253224,0.0-3.0-1.23,"""",key,null,16.416666666666668,720,418.5,"""","""","""","""","""","""","""","""","2021-10-04 18:55:04",99.231.64.33,"Mozilla/5.0 (Macintosh; Intel Mac OS X 10_14_6) AppleWebKit/605.1.15 (KHTML, like Gecko) Version/14.1.2 Safari/605.1.15",Macintosh,Safari,14.1.2,"OS X",10_14_6,fe3c1d035a65c549f7011c5446f73ede
24,1,685,arrowright,psychophysics,51,253912,0.0-3.0-0.24,"""",key,arrowright,16.609756097560975,720,418.5,25,1,1,30,35,25,35,true,"2021-10-04 18:55:04",99.231.64.33,"Mozilla/5.0 (Macintosh; Intel Mac OS X 10_14_6) AppleWebKit/605.1.15 (KHTML, like Gecko) Version/14.1.2 Safari/605.1.15",Macintosh,Safari,14.1.2,"OS X",10_14_6,fe3c1d035a65c549f7011c5446f73ede
24,1,null,null,psychophysics,52,254916,0.0-3.0-1.24,"""",key,null,16.533333333333335,720,418.5,"""","""","""","""","""","""","""","""","2021-10-04 18:55:04",99.231.64.33,"Mozilla/5.0 (Macintosh; Intel Mac OS X 10_14_6) AppleWebKit/605.1.15 (KHTML, like Gecko) Version/14.1.2 Safari/605.1.15",Macintosh,Safari,14.1.2,"OS X",10_14_6,fe3c1d035a65c549f7011c5446f73ede
24,1,795.0000000000291,arrowleft,psychophysics,53,255716,0.0-3.0-0.25,"""",key,arrowleft,16.659574468085108,720,418.5,26,1,-1,26,15,25,35,true,"2021-10-04 18:55:04",99.231.64.33,"Mozilla/5.0 (Macintosh; Intel Mac OS X 10_14_6) AppleWebKit/605.1.15 (KHTML, like Gecko) Version/14.1.2 Safari/605.1.15",Macintosh,Safari,14.1.2,"OS X",10_14_6,fe3c1d035a65c549f7011c5446f73ede
24,1,null,null,psychophysics,54,256723,0.0-3.0-1.25,"""",key,null,16.416666666666668,720,418.5,"""","""","""","""","""","""","""","""","2021-10-04 18:55:04",99.231.64.33,"Mozilla/5.0 (Macintosh; Intel Mac OS X 10_14_6) AppleWebKit/605.1.15 (KHTML, like Gecko) Version/14.1.2 Safari/605.1.15",Macintosh,Safari,14.1.2,"OS X",10_14_6,fe3c1d035a65c549f7011c5446f73ede
24,1,852.0000000000291,arrowleft,psychophysics,55,257579,0.0-3.0-0.26,"""",key,arrowleft,16.627450980392158,720,418.5,27,1,-1,27,35,25,35,true,"2021-10-04 18:55:04",99.231.64.33,"Mozilla/5.0 (Macintosh; Intel Mac OS X 10_14_6) AppleWebKit/605.1.15 (KHTML, like Gecko) Version/14.1.2 Safari/605.1.15",Macintosh,Safari,14.1.2,"OS X",10_14_6,fe3c1d035a65c549f7011c5446f73ede
24,1,null,null,psychophysics,56,258582,0.0-3.0-1.26,"""",key,null,16.55,720,418.5,"""","""","""","""","""","""","""","""","2021-10-04 18:55:04",99.231.64.33,"Mozilla/5.0 (Macintosh; Intel Mac OS X 10_14_6) AppleWebKit/605.1.15 (KHTML, like Gecko) Version/14.1.2 Safari/605.1.15",Macintosh,Safari,14.1.2,"OS X",10_14_6,fe3c1d035a65c549f7011c5446f73ede
24,1,854,arrowright,psychophysics,57,259441,0.0-3.0-0.27,"""",key,arrowright,16.66,720,418.5,28,2,-1,20,15,25,35,false,"2021-10-04 18:55:04",99.231.64.33,"Mozilla/5.0 (Macintosh; Intel Mac OS X 10_14_6) AppleWebKit/605.1.15 (KHTML, like Gecko) Version/14.1.2 Safari/605.1.15",Macintosh,Safari,14.1.2,"OS X",10_14_6,fe3c1d035a65c549f7011c5446f73ede
24,1,null,null,psychophysics,58,260443,0.0-3.0-1.27,"""",key,null,16.383333333333333,720,418.5,"""","""","""","""","""","""","""","""","2021-10-04 18:55:04",99.231.64.33,"Mozilla/5.0 (Macintosh; Intel Mac OS X 10_14_6) AppleWebKit/605.1.15 (KHTML, like Gecko) Version/14.1.2 Safari/605.1.15",Macintosh,Safari,14.1.2,"OS X",10_14_6,fe3c1d035a65c549f7011c5446f73ede
24,1,14576," ",html-keyboard-response,59,275022,0.0-3.0-2.27-0.27,"<div style=""color: white; text-align: center; vertical-align: top; display: inline-block; width: 800px; margin: auto""><p>You have completed 10% of the trials. You are on block 2 of 10. <br>Good job! Take a break if you need to.</p><p>Press any key to continue the experiment.</p></div>","""","""","""","""","""","""","""","""","""","""","""","""","""","2021-10-04 18:55:04",99.231.64.33,"Mozilla/5.0 (Macintosh; Intel Mac OS X 10_14_6) AppleWebKit/605.1.15 (KHTML, like Gecko) Version/14.1.2 Safari/605.1.15",Macintosh,Safari,14.1.2,"OS X",10_14_6,fe3c1d035a65c549f7011c5446f73ede
24,1,1215.0000000000582,arrowleft,psychophysics,60,277248,0.0-3.0-0.28,"""",key,arrowleft,16.65277777777778,720,418.5,29,2,1,20,15,25,35,false,"2021-10-04 18:55:04",99.231.64.33,"Mozilla/5.0 (Macintosh; Intel Mac OS X 10_14_6) AppleWebKit/605.1.15 (KHTML, like Gecko) Version/14.1.2 Safari/605.1.15",Macintosh,Safari,14.1.2,"OS X",10_14_6,fe3c1d035a65c549f7011c5446f73ede
24,1,null,null,psychophysics,61,278252,0.0-3.0-1.28,"""",key,null,16.533333333333335,720,418.5,"""","""","""","""","""","""","""","""","2021-10-04 18:55:04",99.231.64.33,"Mozilla/5.0 (Macintosh; Intel Mac OS X 10_14_6) AppleWebKit/605.1.15 (KHTML, like Gecko) Version/14.1.2 Safari/605.1.15",Macintosh,Safari,14.1.2,"OS X",10_14_6,fe3c1d035a65c549f7011c5446f73ede
24,1,1336,arrowleft,psychophysics,62,279593,0.0-3.0-0.29,"""",key,arrowleft,16.670886075949365,720,418.5,30,2,-1,25,35,25,35,true,"2021-10-04 18:55:04",99.231.64.33,"Mozilla/5.0 (Macintosh; Intel Mac OS X 10_14_6) AppleWebKit/605.1.15 (KHTML, like Gecko) Version/14.1.2 Safari/605.1.15",Macintosh,Safari,14.1.2,"OS X",10_14_6,fe3c1d035a65c549f7011c5446f73ede
24,1,null,null,psychophysics,63,280598,0.0-3.0-1.29,"""",key,null,16.360655737704917,720,418.5,"""","""","""","""","""","""","""","""","2021-10-04 18:55:04",99.231.64.33,"Mozilla/5.0 (Macintosh; Intel Mac OS X 10_14_6) AppleWebKit/605.1.15 (KHTML, like Gecko) Version/14.1.2 Safari/605.1.15",Macintosh,Safari,14.1.2,"OS X",10_14_6,fe3c1d035a65c549f7011c5446f73ede
24,1,686,arrowleft,psychophysics,64,281293,0.0-3.0-0.30,"""",key,arrowleft,16.675,720,418.5,31,2,-1,30,15,25,35,true,"2021-10-04 18:55:04",99.231.64.33,"Mozilla/5.0 (Macintosh; Intel Mac OS X 10_14_6) AppleWebKit/605.1.15 (KHTML, like Gecko) Version/14.1.2 Safari/605.1.15",Macintosh,Safari,14.1.2,"OS X",10_14_6,fe3c1d035a65c549f7011c5446f73ede
24,1,null,null,psychophysics,65,282298,0.0-3.0-1.30,"""",key,null,16.360655737704917,720,418.5,"""","""","""","""","""","""","""","""","2021-10-04 18:55:04",99.231.64.33,"Mozilla/5.0 (Macintosh; Intel Mac OS X 10_14_6) AppleWebKit/605.1.15 (KHTML, like Gecko) Version/14.1.2 Safari/605.1.15",Macintosh,Safari,14.1.2,"OS X",10_14_6,fe3c1d035a65c549f7011c5446f73ede
24,1,734,arrowleft,psychophysics,66,283036,0.0-3.0-0.31,"""",key,arrowleft,16.674418604651162,720,418.5,32,2,1,23,35,25,35,false,"2021-10-04 18:55:04",99.231.64.33,"Mozilla/5.0 (Macintosh; Intel Mac OS X 10_14_6) AppleWebKit/605.1.15 (KHTML, like Gecko) Version/14.1.2 Safari/605.1.15",Macintosh,Safari,14.1.2,"OS X",10_14_6,fe3c1d035a65c549f7011c5446f73ede
24,1,null,null,psychophysics,67,284038,0.0-3.0-1.31,"""",key,null,16.483333333333334,720,418.5,"""","""","""","""","""","""","""","""","2021-10-04 18:55:04",99.231.64.33,"Mozilla/5.0 (Macintosh; Intel Mac OS X 10_14_6) AppleWebKit/605.1.15 (KHTML, like Gecko) Version/14.1.2 Safari/605.1.15",Macintosh,Safari,14.1.2,"OS X",10_14_6,fe3c1d035a65c549f7011c5446f73ede
24,1,3060,arrowleft,psychophysics,68,287101,0.0-3.0-0.32,"""",key,arrowleft,16.666666666666668,720,418.5,33,2,-1,26,35,25,35,true,"2021-10-04 18:55:04",99.231.64.33,"Mozilla/5.0 (Macintosh; Intel Mac OS X 10_14_6) AppleWebKit/605.1.15 (KHTML, like Gecko) Version/14.1.2 Safari/605.1.15",Macintosh,Safari,14.1.2,"OS X",10_14_6,fe3c1d035a65c549f7011c5446f73ede
24,1,null,null,psychophysics,69,288109,0.0-3.0-1.32,"""",key,null,16.433333333333334,720,418.5,"""","""","""","""","""","""","""","""","2021-10-04 18:55:04",99.231.64.33,"Mozilla/5.0 (Macintosh; Intel Mac OS X 10_14_6) AppleWebKit/605.1.15 (KHTML, like Gecko) Version/14.1.2 Safari/605.1.15",Macintosh,Safari,14.1.2,"OS X",10_14_6,fe3c1d035a65c549f7011c5446f73ede
24,1,2272.000000000058,arrowright,psychophysics,70,290385,0.0-3.0-0.33,"""",key,arrowright,16.654411764705884,720,418.5,34,2,-1,20,15,25,35,false,"2021-10-04 18:55:04",99.231.64.33,"Mozilla/5.0 (Macintosh; Intel Mac OS X 10_14_6) AppleWebKit/605.1.15 (KHTML, like Gecko) Version/14.1.2 Safari/605.1.15",Macintosh,Safari,14.1.2,"OS X",10_14_6,fe3c1d035a65c549f7011c5446f73ede
24,1,null,null,psychophysics,71,291387,0.0-3.0-1.33,"""",key,null,16.5,720,418.5,"""","""","""","""","""","""","""","""","2021-10-04 18:55:04",99.231.64.33,"Mozilla/5.0 (Macintosh; Intel Mac OS X 10_14_6) AppleWebKit/605.1.15 (KHTML, like Gecko) Version/14.1.2 Safari/605.1.15",Macintosh,Safari,14.1.2,"OS X",10_14_6,fe3c1d035a65c549f7011c5446f73ede
24,1,1466,arrowright,psychophysics,72,292858,0.0-3.0-0.34,"""",key,arrowright,16.666666666666668,720,418.5,35,2,-1,20,15,25,35,false,"2021-10-04 18:55:04",99.231.64.33,"Mozilla/5.0 (Macintosh; Intel Mac OS X 10_14_6) AppleWebKit/605.1.15 (KHTML, like Gecko) Version/14.1.2 Safari/605.1.15",Macintosh,Safari,14.1.2,"OS X",10_14_6,fe3c1d035a65c549f7011c5446f73ede
24,1,null,null,psychophysics,73,293866,0.0-3.0-1.34,"""",key,null,16.34426229508197,720,418.5,"""","""","""","""","""","""","""","""","2021-10-04 18:55:04",99.231.64.33,"Mozilla/5.0 (Macintosh; Intel Mac OS X 10_14_6) AppleWebKit/605.1.15 (KHTML, like Gecko) Version/14.1.2 Safari/605.1.15",Macintosh,Safari,14.1.2,"OS X",10_14_6,fe3c1d035a65c549f7011c5446f73ede
24,1,1190,arrowright,psychophysics,74,295060,0.0-3.0-0.35,"""",key,arrowright,16.65714285714286,720,418.5,36,2,-1,20,35,25,35,false,"2021-10-04 18:55:04",99.231.64.33,"Mozilla/5.0 (Macintosh; Intel Mac OS X 10_14_6) AppleWebKit/605.1.15 (KHTML, like Gecko) Version/14.1.2 Safari/605.1.15",Macintosh,Safari,14.1.2,"OS X",10_14_6,fe3c1d035a65c549f7011c5446f73ede
24,1,null,null,psychophysics,75,296063,0.0-3.0-1.35,"""",key,null,16.383333333333333,720,418.5,"""","""","""","""","""","""","""","""","2021-10-04 18:55:04",99.231.64.33,"Mozilla/5.0 (Macintosh; Intel Mac OS X 10_14_6) AppleWebKit/605.1.15 (KHTML, like Gecko) Version/14.1.2 Safari/605.1.15",Macintosh,Safari,14.1.2,"OS X",10_14_6,fe3c1d035a65c549f7011c5446f73ede
24,1,1273,arrowright,psychophysics,76,297341,0.0-3.0-0.36,"""",key,arrowright,16.605263157894736,720,418.5,37,2,-1,20,35,25,35,false,"2021-10-04 18:55:04",99.231.64.33,"Mozilla/5.0 (Macintosh; Intel Mac OS X 10_14_6) AppleWebKit/605.1.15 (KHTML, like Gecko) Version/14.1.2 Safari/605.1.15",Macintosh,Safari,14.1.2,"OS X",10_14_6,fe3c1d035a65c549f7011c5446f73ede
24,1,null,null,psychophysics,77,298343,0.0-3.0-1.36,"""",key,null,16.433333333333334,720,418.5,"""","""","""","""","""","""","""","""","2021-10-04 18:55:04",99.231.64.33,"Mozilla/5.0 (Macintosh; Intel Mac OS X 10_14_6) AppleWebKit/605.1.15 (KHTML, like Gecko) Version/14.1.2 Safari/605.1.15",Macintosh,Safari,14.1.2,"OS X",10_14_6,fe3c1d035a65c549f7011c5446f73ede
24,1,2830,arrowright,psychophysics,78,301177,0.0-3.0-0.37,"""",key,arrowright,16.65680473372781,720,418.5,38,2,-1,24,35,25,35,false,"2021-10-04 18:55:04",99.231.64.33,"Mozilla/5.0 (Macintosh; Intel Mac OS X 10_14_6) AppleWebKit/605.1.15 (KHTML, like Gecko) Version/14.1.2 Safari/605.1.15",Macintosh,Safari,14.1.2,"OS X",10_14_6,fe3c1d035a65c549f7011c5446f73ede
24,1,null,null,psychophysics,79,302184,0.0-3.0-1.37,"""",key,null,16.327868852459016,720,418.5,"""","""","""","""","""","""","""","""","2021-10-04 18:55:04",99.231.64.33,"Mozilla/5.0 (Macintosh; Intel Mac OS X 10_14_6) AppleWebKit/605.1.15 (KHTML, like Gecko) Version/14.1.2 Safari/605.1.15",Macintosh,Safari,14.1.2,"OS X",10_14_6,fe3c1d035a65c549f7011c5446f73ede
24,1,3206,arrowleft,psychophysics,80,305394,0.0-3.0-0.38,"""",key,arrowleft,16.664921465968586,720,418.5,39,2,-1,24,15,25,35,true,"2021-10-04 18:55:04",99.231.64.33,"Mozilla/5.0 (Macintosh; Intel Mac OS X 10_14_6) AppleWebKit/605.1.15 (KHTML, like Gecko) Version/14.1.2 Safari/605.1.15",Macintosh,Safari,14.1.2,"OS X",10_14_6,fe3c1d035a65c549f7011c5446f73ede
24,1,null,null,psychophysics,81,306397,0.0-3.0-1.38,"""",key,null,16.383333333333333,720,418.5,"""","""","""","""","""","""","""","""","2021-10-04 18:55:04",99.231.64.33,"Mozilla/5.0 (Macintosh; Intel Mac OS X 10_14_6) AppleWebKit/605.1.15 (KHTML, like Gecko) Version/14.1.2 Safari/605.1.15",Macintosh,Safari,14.1.2,"OS X",10_14_6,fe3c1d035a65c549f7011c5446f73ede
24,1,684,arrowleft,psychophysics,82,307084,0.0-3.0-0.39,"""",key,arrowleft,16.536585365853657,720,418.5,40,2,-1,30,35,25,35,true,"2021-10-04 18:55:04",99.231.64.33,"Mozilla/5.0 (Macintosh; Intel Mac OS X 10_14_6) AppleWebKit/605.1.15 (KHTML, like Gecko) Version/14.1.2 Safari/605.1.15",Macintosh,Safari,14.1.2,"OS X",10_14_6,fe3c1d035a65c549f7011c5446f73ede
24,1,null,null,psychophysics,83,308090,0.0-3.0-1.39,"""",key,null,16.5,720,418.5,"""","""","""","""","""","""","""","""","2021-10-04 18:55:04",99.231.64.33,"Mozilla/5.0 (Macintosh; Intel Mac OS X 10_14_6) AppleWebKit/605.1.15 (KHTML, like Gecko) Version/14.1.2 Safari/605.1.15",Macintosh,Safari,14.1.2,"OS X",10_14_6,fe3c1d035a65c549f7011c5446f73ede
24,1,1557,arrowleft,psychophysics,84,309651,0.0-3.0-0.40,"""",key,arrowleft,16.666666666666668,720,418.5,41,2,1,24,35,25,35,false,"2021-10-04 18:55:04",99.231.64.33,"Mozilla/5.0 (Macintosh; Intel Mac OS X 10_14_6) AppleWebKit/605.1.15 (KHTML, like Gecko) Version/14.1.2 Safari/605.1.15",Macintosh,Safari,14.1.2,"OS X",10_14_6,fe3c1d035a65c549f7011c5446f73ede
24,1,null,null,psychophysics,85,310654,0.0-3.0-1.40,"""",key,null,16.55,720,418.5,"""","""","""","""","""","""","""","""","2021-10-04 18:55:04",99.231.64.33,"Mozilla/5.0 (Macintosh; Intel Mac OS X 10_14_6) AppleWebKit/605.1.15 (KHTML, like Gecko) Version/14.1.2 Safari/605.1.15",Macintosh,Safari,14.1.2,"OS X",10_14_6,fe3c1d035a65c549f7011c5446f73ede
24,1,1076.0000000000582,arrowleft,psychophysics,86,311737,0.0-3.0-0.41,"""",key,arrowleft,16.671875,720,418.5,42,2,1,24,35,25,35,false,"2021-10-04 18:55:04",99.231.64.33,"Mozilla/5.0 (Macintosh; Intel Mac OS X 10_14_6) AppleWebKit/605.1.15 (KHTML, like Gecko) Version/14.1.2 Safari/605.1.15",Macintosh,Safari,14.1.2,"OS X",10_14_6,fe3c1d035a65c549f7011c5446f73ede
24,1,null,null,psychophysics,87,312739,0.0-3.0-1.41,"""",key,null,16.483333333333334,720,418.5,"""","""","""","""","""","""","""","""","2021-10-04 18:55:04",99.231.64.33,"Mozilla/5.0 (Macintosh; Intel Mac OS X 10_14_6) AppleWebKit/605.1.15 (KHTML, like Gecko) Version/14.1.2 Safari/605.1.15",Macintosh,Safari,14.1.2,"OS X",10_14_6,fe3c1d035a65c549f7011c5446f73ede
24,1,547.9999999999418,arrowright,psychophysics,88,313296,0.0-3.0-0.42,"""",key,arrowright,16.625,720,418.5,43,2,1,30,15,25,35,true,"2021-10-04 18:55:04",99.231.64.33,"Mozilla/5.0 (Macintosh; Intel Mac OS X 10_14_6) AppleWebKit/605.1.15 (KHTML, like Gecko) Version/14.1.2 Safari/605.1.15",Macintosh,Safari,14.1.2,"OS X",10_14_6,fe3c1d035a65c549f7011c5446f73ede
24,1,null,null,psychophysics,89,314301,0.0-3.0-1.42,"""",key,null,16.37704918032787,720,418.5,"""","""","""","""","""","""","""","""","2021-10-04 18:55:04",99.231.64.33,"Mozilla/5.0 (Macintosh; Intel Mac OS X 10_14_6) AppleWebKit/605.1.15 (KHTML, like Gecko) Version/14.1.2 Safari/605.1.15",Macintosh,Safari,14.1.2,"OS X",10_14_6,fe3c1d035a65c549f7011c5446f73ede
24,1,603,arrowleft,psychophysics,90,314909,0.0-3.0-0.43,"""",key,arrowleft,16.685714285714287,720,418.5,44,2,1,20,15,25,35,false,"2021-10-04 18:55:04",99.231.64.33,"Mozilla/5.0 (Macintosh; Intel Mac OS X 10_14_6) AppleWebKit/605.1.15 (KHTML, like Gecko) Version/14.1.2 Safari/605.1.15",Macintosh,Safari,14.1.2,"OS X",10_14_6,fe3c1d035a65c549f7011c5446f73ede
24,1,null,null,psychophysics,91,315912,0.0-3.0-1.43,"""",key,null,16.433333333333334,720,418.5,"""","""","""","""","""","""","""","""","2021-10-04 18:55:04",99.231.64.33,"Mozilla/5.0 (Macintosh; Intel Mac OS X 10_14_6) AppleWebKit/605.1.15 (KHTML, like Gecko) Version/14.1.2 Safari/605.1.15",Macintosh,Safari,14.1.2,"OS X",10_14_6,fe3c1d035a65c549f7011c5446f73ede
24,1,1055,arrowleft,psychophysics,92,316970,0.0-3.0-0.44,"""",key,arrowleft,16.650793650793652,720,418.5,45,2,1,24,35,25,35,false,"2021-10-04 18:55:04",99.231.64.33,"Mozilla/5.0 (Macintosh; Intel Mac OS X 10_14_6) AppleWebKit/605.1.15 (KHTML, like Gecko) Version/14.1.2 Safari/605.1.15",Macintosh,Safari,14.1.2,"OS X",10_14_6,fe3c1d035a65c549f7011c5446f73ede
24,1,null,null,psychophysics,93,317973,0.0-3.0-1.44,"""",key,null,16.5,720,418.5,"""","""","""","""","""","""","""","""","2021-10-04 18:55:04",99.231.64.33,"Mozilla/5.0 (Macintosh; Intel Mac OS X 10_14_6) AppleWebKit/605.1.15 (KHTML, like Gecko) Version/14.1.2 Safari/605.1.15",Macintosh,Safari,14.1.2,"OS X",10_14_6,fe3c1d035a65c549f7011c5446f73ede
24,1,6341,arrowright,psychophysics,94,324319,0.0-3.0-0.45,"""",key,arrowright,16.66578947368421,720,418.5,46,2,1,27,15,25,35,true,"2021-10-04 18:55:04",99.231.64.33,"Mozilla/5.0 (Macintosh; Intel Mac OS X 10_14_6) AppleWebKit/605.1.15 (KHTML, like Gecko) Version/14.1.2 Safari/605.1.15",Macintosh,Safari,14.1.2,"OS X",10_14_6,fe3c1d035a65c549f7011c5446f73ede
24,1,null,null,psychophysics,95,325325,0.0-3.0-1.45,"""",key,null,16.5,720,418.5,"""","""","""","""","""","""","""","""","2021-10-04 18:55:04",99.231.64.33,"Mozilla/5.0 (Macintosh; Intel Mac OS X 10_14_6) AppleWebKit/605.1.15 (KHTML, like Gecko) Version/14.1.2 Safari/605.1.15",Macintosh,Safari,14.1.2,"OS X",10_14_6,fe3c1d035a65c549f7011c5446f73ede
24,1,1094,arrowleft,psychophysics,96,326423,0.0-3.0-0.46,"""",key,arrowleft,16.661538461538463,720,418.5,47,2,-1,30,15,25,35,true,"2021-10-04 18:55:04",99.231.64.33,"Mozilla/5.0 (Macintosh; Intel Mac OS X 10_14_6) AppleWebKit/605.1.15 (KHTML, like Gecko) Version/14.1.2 Safari/605.1.15",Macintosh,Safari,14.1.2,"OS X",10_14_6,fe3c1d035a65c549f7011c5446f73ede
24,1,null,null,psychophysics,97,327426,0.0-3.0-1.46,"""",key,null,16.466666666666665,720,418.5,"""","""","""","""","""","""","""","""","2021-10-04 18:55:04",99.231.64.33,"Mozilla/5.0 (Macintosh; Intel Mac OS X 10_14_6) AppleWebKit/605.1.15 (KHTML, like Gecko) Version/14.1.2 Safari/605.1.15",Macintosh,Safari,14.1.2,"OS X",10_14_6,fe3c1d035a65c549f7011c5446f73ede
24,1,2259,arrowleft,psychophysics,98,329688,0.0-3.0-0.47,"""",key,arrowleft,16.666666666666668,720,418.5,48,2,1,24,35,25,35,false,"2021-10-04 18:55:04",99.231.64.33,"Mozilla/5.0 (Macintosh; Intel Mac OS X 10_14_6) AppleWebKit/605.1.15 (KHTML, like Gecko) Version/14.1.2 Safari/605.1.15",Macintosh,Safari,14.1.2,"OS X",10_14_6,fe3c1d035a65c549f7011c5446f73ede
24,1,null,null,psychophysics,99,330691,0.0-3.0-1.47,"""",key,null,16.483333333333334,720,418.5,"""","""","""","""","""","""","""","""","2021-10-04 18:55:04",99.231.64.33,"Mozilla/5.0 (Macintosh; Intel Mac OS X 10_14_6) AppleWebKit/605.1.15 (KHTML, like Gecko) Version/14.1.2 Safari/605.1.15",Macintosh,Safari,14.1.2,"OS X",10_14_6,fe3c1d035a65c549f7011c5446f73ede
24,1,771.9999999999418,arrowright,psychophysics,100,331474,0.0-3.0-0.48,"""",key,arrowright,16.630434782608695,720,418.5,49,2,1,23,15,25,35,true,"2021-10-04 18:55:04",99.231.64.33,"Mozilla/5.0 (Macintosh; Intel Mac OS X 10_14_6) AppleWebKit/605.1.15 (KHTML, like Gecko) Version/14.1.2 Safari/605.1.15",Macintosh,Safari,14.1.2,"OS X",10_14_6,fe3c1d035a65c549f7011c5446f73ede
24,1,null,null,psychophysics,101,332477,0.0-3.0-1.48,"""",key,null,16.483333333333334,720,418.5,"""","""","""","""","""","""","""","""","2021-10-04 18:55:04",99.231.64.33,"Mozilla/5.0 (Macintosh; Intel Mac OS X 10_14_6) AppleWebKit/605.1.15 (KHTML, like Gecko) Version/14.1.2 Safari/605.1.15",Macintosh,Safari,14.1.2,"OS X",10_14_6,fe3c1d035a65c549f7011c5446f73ede
24,1,983.0000000000582,arrowright,psychophysics,102,333463,0.0-3.0-0.49,"""",key,arrowright,16.67241379310345,720,418.5,50,2,-1,23,15,25,35,false,"2021-10-04 18:55:04",99.231.64.33,"Mozilla/5.0 (Macintosh; Intel Mac OS X 10_14_6) AppleWebKit/605.1.15 (KHTML, like Gecko) Version/14.1.2 Safari/605.1.15",Macintosh,Safari,14.1.2,"OS X",10_14_6,fe3c1d035a65c549f7011c5446f73ede
24,1,null,null,psychophysics,103,334467,0.0-3.0-1.49,"""",key,null,16.383333333333333,720,418.5,"""","""","""","""","""","""","""","""","2021-10-04 18:55:04",99.231.64.33,"Mozilla/5.0 (Macintosh; Intel Mac OS X 10_14_6) AppleWebKit/605.1.15 (KHTML, like Gecko) Version/14.1.2 Safari/605.1.15",Macintosh,Safari,14.1.2,"OS X",10_14_6,fe3c1d035a65c549f7011c5446f73ede
24,1,1176,arrowright,psychophysics,104,335647,0.0-3.0-0.50,"""",key,arrowright,16.6,720,418.5,51,2,-1,20,15,25,35,false,"2021-10-04 18:55:04",99.231.64.33,"Mozilla/5.0 (Macintosh; Intel Mac OS X 10_14_6) AppleWebKit/605.1.15 (KHTML, like Gecko) Version/14.1.2 Safari/605.1.15",Macintosh,Safari,14.1.2,"OS X",10_14_6,fe3c1d035a65c549f7011c5446f73ede
24,1,null,null,psychophysics,105,336650,0.0-3.0-1.50,"""",key,null,16.4,720,418.5,"""","""","""","""","""","""","""","""","2021-10-04 18:55:04",99.231.64.33,"Mozilla/5.0 (Macintosh; Intel Mac OS X 10_14_6) AppleWebKit/605.1.15 (KHTML, like Gecko) Version/14.1.2 Safari/605.1.15",Macintosh,Safari,14.1.2,"OS X",10_14_6,fe3c1d035a65c549f7011c5446f73ede
24,1,1115,arrowright,psychophysics,106,337772,0.0-3.0-0.51,"""",key,arrowright,16.55223880597015,720,418.5,52,2,1,26,35,25,35,true,"2021-10-04 18:55:04",99.231.64.33,"Mozilla/5.0 (Macintosh; Intel Mac OS X 10_14_6) AppleWebKit/605.1.15 (KHTML, like Gecko) Version/14.1.2 Safari/605.1.15",Macintosh,Safari,14.1.2,"OS X",10_14_6,fe3c1d035a65c549f7011c5446f73ede
24,1,null,null,psychophysics,107,338775,0.0-3.0-1.51,"""",key,null,16.516666666666666,720,418.5,"""","""","""","""","""","""","""","""","2021-10-04 18:55:04",99.231.64.33,"Mozilla/5.0 (Macintosh; Intel Mac OS X 10_14_6) AppleWebKit/605.1.15 (KHTML, like Gecko) Version/14.1.2 Safari/605.1.15",Macintosh,Safari,14.1.2,"OS X",10_14_6,fe3c1d035a65c549f7011c5446f73ede
24,1,918,arrowright,psychophysics,108,339697,0.0-3.0-0.52,"""",key,arrowright,16.666666666666668,720,418.5,53,2,-1,20,15,25,35,false,"2021-10-04 18:55:04",99.231.64.33,"Mozilla/5.0 (Macintosh; Intel Mac OS X 10_14_6) AppleWebKit/605.1.15 (KHTML, like Gecko) Version/14.1.2 Safari/605.1.15",Macintosh,Safari,14.1.2,"OS X",10_14_6,fe3c1d035a65c549f7011c5446f73ede
24,1,null,null,psychophysics,109,340700,0.0-3.0-1.52,"""",key,null,16.4,720,418.5,"""","""","""","""","""","""","""","""","2021-10-04 18:55:04",99.231.64.33,"Mozilla/5.0 (Macintosh; Intel Mac OS X 10_14_6) AppleWebKit/605.1.15 (KHTML, like Gecko) Version/14.1.2 Safari/605.1.15",Macintosh,Safari,14.1.2,"OS X",10_14_6,fe3c1d035a65c549f7011c5446f73ede
24,1,998,arrowright,psychophysics,110,341720,0.0-3.0-0.53,"""",key,arrowright,16.59016393442623,720,418.5,54,2,-1,23,15,25,35,false,"2021-10-04 18:55:04",99.231.64.33,"Mozilla/5.0 (Macintosh; Intel Mac OS X 10_14_6) AppleWebKit/605.1.15 (KHTML, like Gecko) Version/14.1.2 Safari/605.1.15",Macintosh,Safari,14.1.2,"OS X",10_14_6,fe3c1d035a65c549f7011c5446f73ede
24,1,null,null,psychophysics,111,342724,0.0-3.0-1.53,"""",key,null,16.55,720,418.5,"""","""","""","""","""","""","""","""","2021-10-04 18:55:04",99.231.64.33,"Mozilla/5.0 (Macintosh; Intel Mac OS X 10_14_6) AppleWebKit/605.1.15 (KHTML, like Gecko) Version/14.1.2 Safari/605.1.15",Macintosh,Safari,14.1.2,"OS X",10_14_6,fe3c1d035a65c549f7011c5446f73ede
24,1,970,arrowright,psychophysics,112,343704,0.0-3.0-0.54,"""",key,arrowright,16.637931034482758,720,418.5,55,2,-1,23,15,25,35,false,"2021-10-04 18:55:04",99.231.64.33,"Mozilla/5.0 (Macintosh; Intel Mac OS X 10_14_6) AppleWebKit/605.1.15 (KHTML, like Gecko) Version/14.1.2 Safari/605.1.15",Macintosh,Safari,14.1.2,"OS X",10_14_6,fe3c1d035a65c549f7011c5446f73ede
24,1,null,null,psychophysics,113,344708,0.0-3.0-1.54,"""",key,null,16.55,720,418.5,"""","""","""","""","""","""","""","""","2021-10-04 18:55:04",99.231.64.33,"Mozilla/5.0 (Macintosh; Intel Mac OS X 10_14_6) AppleWebKit/605.1.15 (KHTML, like Gecko) Version/14.1.2 Safari/605.1.15",Macintosh,Safari,14.1.2,"OS X",10_14_6,fe3c1d035a65c549f7011c5446f73ede
24,1,1727.0000000000582,arrowleft,psychophysics,114,346440,0.0-3.0-0.55,"""",key,arrowleft,16.66990291262136,720,418.5,56,3,-1,25,35,25,35,true,"2021-10-04 18:55:04",99.231.64.33,"Mozilla/5.0 (Macintosh; Intel Mac OS X 10_14_6) AppleWebKit/605.1.15 (KHTML, like Gecko) Version/14.1.2 Safari/605.1.15",Macintosh,Safari,14.1.2,"OS X",10_14_6,fe3c1d035a65c549f7011c5446f73ede
24,1,null,null,psychophysics,115,347443,0.0-3.0-1.55,"""",key,null,16.516666666666666,720,418.5,"""","""","""","""","""","""","""","""","2021-10-04 18:55:04",99.231.64.33,"Mozilla/5.0 (Macintosh; Intel Mac OS X 10_14_6) AppleWebKit/605.1.15 (KHTML, like Gecko) Version/14.1.2 Safari/605.1.15",Macintosh,Safari,14.1.2,"OS X",10_14_6,fe3c1d035a65c549f7011c5446f73ede
24,1,70276," ",html-keyboard-response,116,417724,0.0-3.0-2.55-0.55,"<div style=""color: white; text-align: center; vertical-align: top; display: inline-block; width: 800px; margin: auto""><p>You have completed 20% of the trials. You are on block 3 of 10. <br>Good job! Take a break if you need to.</p><p>Press any key to continue the experiment.</p></div>","""","""","""","""","""","""","""","""","""","""","""","""","""","2021-10-04 18:55:04",99.231.64.33,"Mozilla/5.0 (Macintosh; Intel Mac OS X 10_14_6) AppleWebKit/605.1.15 (KHTML, like Gecko) Version/14.1.2 Safari/605.1.15",Macintosh,Safari,14.1.2,"OS X",10_14_6,fe3c1d035a65c549f7011c5446f73ede
24,1,1017,arrowright,psychophysics,117,419750,0.0-3.0-0.56,"""",key,arrowright,16.661016949152543,720,418.5,57,3,-1,20,15,25,35,false,"2021-10-04 18:55:04",99.231.64.33,"Mozilla/5.0 (Macintosh; Intel Mac OS X 10_14_6) AppleWebKit/605.1.15 (KHTML, like Gecko) Version/14.1.2 Safari/605.1.15",Macintosh,Safari,14.1.2,"OS X",10_14_6,fe3c1d035a65c549f7011c5446f73ede
24,1,null,null,psychophysics,118,420752,0.0-3.0-1.56,"""",key,null,16.483333333333334,720,418.5,"""","""","""","""","""","""","""","""","2021-10-04 18:55:04",99.231.64.33,"Mozilla/5.0 (Macintosh; Intel Mac OS X 10_14_6) AppleWebKit/605.1.15 (KHTML, like Gecko) Version/14.1.2 Safari/605.1.15",Macintosh,Safari,14.1.2,"OS X",10_14_6,fe3c1d035a65c549f7011c5446f73ede
24,1,1902,arrowleft,psychophysics,119,422658,0.0-3.0-0.57,"""",key,arrowleft,16.663716814159294,720,418.5,58,3,-1,26,15,25,35,true,"2021-10-04 18:55:04",99.231.64.33,"Mozilla/5.0 (Macintosh; Intel Mac OS X 10_14_6) AppleWebKit/605.1.15 (KHTML, like Gecko) Version/14.1.2 Safari/605.1.15",Macintosh,Safari,14.1.2,"OS X",10_14_6,fe3c1d035a65c549f7011c5446f73ede
24,1,null,null,psychophysics,120,423662,0.0-3.0-1.57,"""",key,null,16.360655737704917,720,418.5,"""","""","""","""","""","""","""","""","2021-10-04 18:55:04",99.231.64.33,"Mozilla/5.0 (Macintosh; Intel Mac OS X 10_14_6) AppleWebKit/605.1.15 (KHTML, like Gecko) Version/14.1.2 Safari/605.1.15",Macintosh,Safari,14.1.2,"OS X",10_14_6,fe3c1d035a65c549f7011c5446f73ede
24,1,900,arrowleft,psychophysics,121,424571,0.0-3.0-0.58,"""",key,arrowleft,16.67924528301887,720,418.5,59,3,1,20,15,25,35,false,"2021-10-04 18:55:04",99.231.64.33,"Mozilla/5.0 (Macintosh; Intel Mac OS X 10_14_6) AppleWebKit/605.1.15 (KHTML, like Gecko) Version/14.1.2 Safari/605.1.15",Macintosh,Safari,14.1.2,"OS X",10_14_6,fe3c1d035a65c549f7011c5446f73ede
24,1,null,null,psychophysics,122,425573,0.0-3.0-1.58,"""",key,null,16.4,720,418.5,"""","""","""","""","""","""","""","""","2021-10-04 18:55:04",99.231.64.33,"Mozilla/5.0 (Macintosh; Intel Mac OS X 10_14_6) AppleWebKit/605.1.15 (KHTML, like Gecko) Version/14.1.2 Safari/605.1.15",Macintosh,Safari,14.1.2,"OS X",10_14_6,fe3c1d035a65c549f7011c5446f73ede
24,1,2003.0000000000582,arrowleft,psychophysics,123,427580,0.0-3.0-0.59,"""",key,arrowleft,16.658333333333335,720,418.5,60,3,-1,23,15,25,35,true,"2021-10-04 18:55:04",99.231.64.33,"Mozilla/5.0 (Macintosh; Intel Mac OS X 10_14_6) AppleWebKit/605.1.15 (KHTML, like Gecko) Version/14.1.2 Safari/605.1.15",Macintosh,Safari,14.1.2,"OS X",10_14_6,fe3c1d035a65c549f7011c5446f73ede
24,1,null,null,psychophysics,124,428583,0.0-3.0-1.59,"""",key,null,16.516666666666666,720,418.5,"""","""","""","""","""","""","""","""","2021-10-04 18:55:04",99.231.64.33,"Mozilla/5.0 (Macintosh; Intel Mac OS X 10_14_6) AppleWebKit/605.1.15 (KHTML, like Gecko) Version/14.1.2 Safari/605.1.15",Macintosh,Safari,14.1.2,"OS X",10_14_6,fe3c1d035a65c549f7011c5446f73ede
24,1,1118,arrowleft,psychophysics,125,429706,0.0-3.0-0.60,"""",key,arrowleft,16.666666666666668,720,418.5,61,3,1,24,35,25,35,false,"2021-10-04 18:55:04",99.231.64.33,"Mozilla/5.0 (Macintosh; Intel Mac OS X 10_14_6) AppleWebKit/605.1.15 (KHTML, like Gecko) Version/14.1.2 Safari/605.1.15",Macintosh,Safari,14.1.2,"OS X",10_14_6,fe3c1d035a65c549f7011c5446f73ede
24,1,null,null,psychophysics,126,430713,0.0-3.0-1.60,"""",key,null,16.327868852459016,720,418.5,"""","""","""","""","""","""","""","""","2021-10-04 18:55:04",99.231.64.33,"Mozilla/5.0 (Macintosh; Intel Mac OS X 10_14_6) AppleWebKit/605.1.15 (KHTML, like Gecko) Version/14.1.2 Safari/605.1.15",Macintosh,Safari,14.1.2,"OS X",10_14_6,fe3c1d035a65c549f7011c5446f73ede
24,1,546.0000000000582,arrowleft,psychophysics,127,431265,0.0-3.0-0.61,"""",key,arrowleft,16.65625,720,418.5,62,3,1,20,35,25,35,false,"2021-10-04 18:55:04",99.231.64.33,"Mozilla/5.0 (Macintosh; Intel Mac OS X 10_14_6) AppleWebKit/605.1.15 (KHTML, like Gecko) Version/14.1.2 Safari/605.1.15",Macintosh,Safari,14.1.2,"OS X",10_14_6,fe3c1d035a65c549f7011c5446f73ede
24,1,null,null,psychophysics,128,432267,0.0-3.0-1.61,"""",key,null,16.516666666666666,720,418.5,"""","""","""","""","""","""","""","""","2021-10-04 18:55:04",99.231.64.33,"Mozilla/5.0 (Macintosh; Intel Mac OS X 10_14_6) AppleWebKit/605.1.15 (KHTML, like Gecko) Version/14.1.2 Safari/605.1.15",Macintosh,Safari,14.1.2,"OS X",10_14_6,fe3c1d035a65c549f7011c5446f73ede
24,1,666.0000000000582,arrowright,psychophysics,129,432938,0.0-3.0-0.62,"""",key,arrowright,16.666666666666668,720,418.5,63,3,1,27,35,25,35,true,"2021-10-04 18:55:04",99.231.64.33,"Mozilla/5.0 (Macintosh; Intel Mac OS X 10_14_6) AppleWebKit/605.1.15 (KHTML, like Gecko) Version/14.1.2 Safari/605.1.15",Macintosh,Safari,14.1.2,"OS X",10_14_6,fe3c1d035a65c549f7011c5446f73ede
24,1,null,null,psychophysics,130,433941,0.0-3.0-1.62,"""",key,null,16.416666666666668,720,418.5,"""","""","""","""","""","""","""","""","2021-10-04 18:55:04",99.231.64.33,"Mozilla/5.0 (Macintosh; Intel Mac OS X 10_14_6) AppleWebKit/605.1.15 (KHTML, like Gecko) Version/14.1.2 Safari/605.1.15",Macintosh,Safari,14.1.2,"OS X",10_14_6,fe3c1d035a65c549f7011c5446f73ede
24,1,1006,arrowleft,psychophysics,131,434951,0.0-3.0-0.63,"""",key,arrowleft,16.633333333333333,720,418.5,64,3,1,24,15,25,35,false,"2021-10-04 18:55:04",99.231.64.33,"Mozilla/5.0 (Macintosh; Intel Mac OS X 10_14_6) AppleWebKit/605.1.15 (KHTML, like Gecko) Version/14.1.2 Safari/605.1.15",Macintosh,Safari,14.1.2,"OS X",10_14_6,fe3c1d035a65c549f7011c5446f73ede
24,1,null,null,psychophysics,132,435953,0.0-3.0-1.63,"""",key,null,16.466666666666665,720,418.5,"""","""","""","""","""","""","""","""","2021-10-04 18:55:04",99.231.64.33,"Mozilla/5.0 (Macintosh; Intel Mac OS X 10_14_6) AppleWebKit/605.1.15 (KHTML, like Gecko) Version/14.1.2 Safari/605.1.15",Macintosh,Safari,14.1.2,"OS X",10_14_6,fe3c1d035a65c549f7011c5446f73ede
24,1,845.0000000000582,arrowleft,psychophysics,133,436805,0.0-3.0-0.64,"""",key,arrowleft,16.64,720,418.5,65,3,-1,26,35,25,35,true,"2021-10-04 18:55:04",99.231.64.33,"Mozilla/5.0 (Macintosh; Intel Mac OS X 10_14_6) AppleWebKit/605.1.15 (KHTML, like Gecko) Version/14.1.2 Safari/605.1.15",Macintosh,Safari,14.1.2,"OS X",10_14_6,fe3c1d035a65c549f7011c5446f73ede
24,1,null,null,psychophysics,134,437809,0.0-3.0-1.64,"""",key,null,16.4,720,418.5,"""","""","""","""","""","""","""","""","2021-10-04 18:55:04",99.231.64.33,"Mozilla/5.0 (Macintosh; Intel Mac OS X 10_14_6) AppleWebKit/605.1.15 (KHTML, like Gecko) Version/14.1.2 Safari/605.1.15",Macintosh,Safari,14.1.2,"OS X",10_14_6,fe3c1d035a65c549f7011c5446f73ede
24,1,888.9999999999418,arrowleft,psychophysics,135,438702,0.0-3.0-0.65,"""",key,arrowleft,16.60377358490566,720,418.5,66,3,-1,25,15,25,35,true,"2021-10-04 18:55:04",99.231.64.33,"Mozilla/5.0 (Macintosh; Intel Mac OS X 10_14_6) AppleWebKit/605.1.15 (KHTML, like Gecko) Version/14.1.2 Safari/605.1.15",Macintosh,Safari,14.1.2,"OS X",10_14_6,fe3c1d035a65c549f7011c5446f73ede
24,1,null,null,psychophysics,136,439705,0.0-3.0-1.65,"""",key,null,16.483333333333334,720,418.5,"""","""","""","""","""","""","""","""","2021-10-04 18:55:04",99.231.64.33,"Mozilla/5.0 (Macintosh; Intel Mac OS X 10_14_6) AppleWebKit/605.1.15 (KHTML, like Gecko) Version/14.1.2 Safari/605.1.15",Macintosh,Safari,14.1.2,"OS X",10_14_6,fe3c1d035a65c549f7011c5446f73ede
24,1,807,arrowleft,psychophysics,137,440518,0.0-3.0-0.66,"""",key,arrowleft,16.645833333333332,720,418.5,67,3,1,25,15,25,35,false,"2021-10-04 18:55:04",99.231.64.33,"Mozilla/5.0 (Macintosh; Intel Mac OS X 10_14_6) AppleWebKit/605.1.15 (KHTML, like Gecko) Version/14.1.2 Safari/605.1.15",Macintosh,Safari,14.1.2,"OS X",10_14_6,fe3c1d035a65c549f7011c5446f73ede
24,1,null,null,psychophysics,138,441523,0.0-3.0-1.66,"""",key,null,16.45,720,418.5,"""","""","""","""","""","""","""","""","2021-10-04 18:55:04",99.231.64.33,"Mozilla/5.0 (Macintosh; Intel Mac OS X 10_14_6) AppleWebKit/605.1.15 (KHTML, like Gecko) Version/14.1.2 Safari/605.1.15",Macintosh,Safari,14.1.2,"OS X",10_14_6,fe3c1d035a65c549f7011c5446f73ede
24,1,601,arrowright,psychophysics,139,442134,0.0-3.0-0.67,"""",key,arrowright,16.5,720,418.5,68,3,1,30,35,25,35,true,"2021-10-04 18:55:04",99.231.64.33,"Mozilla/5.0 (Macintosh; Intel Mac OS X 10_14_6) AppleWebKit/605.1.15 (KHTML, like Gecko) Version/14.1.2 Safari/605.1.15",Macintosh,Safari,14.1.2,"OS X",10_14_6,fe3c1d035a65c549f7011c5446f73ede
24,1,null,null,psychophysics,140,443137,0.0-3.0-1.67,"""",key,null,16.483333333333334,720,418.5,"""","""","""","""","""","""","""","""","2021-10-04 18:55:04",99.231.64.33,"Mozilla/5.0 (Macintosh; Intel Mac OS X 10_14_6) AppleWebKit/605.1.15 (KHTML, like Gecko) Version/14.1.2 Safari/605.1.15",Macintosh,Safari,14.1.2,"OS X",10_14_6,fe3c1d035a65c549f7011c5446f73ede
24,1,591,arrowleft,psychophysics,141,443733,0.0-3.0-0.68,"""",key,arrowleft,16.65714285714286,720,418.5,69,3,-1,27,35,25,35,true,"2021-10-04 18:55:04",99.231.64.33,"Mozilla/5.0 (Macintosh; Intel Mac OS X 10_14_6) AppleWebKit/605.1.15 (KHTML, like Gecko) Version/14.1.2 Safari/605.1.15",Macintosh,Safari,14.1.2,"OS X",10_14_6,fe3c1d035a65c549f7011c5446f73ede
24,1,null,null,psychophysics,142,444736,0.0-3.0-1.68,"""",key,null,16.483333333333334,720,418.5,"""","""","""","""","""","""","""","""","2021-10-04 18:55:04",99.231.64.33,"Mozilla/5.0 (Macintosh; Intel Mac OS X 10_14_6) AppleWebKit/605.1.15 (KHTML, like Gecko) Version/14.1.2 Safari/605.1.15",Macintosh,Safari,14.1.2,"OS X",10_14_6,fe3c1d035a65c549f7011c5446f73ede
24,1,734.0000000000582,arrowright,psychophysics,143,445474,0.0-3.0-0.69,"""",key,arrowright,16.674418604651162,720,418.5,70,3,-1,20,35,25,35,false,"2021-10-04 18:55:04",99.231.64.33,"Mozilla/5.0 (Macintosh; Intel Mac OS X 10_14_6) AppleWebKit/605.1.15 (KHTML, like Gecko) Version/14.1.2 Safari/605.1.15",Macintosh,Safari,14.1.2,"OS X",10_14_6,fe3c1d035a65c549f7011c5446f73ede
24,1,null,null,psychophysics,144,446477,0.0-3.0-1.69,"""",key,null,16.4,720,418.5,"""","""","""","""","""","""","""","""","2021-10-04 18:55:04",99.231.64.33,"Mozilla/5.0 (Macintosh; Intel Mac OS X 10_14_6) AppleWebKit/605.1.15 (KHTML, like Gecko) Version/14.1.2 Safari/605.1.15",Macintosh,Safari,14.1.2,"OS X",10_14_6,fe3c1d035a65c549f7011c5446f73ede
24,1,717,arrowleft,psychophysics,145,447198,0.0-3.0-0.70,"""",key,arrowleft,16.58139534883721,720,418.5,71,3,1,26,15,25,35,false,"2021-10-04 18:55:04",99.231.64.33,"Mozilla/5.0 (Macintosh; Intel Mac OS X 10_14_6) AppleWebKit/605.1.15 (KHTML, like Gecko) Version/14.1.2 Safari/605.1.15",Macintosh,Safari,14.1.2,"OS X",10_14_6,fe3c1d035a65c549f7011c5446f73ede
24,1,null,null,psychophysics,146,448206,0.0-3.0-1.70,"""",key,null,16.466666666666665,720,418.5,"""","""","""","""","""","""","""","""","2021-10-04 18:55:04",99.231.64.33,"Mozilla/5.0 (Macintosh; Intel Mac OS X 10_14_6) AppleWebKit/605.1.15 (KHTML, like Gecko) Version/14.1.2 Safari/605.1.15",Macintosh,Safari,14.1.2,"OS X",10_14_6,fe3c1d035a65c549f7011c5446f73ede
24,1,582,arrowright,psychophysics,147,448791,0.0-3.0-0.71,"""",key,arrowright,16.705882352941178,720,418.5,72,3,1,27,15,25,35,true,"2021-10-04 18:55:04",99.231.64.33,"Mozilla/5.0 (Macintosh; Intel Mac OS X 10_14_6) AppleWebKit/605.1.15 (KHTML, like Gecko) Version/14.1.2 Safari/605.1.15",Macintosh,Safari,14.1.2,"OS X",10_14_6,fe3c1d035a65c549f7011c5446f73ede
24,1,null,null,psychophysics,148,449794,0.0-3.0-1.71,"""",key,null,16.383333333333333,720,418.5,"""","""","""","""","""","""","""","""","2021-10-04 18:55:04",99.231.64.33,"Mozilla/5.0 (Macintosh; Intel Mac OS X 10_14_6) AppleWebKit/605.1.15 (KHTML, like Gecko) Version/14.1.2 Safari/605.1.15",Macintosh,Safari,14.1.2,"OS X",10_14_6,fe3c1d035a65c549f7011c5446f73ede
24,1,817,arrowright,psychophysics,149,450615,0.0-3.0-0.72,"""",key,arrowright,16.571428571428573,720,418.5,73,3,1,27,15,25,35,true,"2021-10-04 18:55:04",99.231.64.33,"Mozilla/5.0 (Macintosh; Intel Mac OS X 10_14_6) AppleWebKit/605.1.15 (KHTML, like Gecko) Version/14.1.2 Safari/605.1.15",Macintosh,Safari,14.1.2,"OS X",10_14_6,fe3c1d035a65c549f7011c5446f73ede
24,1,null,null,psychophysics,150,451618,0.0-3.0-1.72,"""",key,null,16.566666666666666,720,418.5,"""","""","""","""","""","""","""","""","2021-10-04 18:55:04",99.231.64.33,"Mozilla/5.0 (Macintosh; Intel Mac OS X 10_14_6) AppleWebKit/605.1.15 (KHTML, like Gecko) Version/14.1.2 Safari/605.1.15",Macintosh,Safari,14.1.2,"OS X",10_14_6,fe3c1d035a65c549f7011c5446f73ede
24,1,876,arrowright,psychophysics,151,452499,0.0-3.0-0.73,"""",key,arrowright,16.634615384615383,720,418.5,74,3,-1,24,35,25,35,false,"2021-10-04 18:55:04",99.231.64.33,"Mozilla/5.0 (Macintosh; Intel Mac OS X 10_14_6) AppleWebKit/605.1.15 (KHTML, like Gecko) Version/14.1.2 Safari/605.1.15",Macintosh,Safari,14.1.2,"OS X",10_14_6,fe3c1d035a65c549f7011c5446f73ede
24,1,null,null,psychophysics,152,453502,0.0-3.0-1.73,"""",key,null,16.533333333333335,720,418.5,"""","""","""","""","""","""","""","""","2021-10-04 18:55:04",99.231.64.33,"Mozilla/5.0 (Macintosh; Intel Mac OS X 10_14_6) AppleWebKit/605.1.15 (KHTML, like Gecko) Version/14.1.2 Safari/605.1.15",Macintosh,Safari,14.1.2,"OS X",10_14_6,fe3c1d035a65c549f7011c5446f73ede
24,1,752,arrowright,psychophysics,153,454263,0.0-3.0-0.74,"""",key,arrowright,16.636363636363637,720,418.5,75,3,-1,24,35,25,35,false,"2021-10-04 18:55:04",99.231.64.33,"Mozilla/5.0 (Macintosh; Intel Mac OS X 10_14_6) AppleWebKit/605.1.15 (KHTML, like Gecko) Version/14.1.2 Safari/605.1.15",Macintosh,Safari,14.1.2,"OS X",10_14_6,fe3c1d035a65c549f7011c5446f73ede
24,1,null,null,psychophysics,154,455266,0.0-3.0-1.74,"""",key,null,16.327868852459016,720,418.5,"""","""","""","""","""","""","""","""","2021-10-04 18:55:04",99.231.64.33,"Mozilla/5.0 (Macintosh; Intel Mac OS X 10_14_6) AppleWebKit/605.1.15 (KHTML, like Gecko) Version/14.1.2 Safari/605.1.15",Macintosh,Safari,14.1.2,"OS X",10_14_6,fe3c1d035a65c549f7011c5446f73ede
24,1,1255,arrowright,psychophysics,155,456526,0.0-3.0-0.75,"""",key,arrowright,16.66216216216216,720,418.5,76,3,-1,20,15,25,35,false,"2021-10-04 18:55:04",99.231.64.33,"Mozilla/5.0 (Macintosh; Intel Mac OS X 10_14_6) AppleWebKit/605.1.15 (KHTML, like Gecko) Version/14.1.2 Safari/605.1.15",Macintosh,Safari,14.1.2,"OS X",10_14_6,fe3c1d035a65c549f7011c5446f73ede
24,1,null,null,psychophysics,156,457529,0.0-3.0-1.75,"""",key,null,16.366666666666667,720,418.5,"""","""","""","""","""","""","""","""","2021-10-04 18:55:04",99.231.64.33,"Mozilla/5.0 (Macintosh; Intel Mac OS X 10_14_6) AppleWebKit/605.1.15 (KHTML, like Gecko) Version/14.1.2 Safari/605.1.15",Macintosh,Safari,14.1.2,"OS X",10_14_6,fe3c1d035a65c549f7011c5446f73ede
24,1,859,arrowright,psychophysics,157,458392,0.0-3.0-0.76,"""",key,arrowright,16.568627450980394,720,418.5,77,3,1,26,35,25,35,true,"2021-10-04 18:55:04",99.231.64.33,"Mozilla/5.0 (Macintosh; Intel Mac OS X 10_14_6) AppleWebKit/605.1.15 (KHTML, like Gecko) Version/14.1.2 Safari/605.1.15",Macintosh,Safari,14.1.2,"OS X",10_14_6,fe3c1d035a65c549f7011c5446f73ede
24,1,null,null,psychophysics,158,459396,0.0-3.0-1.76,"""",key,null,16.383333333333333,720,418.5,"""","""","""","""","""","""","""","""","2021-10-04 18:55:04",99.231.64.33,"Mozilla/5.0 (Macintosh; Intel Mac OS X 10_14_6) AppleWebKit/605.1.15 (KHTML, like Gecko) Version/14.1.2 Safari/605.1.15",Macintosh,Safari,14.1.2,"OS X",10_14_6,fe3c1d035a65c549f7011c5446f73ede
24,1,620,arrowleft,psychophysics,159,460024,0.0-3.0-0.77,"""",key,arrowleft,16.43243243243243,720,418.5,78,3,-1,30,15,25,35,true,"2021-10-04 18:55:04",99.231.64.33,"Mozilla/5.0 (Macintosh; Intel Mac OS X 10_14_6) AppleWebKit/605.1.15 (KHTML, like Gecko) Version/14.1.2 Safari/605.1.15",Macintosh,Safari,14.1.2,"OS X",10_14_6,fe3c1d035a65c549f7011c5446f73ede
24,1,null,null,psychophysics,160,461028,0.0-3.0-1.77,"""",key,null,16.416666666666668,720,418.5,"""","""","""","""","""","""","""","""","2021-10-04 18:55:04",99.231.64.33,"Mozilla/5.0 (Macintosh; Intel Mac OS X 10_14_6) AppleWebKit/605.1.15 (KHTML, like Gecko) Version/14.1.2 Safari/605.1.15",Macintosh,Safari,14.1.2,"OS X",10_14_6,fe3c1d035a65c549f7011c5446f73ede
24,1,1101,arrowleft,psychophysics,161,462132,0.0-3.0-0.78,"""",key,arrowleft,16.606060606060606,720,418.5,79,3,-1,24,15,25,35,true,"2021-10-04 18:55:04",99.231.64.33,"Mozilla/5.0 (Macintosh; Intel Mac OS X 10_14_6) AppleWebKit/605.1.15 (KHTML, like Gecko) Version/14.1.2 Safari/605.1.15",Macintosh,Safari,14.1.2,"OS X",10_14_6,fe3c1d035a65c549f7011c5446f73ede
24,1,null,null,psychophysics,162,463136,0.0-3.0-1.78,"""",key,null,16.566666666666666,720,418.5,"""","""","""","""","""","""","""","""","2021-10-04 18:55:04",99.231.64.33,"Mozilla/5.0 (Macintosh; Intel Mac OS X 10_14_6) AppleWebKit/605.1.15 (KHTML, like Gecko) Version/14.1.2 Safari/605.1.15",Macintosh,Safari,14.1.2,"OS X",10_14_6,fe3c1d035a65c549f7011c5446f73ede
24,1,858,arrowright,psychophysics,163,463999,0.0-3.0-0.79,"""",key,arrowright,16.647058823529413,720,418.5,80,3,1,30,35,25,35,true,"2021-10-04 18:55:04",99.231.64.33,"Mozilla/5.0 (Macintosh; Intel Mac OS X 10_14_6) AppleWebKit/605.1.15 (KHTML, like Gecko) Version/14.1.2 Safari/605.1.15",Macintosh,Safari,14.1.2,"OS X",10_14_6,fe3c1d035a65c549f7011c5446f73ede
24,1,null,null,psychophysics,164,465003,0.0-3.0-1.79,"""",key,null,16.55,720,418.5,"""","""","""","""","""","""","""","""","2021-10-04 18:55:04",99.231.64.33,"Mozilla/5.0 (Macintosh; Intel Mac OS X 10_14_6) AppleWebKit/605.1.15 (KHTML, like Gecko) Version/14.1.2 Safari/605.1.15",Macintosh,Safari,14.1.2,"OS X",10_14_6,fe3c1d035a65c549f7011c5446f73ede
24,1,687,arrowright,psychophysics,165,465695,0.0-3.0-0.80,"""",key,arrowright,16.65,720,418.5,81,3,1,30,35,25,35,true,"2021-10-04 18:55:04",99.231.64.33,"Mozilla/5.0 (Macintosh; Intel Mac OS X 10_14_6) AppleWebKit/605.1.15 (KHTML, like Gecko) Version/14.1.2 Safari/605.1.15",Macintosh,Safari,14.1.2,"OS X",10_14_6,fe3c1d035a65c549f7011c5446f73ede
24,1,null,null,psychophysics,166,466703,0.0-3.0-1.80,"""",key,null,16.295081967213115,720,418.5,"""","""","""","""","""","""","""","""","2021-10-04 18:55:04",99.231.64.33,"Mozilla/5.0 (Macintosh; Intel Mac OS X 10_14_6) AppleWebKit/605.1.15 (KHTML, like Gecko) Version/14.1.2 Safari/605.1.15",Macintosh,Safari,14.1.2,"OS X",10_14_6,fe3c1d035a65c549f7011c5446f73ede
24,1,730,arrowleft,psychophysics,167,467437,0.0-3.0-0.81,"""",key,arrowleft,16.674418604651162,720,418.5,82,3,-1,24,35,25,35,true,"2021-10-04 18:55:04",99.231.64.33,"Mozilla/5.0 (Macintosh; Intel Mac OS X 10_14_6) AppleWebKit/605.1.15 (KHTML, like Gecko) Version/14.1.2 Safari/605.1.15",Macintosh,Safari,14.1.2,"OS X",10_14_6,fe3c1d035a65c549f7011c5446f73ede
24,1,null,null,psychophysics,168,468440,0.0-3.0-1.81,"""",key,null,16.483333333333334,720,418.5,"""","""","""","""","""","""","""","""","2021-10-04 18:55:04",99.231.64.33,"Mozilla/5.0 (Macintosh; Intel Mac OS X 10_14_6) AppleWebKit/605.1.15 (KHTML, like Gecko) Version/14.1.2 Safari/605.1.15",Macintosh,Safari,14.1.2,"OS X",10_14_6,fe3c1d035a65c549f7011c5446f73ede
24,1,649.9999999999418,arrowleft,psychophysics,169,469093,0.0-3.0-0.82,"""",key,arrowleft,16.657894736842106,720,418.5,83,3,-1,30,35,25,35,true,"2021-10-04 18:55:04",99.231.64.33,"Mozilla/5.0 (Macintosh; Intel Mac OS X 10_14_6) AppleWebKit/605.1.15 (KHTML, like Gecko) Version/14.1.2 Safari/605.1.15",Macintosh,Safari,14.1.2,"OS X",10_14_6,fe3c1d035a65c549f7011c5446f73ede
24,1,null,null,psychophysics,170,470097,0.0-3.0-1.82,"""",key,null,16.383333333333333,720,418.5,"""","""","""","""","""","""","""","""","2021-10-04 18:55:04",99.231.64.33,"Mozilla/5.0 (Macintosh; Intel Mac OS X 10_14_6) AppleWebKit/605.1.15 (KHTML, like Gecko) Version/14.1.2 Safari/605.1.15",Macintosh,Safari,14.1.2,"OS X",10_14_6,fe3c1d035a65c549f7011c5446f73ede
24,1,1686,arrowright,psychophysics,171,471787,0.0-3.0-0.83,"""",key,arrowright,16.613861386138613,720,418.5,84,4,1,26,35,25,35,true,"2021-10-04 18:55:04",99.231.64.33,"Mozilla/5.0 (Macintosh; Intel Mac OS X 10_14_6) AppleWebKit/605.1.15 (KHTML, like Gecko) Version/14.1.2 Safari/605.1.15",Macintosh,Safari,14.1.2,"OS X",10_14_6,fe3c1d035a65c549f7011c5446f73ede
24,1,null,null,psychophysics,172,472796,0.0-3.0-1.83,"""",key,null,16.4,720,418.5,"""","""","""","""","""","""","""","""","2021-10-04 18:55:04",99.231.64.33,"Mozilla/5.0 (Macintosh; Intel Mac OS X 10_14_6) AppleWebKit/605.1.15 (KHTML, like Gecko) Version/14.1.2 Safari/605.1.15",Macintosh,Safari,14.1.2,"OS X",10_14_6,fe3c1d035a65c549f7011c5446f73ede
24,1,60565," ",html-keyboard-response,173,533364,0.0-3.0-2.83-0.83,"<div style=""color: white; text-align: center; vertical-align: top; display: inline-block; width: 800px; margin: auto""><p>You have completed 30% of the trials. You are on block 4 of 10. <br>Good job! Take a break if you need to.</p><p>Press any key to continue the experiment.</p></div>","""","""","""","""","""","""","""","""","""","""","""","""","""","2021-10-04 18:55:04",99.231.64.33,"Mozilla/5.0 (Macintosh; Intel Mac OS X 10_14_6) AppleWebKit/605.1.15 (KHTML, like Gecko) Version/14.1.2 Safari/605.1.15",Macintosh,Safari,14.1.2,"OS X",10_14_6,fe3c1d035a65c549f7011c5446f73ede
24,1,986.9999999998836,arrowleft,psychophysics,174,535362,0.0-3.0-0.84,"""",key,arrowleft,16.655172413793103,720,418.5,85,4,1,24,15,25,35,false,"2021-10-04 18:55:04",99.231.64.33,"Mozilla/5.0 (Macintosh; Intel Mac OS X 10_14_6) AppleWebKit/605.1.15 (KHTML, like Gecko) Version/14.1.2 Safari/605.1.15",Macintosh,Safari,14.1.2,"OS X",10_14_6,fe3c1d035a65c549f7011c5446f73ede
24,1,null,null,psychophysics,175,536367,0.0-3.0-1.84,"""",key,null,16.433333333333334,720,418.5,"""","""","""","""","""","""","""","""","2021-10-04 18:55:04",99.231.64.33,"Mozilla/5.0 (Macintosh; Intel Mac OS X 10_14_6) AppleWebKit/605.1.15 (KHTML, like Gecko) Version/14.1.2 Safari/605.1.15",Macintosh,Safari,14.1.2,"OS X",10_14_6,fe3c1d035a65c549f7011c5446f73ede
24,1,557,arrowright,psychophysics,176,536928,0.0-3.0-0.85,"""",key,arrowright,16.606060606060606,720,418.5,86,4,1,30,15,25,35,true,"2021-10-04 18:55:04",99.231.64.33,"Mozilla/5.0 (Macintosh; Intel Mac OS X 10_14_6) AppleWebKit/605.1.15 (KHTML, like Gecko) Version/14.1.2 Safari/605.1.15",Macintosh,Safari,14.1.2,"OS X",10_14_6,fe3c1d035a65c549f7011c5446f73ede
24,1,null,null,psychophysics,177,537933,0.0-3.0-1.85,"""",key,null,16.45,720,418.5,"""","""","""","""","""","""","""","""","2021-10-04 18:55:04",99.231.64.33,"Mozilla/5.0 (Macintosh; Intel Mac OS X 10_14_6) AppleWebKit/605.1.15 (KHTML, like Gecko) Version/14.1.2 Safari/605.1.15",Macintosh,Safari,14.1.2,"OS X",10_14_6,fe3c1d035a65c549f7011c5446f73ede
24,1,864,arrowleft,psychophysics,178,538800,0.0-3.0-0.86,"""",key,arrowleft,16.666666666666668,720,418.5,87,4,1,20,35,25,35,false,"2021-10-04 18:55:04",99.231.64.33,"Mozilla/5.0 (Macintosh; Intel Mac OS X 10_14_6) AppleWebKit/605.1.15 (KHTML, like Gecko) Version/14.1.2 Safari/605.1.15",Macintosh,Safari,14.1.2,"OS X",10_14_6,fe3c1d035a65c549f7011c5446f73ede
24,1,null,null,psychophysics,179,539808,0.0-3.0-1.86,"""",key,null,16.327868852459016,720,418.5,"""","""","""","""","""","""","""","""","2021-10-04 18:55:04",99.231.64.33,"Mozilla/5.0 (Macintosh; Intel Mac OS X 10_14_6) AppleWebKit/605.1.15 (KHTML, like Gecko) Version/14.1.2 Safari/605.1.15",Macintosh,Safari,14.1.2,"OS X",10_14_6,fe3c1d035a65c549f7011c5446f73ede
24,1,1412,arrowright,psychophysics,180,541224,0.0-3.0-0.87,"""",key,arrowright,16.666666666666668,720,418.5,88,4,1,23,15,25,35,true,"2021-10-04 18:55:04",99.231.64.33,"Mozilla/5.0 (Macintosh; Intel Mac OS X 10_14_6) AppleWebKit/605.1.15 (KHTML, like Gecko) Version/14.1.2 Safari/605.1.15",Macintosh,Safari,14.1.2,"OS X",10_14_6,fe3c1d035a65c549f7011c5446f73ede
24,1,null,null,psychophysics,181,542228,0.0-3.0-1.87,"""",key,null,16.533333333333335,720,418.5,"""","""","""","""","""","""","""","""","2021-10-04 18:55:04",99.231.64.33,"Mozilla/5.0 (Macintosh; Intel Mac OS X 10_14_6) AppleWebKit/605.1.15 (KHTML, like Gecko) Version/14.1.2 Safari/605.1.15",Macintosh,Safari,14.1.2,"OS X",10_14_6,fe3c1d035a65c549f7011c5446f73ede
24,1,803,arrowleft,psychophysics,182,543035,0.0-3.0-0.88,"""",key,arrowleft,16.659574468085108,720,418.5,89,4,-1,27,15,25,35,true,"2021-10-04 18:55:04",99.231.64.33,"Mozilla/5.0 (Macintosh; Intel Mac OS X 10_14_6) AppleWebKit/605.1.15 (KHTML, like Gecko) Version/14.1.2 Safari/605.1.15",Macintosh,Safari,14.1.2,"OS X",10_14_6,fe3c1d035a65c549f7011c5446f73ede
24,1,null,null,psychophysics,183,544041,0.0-3.0-1.88,"""",key,null,16.327868852459016,720,418.5,"""","""","""","""","""","""","""","""","2021-10-04 18:55:04",99.231.64.33,"Mozilla/5.0 (Macintosh; Intel Mac OS X 10_14_6) AppleWebKit/605.1.15 (KHTML, like Gecko) Version/14.1.2 Safari/605.1.15",Macintosh,Safari,14.1.2,"OS X",10_14_6,fe3c1d035a65c549f7011c5446f73ede
24,1,1031,arrowleft,psychophysics,184,545077,0.0-3.0-0.89,"""",key,arrowleft,16.672131147540984,720,418.5,90,4,-1,25,35,25,35,true,"2021-10-04 18:55:04",99.231.64.33,"Mozilla/5.0 (Macintosh; Intel Mac OS X 10_14_6) AppleWebKit/605.1.15 (KHTML, like Gecko) Version/14.1.2 Safari/605.1.15",Macintosh,Safari,14.1.2,"OS X",10_14_6,fe3c1d035a65c549f7011c5446f73ede
24,1,null,null,psychophysics,185,546085,0.0-3.0-1.89,"""",key,null,16.416666666666668,720,418.5,"""","""","""","""","""","""","""","""","2021-10-04 18:55:04",99.231.64.33,"Mozilla/5.0 (Macintosh; Intel Mac OS X 10_14_6) AppleWebKit/605.1.15 (KHTML, like Gecko) Version/14.1.2 Safari/605.1.15",Macintosh,Safari,14.1.2,"OS X",10_14_6,fe3c1d035a65c549f7011c5446f73ede
24,1,814,arrowleft,psychophysics,186,546912,0.0-3.0-0.90,"""",key,arrowleft,16.653061224489797,720,418.5,91,4,1,24,15,25,35,false,"2021-10-04 18:55:04",99.231.64.33,"Mozilla/5.0 (Macintosh; Intel Mac OS X 10_14_6) AppleWebKit/605.1.15 (KHTML, like Gecko) Version/14.1.2 Safari/605.1.15",Macintosh,Safari,14.1.2,"OS X",10_14_6,fe3c1d035a65c549f7011c5446f73ede
24,1,null,null,psychophysics,187,547914,0.0-3.0-1.90,"""",key,null,16.466666666666665,720,418.5,"""","""","""","""","""","""","""","""","2021-10-04 18:55:04",99.231.64.33,"Mozilla/5.0 (Macintosh; Intel Mac OS X 10_14_6) AppleWebKit/605.1.15 (KHTML, like Gecko) Version/14.1.2 Safari/605.1.15",Macintosh,Safari,14.1.2,"OS X",10_14_6,fe3c1d035a65c549f7011c5446f73ede
24,1,967,arrowleft,psychophysics,188,548886,0.0-3.0-0.91,"""",key,arrowleft,16.666666666666668,720,418.5,92,4,-1,25,35,25,35,true,"2021-10-04 18:55:04",99.231.64.33,"Mozilla/5.0 (Macintosh; Intel Mac OS X 10_14_6) AppleWebKit/605.1.15 (KHTML, like Gecko) Version/14.1.2 Safari/605.1.15",Macintosh,Safari,14.1.2,"OS X",10_14_6,fe3c1d035a65c549f7011c5446f73ede
24,1,null,null,psychophysics,189,549891,0.0-3.0-1.91,"""",key,null,16.37704918032787,720,418.5,"""","""","""","""","""","""","""","""","2021-10-04 18:55:04",99.231.64.33,"Mozilla/5.0 (Macintosh; Intel Mac OS X 10_14_6) AppleWebKit/605.1.15 (KHTML, like Gecko) Version/14.1.2 Safari/605.1.15",Macintosh,Safari,14.1.2,"OS X",10_14_6,fe3c1d035a65c549f7011c5446f73ede
24,1,666,arrowleft,psychophysics,190,550561,0.0-3.0-0.92,"""",key,arrowleft,16.666666666666668,720,418.5,93,4,-1,27,35,25,35,true,"2021-10-04 18:55:04",99.231.64.33,"Mozilla/5.0 (Macintosh; Intel Mac OS X 10_14_6) AppleWebKit/605.1.15 (KHTML, like Gecko) Version/14.1.2 Safari/605.1.15",Macintosh,Safari,14.1.2,"OS X",10_14_6,fe3c1d035a65c549f7011c5446f73ede
24,1,null,null,psychophysics,191,551564,0.0-3.0-1.92,"""",key,null,16.466666666666665,720,418.5,"""","""","""","""","""","""","""","""","2021-10-04 18:55:04",99.231.64.33,"Mozilla/5.0 (Macintosh; Intel Mac OS X 10_14_6) AppleWebKit/605.1.15 (KHTML, like Gecko) Version/14.1.2 Safari/605.1.15",Macintosh,Safari,14.1.2,"OS X",10_14_6,fe3c1d035a65c549f7011c5446f73ede
24,1,821.0000000001164,arrowright,psychophysics,192,552393,0.0-3.0-0.93,"""",key,arrowright,16.632653061224488,720,418.5,94,4,-1,20,35,25,35,false,"2021-10-04 18:55:04",99.231.64.33,"Mozilla/5.0 (Macintosh; Intel Mac OS X 10_14_6) AppleWebKit/605.1.15 (KHTML, like Gecko) Version/14.1.2 Safari/605.1.15",Macintosh,Safari,14.1.2,"OS X",10_14_6,fe3c1d035a65c549f7011c5446f73ede
24,1,null,null,psychophysics,193,553397,0.0-3.0-1.93,"""",key,null,16.5,720,418.5,"""","""","""","""","""","""","""","""","2021-10-04 18:55:04",99.231.64.33,"Mozilla/5.0 (Macintosh; Intel Mac OS X 10_14_6) AppleWebKit/605.1.15 (KHTML, like Gecko) Version/14.1.2 Safari/605.1.15",Macintosh,Safari,14.1.2,"OS X",10_14_6,fe3c1d035a65c549f7011c5446f73ede
24,1,1058,arrowleft,psychophysics,194,554460,0.0-3.0-0.94,"""",key,arrowleft,16.666666666666668,720,418.5,95,4,-1,25,15,25,35,true,"2021-10-04 18:55:04",99.231.64.33,"Mozilla/5.0 (Macintosh; Intel Mac OS X 10_14_6) AppleWebKit/605.1.15 (KHTML, like Gecko) Version/14.1.2 Safari/605.1.15",Macintosh,Safari,14.1.2,"OS X",10_14_6,fe3c1d035a65c549f7011c5446f73ede
24,1,null,null,psychophysics,195,555464,0.0-3.0-1.94,"""",key,null,16.5,720,418.5,"""","""","""","""","""","""","""","""","2021-10-04 18:55:04",99.231.64.33,"Mozilla/5.0 (Macintosh; Intel Mac OS X 10_14_6) AppleWebKit/605.1.15 (KHTML, like Gecko) Version/14.1.2 Safari/605.1.15",Macintosh,Safari,14.1.2,"OS X",10_14_6,fe3c1d035a65c549f7011c5446f73ede
24,1,1268,arrowright,psychophysics,196,556736,0.0-3.0-0.95,"""",key,arrowright,16.68,720,418.5,96,4,-1,24,15,25,35,false,"2021-10-04 18:55:04",99.231.64.33,"Mozilla/5.0 (Macintosh; Intel Mac OS X 10_14_6) AppleWebKit/605.1.15 (KHTML, like Gecko) Version/14.1.2 Safari/605.1.15",Macintosh,Safari,14.1.2,"OS X",10_14_6,fe3c1d035a65c549f7011c5446f73ede
24,1,null,null,psychophysics,197,557741,0.0-3.0-1.95,"""",key,null,16.34426229508197,720,418.5,"""","""","""","""","""","""","""","""","2021-10-04 18:55:04",99.231.64.33,"Mozilla/5.0 (Macintosh; Intel Mac OS X 10_14_6) AppleWebKit/605.1.15 (KHTML, like Gecko) Version/14.1.2 Safari/605.1.15",Macintosh,Safari,14.1.2,"OS X",10_14_6,fe3c1d035a65c549f7011c5446f73ede
24,1,1159,arrowleft,psychophysics,198,558911,0.0-3.0-0.96,"""",key,arrowleft,16.666666666666668,720,418.5,97,4,-1,25,35,25,35,true,"2021-10-04 18:55:04",99.231.64.33,"Mozilla/5.0 (Macintosh; Intel Mac OS X 10_14_6) AppleWebKit/605.1.15 (KHTML, like Gecko) Version/14.1.2 Safari/605.1.15",Macintosh,Safari,14.1.2,"OS X",10_14_6,fe3c1d035a65c549f7011c5446f73ede
24,1,null,null,psychophysics,199,559914,0.0-3.0-1.96,"""",key,null,16.5,720,418.5,"""","""","""","""","""","""","""","""","2021-10-04 18:55:04",99.231.64.33,"Mozilla/5.0 (Macintosh; Intel Mac OS X 10_14_6) AppleWebKit/605.1.15 (KHTML, like Gecko) Version/14.1.2 Safari/605.1.15",Macintosh,Safari,14.1.2,"OS X",10_14_6,fe3c1d035a65c549f7011c5446f73ede
24,1,1024,arrowleft,psychophysics,200,560943,0.0-3.0-0.97,"""",key,arrowleft,16.65573770491803,720,418.5,98,4,1,20,35,25,35,false,"2021-10-04 18:55:04",99.231.64.33,"Mozilla/5.0 (Macintosh; Intel Mac OS X 10_14_6) AppleWebKit/605.1.15 (KHTML, like Gecko) Version/14.1.2 Safari/605.1.15",Macintosh,Safari,14.1.2,"OS X",10_14_6,fe3c1d035a65c549f7011c5446f73ede
24,1,null,null,psychophysics,201,561946,0.0-3.0-1.97,"""",key,null,16.533333333333335,720,418.5,"""","""","""","""","""","""","""","""","2021-10-04 18:55:04",99.231.64.33,"Mozilla/5.0 (Macintosh; Intel Mac OS X 10_14_6) AppleWebKit/605.1.15 (KHTML, like Gecko) Version/14.1.2 Safari/605.1.15",Macintosh,Safari,14.1.2,"OS X",10_14_6,fe3c1d035a65c549f7011c5446f73ede
24,1,736,arrowleft,psychophysics,202,562687,0.0-3.0-0.98,"""",key,arrowleft,16.674418604651162,720,418.5,99,4,-1,30,35,25,35,true,"2021-10-04 18:55:04",99.231.64.33,"Mozilla/5.0 (Macintosh; Intel Mac OS X 10_14_6) AppleWebKit/605.1.15 (KHTML, like Gecko) Version/14.1.2 Safari/605.1.15",Macintosh,Safari,14.1.2,"OS X",10_14_6,fe3c1d035a65c549f7011c5446f73ede
24,1,null,null,psychophysics,203,563693,0.0-3.0-1.98,"""",key,null,16.37704918032787,720,418.5,"""","""","""","""","""","""","""","""","2021-10-04 18:55:04",99.231.64.33,"Mozilla/5.0 (Macintosh; Intel Mac OS X 10_14_6) AppleWebKit/605.1.15 (KHTML, like Gecko) Version/14.1.2 Safari/605.1.15",Macintosh,Safari,14.1.2,"OS X",10_14_6,fe3c1d035a65c549f7011c5446f73ede
24,1,775,arrowleft,psychophysics,204,564478,0.0-3.0-0.99,"""",key,arrowleft,16.695652173913043,720,418.5,100,4,-1,26,35,25,35,true,"2021-10-04 18:55:04",99.231.64.33,"Mozilla/5.0 (Macintosh; Intel Mac OS X 10_14_6) AppleWebKit/605.1.15 (KHTML, like Gecko) Version/14.1.2 Safari/605.1.15",Macintosh,Safari,14.1.2,"OS X",10_14_6,fe3c1d035a65c549f7011c5446f73ede
24,1,null,null,psychophysics,205,565480,0.0-3.0-1.99,"""",key,null,16.533333333333335,720,418.5,"""","""","""","""","""","""","""","""","2021-10-04 18:55:04",99.231.64.33,"Mozilla/5.0 (Macintosh; Intel Mac OS X 10_14_6) AppleWebKit/605.1.15 (KHTML, like Gecko) Version/14.1.2 Safari/605.1.15",Macintosh,Safari,14.1.2,"OS X",10_14_6,fe3c1d035a65c549f7011c5446f73ede
24,1,934,arrowleft,psychophysics,206,566419,0.0-3.0-0.100,"""",key,arrowleft,16.654545454545456,720,418.5,101,4,1,27,35,25,35,false,"2021-10-04 18:55:04",99.231.64.33,"Mozilla/5.0 (Macintosh; Intel Mac OS X 10_14_6) AppleWebKit/605.1.15 (KHTML, like Gecko) Version/14.1.2 Safari/605.1.15",Macintosh,Safari,14.1.2,"OS X",10_14_6,fe3c1d035a65c549f7011c5446f73ede
24,1,null,null,psychophysics,207,567423,0.0-3.0-1.100,"""",key,null,16.383333333333333,720,418.5,"""","""","""","""","""","""","""","""","2021-10-04 18:55:04",99.231.64.33,"Mozilla/5.0 (Macintosh; Intel Mac OS X 10_14_6) AppleWebKit/605.1.15 (KHTML, like Gecko) Version/14.1.2 Safari/605.1.15",Macintosh,Safari,14.1.2,"OS X",10_14_6,fe3c1d035a65c549f7011c5446f73ede
24,1,1157,arrowleft,psychophysics,208,568594,0.0-3.0-0.101,"""",key,arrowleft,16.6,720,418.5,102,4,-1,25,15,25,35,true,"2021-10-04 18:55:04",99.231.64.33,"Mozilla/5.0 (Macintosh; Intel Mac OS X 10_14_6) AppleWebKit/605.1.15 (KHTML, like Gecko) Version/14.1.2 Safari/605.1.15",Macintosh,Safari,14.1.2,"OS X",10_14_6,fe3c1d035a65c549f7011c5446f73ede
24,1,null,null,psychophysics,209,569597,0.0-3.0-1.101,"""",key,null,16.55,720,418.5,"""","""","""","""","""","""","""","""","2021-10-04 18:55:04",99.231.64.33,"Mozilla/5.0 (Macintosh; Intel Mac OS X 10_14_6) AppleWebKit/605.1.15 (KHTML, like Gecko) Version/14.1.2 Safari/605.1.15",Macintosh,Safari,14.1.2,"OS X",10_14_6,fe3c1d035a65c549f7011c5446f73ede
24,1,559,arrowleft,psychophysics,210,570181,0.0-3.0-0.102,"""",key,arrowleft,16.647058823529413,720,418.5,103,4,-1,30,35,25,35,true,"2021-10-04 18:55:04",99.231.64.33,"Mozilla/5.0 (Macintosh; Intel Mac OS X 10_14_6) AppleWebKit/605.1.15 (KHTML, like Gecko) Version/14.1.2 Safari/605.1.15",Macintosh,Safari,14.1.2,"OS X",10_14_6,fe3c1d035a65c549f7011c5446f73ede
24,1,null,null,psychophysics,211,571184,0.0-3.0-1.102,"""",key,null,16.466666666666665,720,418.5,"""","""","""","""","""","""","""","""","2021-10-04 18:55:04",99.231.64.33,"Mozilla/5.0 (Macintosh; Intel Mac OS X 10_14_6) AppleWebKit/605.1.15 (KHTML, like Gecko) Version/14.1.2 Safari/605.1.15",Macintosh,Safari,14.1.2,"OS X",10_14_6,fe3c1d035a65c549f7011c5446f73ede
24,1,831,arrowright,psychophysics,212,572019,0.0-3.0-0.103,"""",key,arrowright,16.6734693877551,720,418.5,104,4,1,27,15,25,35,true,"2021-10-04 18:55:04",99.231.64.33,"Mozilla/5.0 (Macintosh; Intel Mac OS X 10_14_6) AppleWebKit/605.1.15 (KHTML, like Gecko) Version/14.1.2 Safari/605.1.15",Macintosh,Safari,14.1.2,"OS X",10_14_6,fe3c1d035a65c549f7011c5446f73ede
24,1,null,null,psychophysics,213,573022,0.0-3.0-1.103,"""",key,null,16.416666666666668,720,418.5,"""","""","""","""","""","""","""","""","2021-10-04 18:55:04",99.231.64.33,"Mozilla/5.0 (Macintosh; Intel Mac OS X 10_14_6) AppleWebKit/605.1.15 (KHTML, like Gecko) Version/14.1.2 Safari/605.1.15",Macintosh,Safari,14.1.2,"OS X",10_14_6,fe3c1d035a65c549f7011c5446f73ede
24,1,859,arrowleft,psychophysics,214,573885,0.0-3.0-0.104,"""",key,arrowleft,16.627450980392158,720,418.5,105,4,-1,27,35,25,35,true,"2021-10-04 18:55:04",99.231.64.33,"Mozilla/5.0 (Macintosh; Intel Mac OS X 10_14_6) AppleWebKit/605.1.15 (KHTML, like Gecko) Version/14.1.2 Safari/605.1.15",Macintosh,Safari,14.1.2,"OS X",10_14_6,fe3c1d035a65c549f7011c5446f73ede
24,1,null,null,psychophysics,215,574888,0.0-3.0-1.104,"""",key,null,16.433333333333334,720,418.5,"""","""","""","""","""","""","""","""","2021-10-04 18:55:04",99.231.64.33,"Mozilla/5.0 (Macintosh; Intel Mac OS X 10_14_6) AppleWebKit/605.1.15 (KHTML, like Gecko) Version/14.1.2 Safari/605.1.15",Macintosh,Safari,14.1.2,"OS X",10_14_6,fe3c1d035a65c549f7011c5446f73ede
24,1,1248,arrowleft,psychophysics,216,576140,0.0-3.0-0.105,"""",key,arrowleft,16.64864864864865,720,418.5,106,4,1,20,35,25,35,false,"2021-10-04 18:55:04",99.231.64.33,"Mozilla/5.0 (Macintosh; Intel Mac OS X 10_14_6) AppleWebKit/605.1.15 (KHTML, like Gecko) Version/14.1.2 Safari/605.1.15",Macintosh,Safari,14.1.2,"OS X",10_14_6,fe3c1d035a65c549f7011c5446f73ede
24,1,null,null,psychophysics,217,577148,0.0-3.0-1.105,"""",key,null,16.24590163934426,720,418.5,"""","""","""","""","""","""","""","""","2021-10-04 18:55:04",99.231.64.33,"Mozilla/5.0 (Macintosh; Intel Mac OS X 10_14_6) AppleWebKit/605.1.15 (KHTML, like Gecko) Version/14.1.2 Safari/605.1.15",Macintosh,Safari,14.1.2,"OS X",10_14_6,fe3c1d035a65c549f7011c5446f73ede
24,1,1270,arrowleft,psychophysics,218,578423,0.0-3.0-0.106,"""",key,arrowleft,16.666666666666668,720,418.5,107,4,-1,25,35,25,35,true,"2021-10-04 18:55:04",99.231.64.33,"Mozilla/5.0 (Macintosh; Intel Mac OS X 10_14_6) AppleWebKit/605.1.15 (KHTML, like Gecko) Version/14.1.2 Safari/605.1.15",Macintosh,Safari,14.1.2,"OS X",10_14_6,fe3c1d035a65c549f7011c5446f73ede
24,1,null,null,psychophysics,219,579428,0.0-3.0-1.106,"""",key,null,16.360655737704917,720,418.5,"""","""","""","""","""","""","""","""","2021-10-04 18:55:04",99.231.64.33,"Mozilla/5.0 (Macintosh; Intel Mac OS X 10_14_6) AppleWebKit/605.1.15 (KHTML, like Gecko) Version/14.1.2 Safari/605.1.15",Macintosh,Safari,14.1.2,"OS X",10_14_6,fe3c1d035a65c549f7011c5446f73ede
24,1,971,arrowright,psychophysics,220,580403,0.0-3.0-0.107,"""",key,arrowright,16.666666666666668,720,418.5,108,4,1,23,15,25,35,true,"2021-10-04 18:55:04",99.231.64.33,"Mozilla/5.0 (Macintosh; Intel Mac OS X 10_14_6) AppleWebKit/605.1.15 (KHTML, like Gecko) Version/14.1.2 Safari/605.1.15",Macintosh,Safari,14.1.2,"OS X",10_14_6,fe3c1d035a65c549f7011c5446f73ede
24,1,null,null,psychophysics,221,581406,0.0-3.0-1.107,"""",key,null,16.416666666666668,720,418.5,"""","""","""","""","""","""","""","""","2021-10-04 18:55:04",99.231.64.33,"Mozilla/5.0 (Macintosh; Intel Mac OS X 10_14_6) AppleWebKit/605.1.15 (KHTML, like Gecko) Version/14.1.2 Safari/605.1.15",Macintosh,Safari,14.1.2,"OS X",10_14_6,fe3c1d035a65c549f7011c5446f73ede
24,1,792.0000000001164,arrowleft,psychophysics,222,582203,0.0-3.0-0.108,"""",key,arrowleft,16.617021276595743,720,418.5,109,4,-1,27,15,25,35,true,"2021-10-04 18:55:04",99.231.64.33,"Mozilla/5.0 (Macintosh; Intel Mac OS X 10_14_6) AppleWebKit/605.1.15 (KHTML, like Gecko) Version/14.1.2 Safari/605.1.15",Macintosh,Safari,14.1.2,"OS X",10_14_6,fe3c1d035a65c549f7011c5446f73ede
24,1,null,null,psychophysics,223,583206,0.0-3.0-1.108,"""",key,null,16.4,720,418.5,"""","""","""","""","""","""","""","""","2021-10-04 18:55:04",99.231.64.33,"Mozilla/5.0 (Macintosh; Intel Mac OS X 10_14_6) AppleWebKit/605.1.15 (KHTML, like Gecko) Version/14.1.2 Safari/605.1.15",Macintosh,Safari,14.1.2,"OS X",10_14_6,fe3c1d035a65c549f7011c5446f73ede
24,1,1051,arrowleft,psychophysics,224,584261,0.0-3.0-0.109,"""",key,arrowleft,16.603174603174605,720,418.5,110,4,-1,26,35,25,35,true,"2021-10-04 18:55:04",99.231.64.33,"Mozilla/5.0 (Macintosh; Intel Mac OS X 10_14_6) AppleWebKit/605.1.15 (KHTML, like Gecko) Version/14.1.2 Safari/605.1.15",Macintosh,Safari,14.1.2,"OS X",10_14_6,fe3c1d035a65c549f7011c5446f73ede
24,1,null,null,psychophysics,225,585270,0.0-3.0-1.109,"""",key,null,16.483333333333334,720,418.5,"""","""","""","""","""","""","""","""","2021-10-04 18:55:04",99.231.64.33,"Mozilla/5.0 (Macintosh; Intel Mac OS X 10_14_6) AppleWebKit/605.1.15 (KHTML, like Gecko) Version/14.1.2 Safari/605.1.15",Macintosh,Safari,14.1.2,"OS X",10_14_6,fe3c1d035a65c549f7011c5446f73ede
24,1,879,arrowleft,psychophysics,226,586153,0.0-3.0-0.110,"""",key,arrowleft,16.673076923076923,720,418.5,111,4,1,23,35,25,35,false,"2021-10-04 18:55:04",99.231.64.33,"Mozilla/5.0 (Macintosh; Intel Mac OS X 10_14_6) AppleWebKit/605.1.15 (KHTML, like Gecko) Version/14.1.2 Safari/605.1.15",Macintosh,Safari,14.1.2,"OS X",10_14_6,fe3c1d035a65c549f7011c5446f73ede
24,1,null,null,psychophysics,227,587155,0.0-3.0-1.110,"""",key,null,16.416666666666668,720,418.5,"""","""","""","""","""","""","""","""","2021-10-04 18:55:04",99.231.64.33,"Mozilla/5.0 (Macintosh; Intel Mac OS X 10_14_6) AppleWebKit/605.1.15 (KHTML, like Gecko) Version/14.1.2 Safari/605.1.15",Macintosh,Safari,14.1.2,"OS X",10_14_6,fe3c1d035a65c549f7011c5446f73ede
24,1,650,arrowleft,psychophysics,228,587820,0.0-3.0-0.111,"""",key,arrowleft,16.641025641025642,720,418.5,112,5,1,23,35,25,35,false,"2021-10-04 18:55:04",99.231.64.33,"Mozilla/5.0 (Macintosh; Intel Mac OS X 10_14_6) AppleWebKit/605.1.15 (KHTML, like Gecko) Version/14.1.2 Safari/605.1.15",Macintosh,Safari,14.1.2,"OS X",10_14_6,fe3c1d035a65c549f7011c5446f73ede
24,1,null,null,psychophysics,229,588823,0.0-3.0-1.111,"""",key,null,16.416666666666668,720,418.5,"""","""","""","""","""","""","""","""","2021-10-04 18:55:04",99.231.64.33,"Mozilla/5.0 (Macintosh; Intel Mac OS X 10_14_6) AppleWebKit/605.1.15 (KHTML, like Gecko) Version/14.1.2 Safari/605.1.15",Macintosh,Safari,14.1.2,"OS X",10_14_6,fe3c1d035a65c549f7011c5446f73ede
24,1,46558," ",html-keyboard-response,230,635384,0.0-3.0-2.111-0.111,"<div style=""color: white; text-align: center; vertical-align: top; display: inline-block; width: 800px; margin: auto""><p>You have completed 40% of the trials. You are on block 5 of 10. <br>Good job! Take a break if you need to.</p><p>Press any key to continue the experiment.</p></div>","""","""","""","""","""","""","""","""","""","""","""","""","""","2021-10-04 18:55:04",99.231.64.33,"Mozilla/5.0 (Macintosh; Intel Mac OS X 10_14_6) AppleWebKit/605.1.15 (KHTML, like Gecko) Version/14.1.2 Safari/605.1.15",Macintosh,Safari,14.1.2,"OS X",10_14_6,fe3c1d035a65c549f7011c5446f73ede
24,1,1098.9999999998836,arrowright,psychophysics,231,637495,0.0-3.0-0.112,"""",key,arrowright,16.671875,720,418.5,113,5,1,30,35,25,35,true,"2021-10-04 18:55:04",99.231.64.33,"Mozilla/5.0 (Macintosh; Intel Mac OS X 10_14_6) AppleWebKit/605.1.15 (KHTML, like Gecko) Version/14.1.2 Safari/605.1.15",Macintosh,Safari,14.1.2,"OS X",10_14_6,fe3c1d035a65c549f7011c5446f73ede
24,1,null,null,psychophysics,232,638500,0.0-3.0-1.112,"""",key,null,16.34426229508197,720,418.5,"""","""","""","""","""","""","""","""","2021-10-04 18:55:04",99.231.64.33,"Mozilla/5.0 (Macintosh; Intel Mac OS X 10_14_6) AppleWebKit/605.1.15 (KHTML, like Gecko) Version/14.1.2 Safari/605.1.15",Macintosh,Safari,14.1.2,"OS X",10_14_6,fe3c1d035a65c549f7011c5446f73ede
24,1,613,arrowright,psychophysics,233,639118,0.0-3.0-0.113,"""",key,arrowright,16.666666666666668,720,418.5,114,5,1,30,35,25,35,true,"2021-10-04 18:55:04",99.231.64.33,"Mozilla/5.0 (Macintosh; Intel Mac OS X 10_14_6) AppleWebKit/605.1.15 (KHTML, like Gecko) Version/14.1.2 Safari/605.1.15",Macintosh,Safari,14.1.2,"OS X",10_14_6,fe3c1d035a65c549f7011c5446f73ede
24,1,null,null,psychophysics,234,640121,0.0-3.0-1.113,"""",key,null,16.533333333333335,720,418.5,"""","""","""","""","""","""","""","""","2021-10-04 18:55:04",99.231.64.33,"Mozilla/5.0 (Macintosh; Intel Mac OS X 10_14_6) AppleWebKit/605.1.15 (KHTML, like Gecko) Version/14.1.2 Safari/605.1.15",Macintosh,Safari,14.1.2,"OS X",10_14_6,fe3c1d035a65c549f7011c5446f73ede
24,1,2049,arrowleft,psychophysics,235,642175,0.0-3.0-0.114,"""",key,arrowleft,16.672131147540984,720,418.5,115,5,-1,25,15,25,35,true,"2021-10-04 18:55:04",99.231.64.33,"Mozilla/5.0 (Macintosh; Intel Mac OS X 10_14_6) AppleWebKit/605.1.15 (KHTML, like Gecko) Version/14.1.2 Safari/605.1.15",Macintosh,Safari,14.1.2,"OS X",10_14_6,fe3c1d035a65c549f7011c5446f73ede
24,1,null,null,psychophysics,236,643184,0.0-3.0-1.114,"""",key,null,16.327868852459016,720,418.5,"""","""","""","""","""","""","""","""","2021-10-04 18:55:04",99.231.64.33,"Mozilla/5.0 (Macintosh; Intel Mac OS X 10_14_6) AppleWebKit/605.1.15 (KHTML, like Gecko) Version/14.1.2 Safari/605.1.15",Macintosh,Safari,14.1.2,"OS X",10_14_6,fe3c1d035a65c549f7011c5446f73ede
24,1,887,arrowright,psychophysics,237,644075,0.0-3.0-0.115,"""",key,arrowright,16.673076923076923,720,418.5,116,5,1,25,15,25,35,true,"2021-10-04 18:55:04",99.231.64.33,"Mozilla/5.0 (Macintosh; Intel Mac OS X 10_14_6) AppleWebKit/605.1.15 (KHTML, like Gecko) Version/14.1.2 Safari/605.1.15",Macintosh,Safari,14.1.2,"OS X",10_14_6,fe3c1d035a65c549f7011c5446f73ede
24,1,null,null,psychophysics,238,645079,0.0-3.0-1.115,"""",key,null,16.416666666666668,720,418.5,"""","""","""","""","""","""","""","""","2021-10-04 18:55:04",99.231.64.33,"Mozilla/5.0 (Macintosh; Intel Mac OS X 10_14_6) AppleWebKit/605.1.15 (KHTML, like Gecko) Version/14.1.2 Safari/605.1.15",Macintosh,Safari,14.1.2,"OS X",10_14_6,fe3c1d035a65c549f7011c5446f73ede
24,1,713,arrowright,psychophysics,239,645795,0.0-3.0-0.116,"""",key,arrowright,16.642857142857142,720,418.5,117,5,1,26,15,25,35,true,"2021-10-04 18:55:04",99.231.64.33,"Mozilla/5.0 (Macintosh; Intel Mac OS X 10_14_6) AppleWebKit/605.1.15 (KHTML, like Gecko) Version/14.1.2 Safari/605.1.15",Macintosh,Safari,14.1.2,"OS X",10_14_6,fe3c1d035a65c549f7011c5446f73ede
24,1,null,null,psychophysics,240,646801,0.0-3.0-1.116,"""",key,null,16.360655737704917,720,418.5,"""","""","""","""","""","""","""","""","2021-10-04 18:55:04",99.231.64.33,"Mozilla/5.0 (Macintosh; Intel Mac OS X 10_14_6) AppleWebKit/605.1.15 (KHTML, like Gecko) Version/14.1.2 Safari/605.1.15",Macintosh,Safari,14.1.2,"OS X",10_14_6,fe3c1d035a65c549f7011c5446f73ede
24,1,1861,arrowleft,psychophysics,241,648668,0.0-3.0-0.117,"""",key,arrowleft,16.666666666666668,720,418.5,118,5,1,25,35,25,35,false,"2021-10-04 18:55:04",99.231.64.33,"Mozilla/5.0 (Macintosh; Intel Mac OS X 10_14_6) AppleWebKit/605.1.15 (KHTML, like Gecko) Version/14.1.2 Safari/605.1.15",Macintosh,Safari,14.1.2,"OS X",10_14_6,fe3c1d035a65c549f7011c5446f73ede
24,1,null,null,psychophysics,242,649678,0.0-3.0-1.117,"""",key,null,16.45,720,418.5,"""","""","""","""","""","""","""","""","2021-10-04 18:55:04",99.231.64.33,"Mozilla/5.0 (Macintosh; Intel Mac OS X 10_14_6) AppleWebKit/605.1.15 (KHTML, like Gecko) Version/14.1.2 Safari/605.1.15",Macintosh,Safari,14.1.2,"OS X",10_14_6,fe3c1d035a65c549f7011c5446f73ede
24,1,1196,arrowleft,psychophysics,243,650879,0.0-3.0-0.118,"""",key,arrowleft,16.633802816901408,720,418.5,119,5,-1,27,15,25,35,true,"2021-10-04 18:55:04",99.231.64.33,"Mozilla/5.0 (Macintosh; Intel Mac OS X 10_14_6) AppleWebKit/605.1.15 (KHTML, like Gecko) Version/14.1.2 Safari/605.1.15",Macintosh,Safari,14.1.2,"OS X",10_14_6,fe3c1d035a65c549f7011c5446f73ede
24,1,null,null,psychophysics,244,651884,0.0-3.0-1.118,"""",key,null,16.37704918032787,720,418.5,"""","""","""","""","""","""","""","""","2021-10-04 18:55:04",99.231.64.33,"Mozilla/5.0 (Macintosh; Intel Mac OS X 10_14_6) AppleWebKit/605.1.15 (KHTML, like Gecko) Version/14.1.2 Safari/605.1.15",Macintosh,Safari,14.1.2,"OS X",10_14_6,fe3c1d035a65c549f7011c5446f73ede
24,1,788.0000000001164,arrowright,psychophysics,245,652676,0.0-3.0-0.119,"""",key,arrowright,16.652173913043477,720,418.5,120,5,-1,20,15,25,35,false,"2021-10-04 18:55:04",99.231.64.33,"Mozilla/5.0 (Macintosh; Intel Mac OS X 10_14_6) AppleWebKit/605.1.15 (KHTML, like Gecko) Version/14.1.2 Safari/605.1.15",Macintosh,Safari,14.1.2,"OS X",10_14_6,fe3c1d035a65c549f7011c5446f73ede
24,1,null,null,psychophysics,246,653680,0.0-3.0-1.119,"""",key,null,16.4,720,418.5,"""","""","""","""","""","""","""","""","2021-10-04 18:55:04",99.231.64.33,"Mozilla/5.0 (Macintosh; Intel Mac OS X 10_14_6) AppleWebKit/605.1.15 (KHTML, like Gecko) Version/14.1.2 Safari/605.1.15",Macintosh,Safari,14.1.2,"OS X",10_14_6,fe3c1d035a65c549f7011c5446f73ede
24,1,545.0000000001164,arrowleft,psychophysics,247,654229,0.0-3.0-0.120,"""",key,arrowleft,16.5625,720,418.5,121,5,1,20,15,25,35,false,"2021-10-04 18:55:04",99.231.64.33,"Mozilla/5.0 (Macintosh; Intel Mac OS X 10_14_6) AppleWebKit/605.1.15 (KHTML, like Gecko) Version/14.1.2 Safari/605.1.15",Macintosh,Safari,14.1.2,"OS X",10_14_6,fe3c1d035a65c549f7011c5446f73ede
24,1,null,null,psychophysics,248,655232,0.0-3.0-1.120,"""",key,null,16.366666666666667,720,418.5,"""","""","""","""","""","""","""","""","2021-10-04 18:55:04",99.231.64.33,"Mozilla/5.0 (Macintosh; Intel Mac OS X 10_14_6) AppleWebKit/605.1.15 (KHTML, like Gecko) Version/14.1.2 Safari/605.1.15",Macintosh,Safari,14.1.2,"OS X",10_14_6,fe3c1d035a65c549f7011c5446f73ede
24,1,562.0000000001164,arrowright,psychophysics,249,655806,0.0-3.0-0.121,"""",key,arrowright,16.294117647058822,720,418.5,122,5,1,25,15,25,35,true,"2021-10-04 18:55:04",99.231.64.33,"Mozilla/5.0 (Macintosh; Intel Mac OS X 10_14_6) AppleWebKit/605.1.15 (KHTML, like Gecko) Version/14.1.2 Safari/605.1.15",Macintosh,Safari,14.1.2,"OS X",10_14_6,fe3c1d035a65c549f7011c5446f73ede
24,1,null,null,psychophysics,250,656811,0.0-3.0-1.121,"""",key,null,16.45,720,418.5,"""","""","""","""","""","""","""","""","2021-10-04 18:55:04",99.231.64.33,"Mozilla/5.0 (Macintosh; Intel Mac OS X 10_14_6) AppleWebKit/605.1.15 (KHTML, like Gecko) Version/14.1.2 Safari/605.1.15",Macintosh,Safari,14.1.2,"OS X",10_14_6,fe3c1d035a65c549f7011c5446f73ede
24,1,540,arrowleft,psychophysics,251,657355,0.0-3.0-0.122,"""",key,arrowleft,16.59375,720,418.5,123,5,-1,24,15,25,35,true,"2021-10-04 18:55:04",99.231.64.33,"Mozilla/5.0 (Macintosh; Intel Mac OS X 10_14_6) AppleWebKit/605.1.15 (KHTML, like Gecko) Version/14.1.2 Safari/605.1.15",Macintosh,Safari,14.1.2,"OS X",10_14_6,fe3c1d035a65c549f7011c5446f73ede
24,1,null,null,psychophysics,252,658358,0.0-3.0-1.122,"""",key,null,16.466666666666665,720,418.5,"""","""","""","""","""","""","""","""","2021-10-04 18:55:04",99.231.64.33,"Mozilla/5.0 (Macintosh; Intel Mac OS X 10_14_6) AppleWebKit/605.1.15 (KHTML, like Gecko) Version/14.1.2 Safari/605.1.15",Macintosh,Safari,14.1.2,"OS X",10_14_6,fe3c1d035a65c549f7011c5446f73ede
24,1,617.0000000001164,arrowleft,psychophysics,253,658979,0.0-3.0-0.123,"""",key,arrowleft,16.666666666666668,720,418.5,124,5,-1,30,15,25,35,true,"2021-10-04 18:55:04",99.231.64.33,"Mozilla/5.0 (Macintosh; Intel Mac OS X 10_14_6) AppleWebKit/605.1.15 (KHTML, like Gecko) Version/14.1.2 Safari/605.1.15",Macintosh,Safari,14.1.2,"OS X",10_14_6,fe3c1d035a65c549f7011c5446f73ede
24,1,null,null,psychophysics,254,659982,0.0-3.0-1.123,"""",key,null,16.383333333333333,720,418.5,"""","""","""","""","""","""","""","""","2021-10-04 18:55:04",99.231.64.33,"Mozilla/5.0 (Macintosh; Intel Mac OS X 10_14_6) AppleWebKit/605.1.15 (KHTML, like Gecko) Version/14.1.2 Safari/605.1.15",Macintosh,Safari,14.1.2,"OS X",10_14_6,fe3c1d035a65c549f7011c5446f73ede
24,1,896,arrowright,psychophysics,255,660886,0.0-3.0-0.124,"""",key,arrowright,16.51851851851852,720,418.5,125,5,1,24,15,25,35,true,"2021-10-04 18:55:04",99.231.64.33,"Mozilla/5.0 (Macintosh; Intel Mac OS X 10_14_6) AppleWebKit/605.1.15 (KHTML, like Gecko) Version/14.1.2 Safari/605.1.15",Macintosh,Safari,14.1.2,"OS X",10_14_6,fe3c1d035a65c549f7011c5446f73ede
24,1,null,null,psychophysics,256,661889,0.0-3.0-1.124,"""",key,null,16.566666666666666,720,418.5,"""","""","""","""","""","""","""","""","2021-10-04 18:55:04",99.231.64.33,"Mozilla/5.0 (Macintosh; Intel Mac OS X 10_14_6) AppleWebKit/605.1.15 (KHTML, like Gecko) Version/14.1.2 Safari/605.1.15",Macintosh,Safari,14.1.2,"OS X",10_14_6,fe3c1d035a65c549f7011c5446f73ede
24,1,587,arrowleft,psychophysics,257,662486,0.0-3.0-0.125,"""",key,arrowleft,16.62857142857143,720,418.5,126,5,-1,27,35,25,35,true,"2021-10-04 18:55:04",99.231.64.33,"Mozilla/5.0 (Macintosh; Intel Mac OS X 10_14_6) AppleWebKit/605.1.15 (KHTML, like Gecko) Version/14.1.2 Safari/605.1.15",Macintosh,Safari,14.1.2,"OS X",10_14_6,fe3c1d035a65c549f7011c5446f73ede
24,1,null,null,psychophysics,258,663489,0.0-3.0-1.125,"""",key,null,16.566666666666666,720,418.5,"""","""","""","""","""","""","""","""","2021-10-04 18:55:04",99.231.64.33,"Mozilla/5.0 (Macintosh; Intel Mac OS X 10_14_6) AppleWebKit/605.1.15 (KHTML, like Gecko) Version/14.1.2 Safari/605.1.15",Macintosh,Safari,14.1.2,"OS X",10_14_6,fe3c1d035a65c549f7011c5446f73ede
24,1,485,arrowleft,psychophysics,259,663979,0.0-3.0-0.126,"""",key,arrowleft,16.678571428571427,720,418.5,127,5,1,20,15,25,35,false,"2021-10-04 18:55:04",99.231.64.33,"Mozilla/5.0 (Macintosh; Intel Mac OS X 10_14_6) AppleWebKit/605.1.15 (KHTML, like Gecko) Version/14.1.2 Safari/605.1.15",Macintosh,Safari,14.1.2,"OS X",10_14_6,fe3c1d035a65c549f7011c5446f73ede
24,1,null,null,psychophysics,260,664982,0.0-3.0-1.126,"""",key,null,16.4,720,418.5,"""","""","""","""","""","""","""","""","2021-10-04 18:55:04",99.231.64.33,"Mozilla/5.0 (Macintosh; Intel Mac OS X 10_14_6) AppleWebKit/605.1.15 (KHTML, like Gecko) Version/14.1.2 Safari/605.1.15",Macintosh,Safari,14.1.2,"OS X",10_14_6,fe3c1d035a65c549f7011c5446f73ede
24,1,545,arrowright,psychophysics,261,665530,0.0-3.0-0.127,"""",key,arrowright,16.53125,720,418.5,128,5,1,27,15,25,35,true,"2021-10-04 18:55:04",99.231.64.33,"Mozilla/5.0 (Macintosh; Intel Mac OS X 10_14_6) AppleWebKit/605.1.15 (KHTML, like Gecko) Version/14.1.2 Safari/605.1.15",Macintosh,Safari,14.1.2,"OS X",10_14_6,fe3c1d035a65c549f7011c5446f73ede
24,1,null,null,psychophysics,262,666533,0.0-3.0-1.127,"""",key,null,16.383333333333333,720,418.5,"""","""","""","""","""","""","""","""","2021-10-04 18:55:04",99.231.64.33,"Mozilla/5.0 (Macintosh; Intel Mac OS X 10_14_6) AppleWebKit/605.1.15 (KHTML, like Gecko) Version/14.1.2 Safari/605.1.15",Macintosh,Safari,14.1.2,"OS X",10_14_6,fe3c1d035a65c549f7011c5446f73ede
24,1,576,arrowleft,psychophysics,263,667113,0.0-3.0-0.128,"""",key,arrowleft,16.558823529411764,720,418.5,129,5,-1,30,35,25,35,true,"2021-10-04 18:55:04",99.231.64.33,"Mozilla/5.0 (Macintosh; Intel Mac OS X 10_14_6) AppleWebKit/605.1.15 (KHTML, like Gecko) Version/14.1.2 Safari/605.1.15",Macintosh,Safari,14.1.2,"OS X",10_14_6,fe3c1d035a65c549f7011c5446f73ede
24,1,null,null,psychophysics,264,668116,0.0-3.0-1.128,"""",key,null,16.4,720,418.5,"""","""","""","""","""","""","""","""","2021-10-04 18:55:04",99.231.64.33,"Mozilla/5.0 (Macintosh; Intel Mac OS X 10_14_6) AppleWebKit/605.1.15 (KHTML, like Gecko) Version/14.1.2 Safari/605.1.15",Macintosh,Safari,14.1.2,"OS X",10_14_6,fe3c1d035a65c549f7011c5446f73ede
24,1,827,arrowleft,psychophysics,265,668954,0.0-3.0-0.129,"""",key,arrowleft,16.44,720,418.5,130,5,1,24,35,25,35,false,"2021-10-04 18:55:04",99.231.64.33,"Mozilla/5.0 (Macintosh; Intel Mac OS X 10_14_6) AppleWebKit/605.1.15 (KHTML, like Gecko) Version/14.1.2 Safari/605.1.15",Macintosh,Safari,14.1.2,"OS X",10_14_6,fe3c1d035a65c549f7011c5446f73ede
24,1,null,null,psychophysics,266,669958,0.0-3.0-1.129,"""",key,null,16.5,720,418.5,"""","""","""","""","""","""","""","""","2021-10-04 18:55:04",99.231.64.33,"Mozilla/5.0 (Macintosh; Intel Mac OS X 10_14_6) AppleWebKit/605.1.15 (KHTML, like Gecko) Version/14.1.2 Safari/605.1.15",Macintosh,Safari,14.1.2,"OS X",10_14_6,fe3c1d035a65c549f7011c5446f73ede
24,1,749,arrowleft,psychophysics,267,670714,0.0-3.0-0.130,"""",key,arrowleft,16.65909090909091,720,418.5,131,5,1,23,35,25,35,false,"2021-10-04 18:55:04",99.231.64.33,"Mozilla/5.0 (Macintosh; Intel Mac OS X 10_14_6) AppleWebKit/605.1.15 (KHTML, like Gecko) Version/14.1.2 Safari/605.1.15",Macintosh,Safari,14.1.2,"OS X",10_14_6,fe3c1d035a65c549f7011c5446f73ede
24,1,null,null,psychophysics,268,671717,0.0-3.0-1.130,"""",key,null,16.383333333333333,720,418.5,"""","""","""","""","""","""","""","""","2021-10-04 18:55:04",99.231.64.33,"Mozilla/5.0 (Macintosh; Intel Mac OS X 10_14_6) AppleWebKit/605.1.15 (KHTML, like Gecko) Version/14.1.2 Safari/605.1.15",Macintosh,Safari,14.1.2,"OS X",10_14_6,fe3c1d035a65c549f7011c5446f73ede
24,1,567,arrowright,psychophysics,269,672287,0.0-3.0-0.131,"""",key,arrowright,16.5,720,418.5,132,5,1,27,15,25,35,true,"2021-10-04 18:55:04",99.231.64.33,"Mozilla/5.0 (Macintosh; Intel Mac OS X 10_14_6) AppleWebKit/605.1.15 (KHTML, like Gecko) Version/14.1.2 Safari/605.1.15",Macintosh,Safari,14.1.2,"OS X",10_14_6,fe3c1d035a65c549f7011c5446f73ede
24,1,null,null,psychophysics,270,673291,0.0-3.0-1.131,"""",key,null,16.533333333333335,720,418.5,"""","""","""","""","""","""","""","""","2021-10-04 18:55:04",99.231.64.33,"Mozilla/5.0 (Macintosh; Intel Mac OS X 10_14_6) AppleWebKit/605.1.15 (KHTML, like Gecko) Version/14.1.2 Safari/605.1.15",Macintosh,Safari,14.1.2,"OS X",10_14_6,fe3c1d035a65c549f7011c5446f73ede
