run_id,condition,rt,response,trial_type,trial_index,time_elapsed,internal_node_id,stimulus,response_type,key_press,avg_frame_time,center_x,center_y,trial,block,test_pos,test_inner_radius,test_outer_radius,ref_inner_radius,ref_outer_radius,test_bigger,recorded_at,ip,user_agent,device,browser,browser_version,platform,platform_version,source_code_version
5,1,23936.69999998808,"{""p_id"":""999"",""age"":""20"",""handedness"":""right"",""sex"":""male"",""other_sex"":""}",survey-html-form,0,23951,0.0-0.0,"""","""","""","""","""","""","""","""","""","""","""","""","""","""","2021-08-20 21:57:14",99.233.11.22,"Mozilla/5.0 (Windows NT 10.0; Win64; x64) AppleWebKit/537.36 (KHTML, like Gecko) Chrome/92.0.4515.159 Safari/537.36",WebKit,Chrome,92.0.4515.159,Windows,10.0,fe3c1d035a65c549f7011c5446f73ede
5,1,3858.399999976158,k,html-keyboard-response,1,27824,0.0-1.0,"<p style=""color: white"">Welcome to the Size Judgment Experiment. <br>There will be 10 blocks in this experiment. <br>There will be 28 trials in each block. <br>You will be given a chance to take a break between blocks. <br>Press any key to start the experiment.</p>","""","""","""","""","""","""","""","""","""","""","""","""","""","2021-08-20 21:57:14",99.233.11.22,"Mozilla/5.0 (Windows NT 10.0; Win64; x64) AppleWebKit/537.36 (KHTML, like Gecko) Chrome/92.0.4515.159 Safari/537.36",WebKit,Chrome,92.0.4515.159,Windows,10.0,fe3c1d035a65c549f7011c5446f73ede
5,1,1956.199999988079,k,psychophysics,2,29840,0.0-2.0,"""",key,k,16.967720338983042,640,304.5,"""","""","""","""","""","""","""","""","2021-08-20 21:57:14",99.233.11.22,"Mozilla/5.0 (Windows NT 10.0; Win64; x64) AppleWebKit/537.36 (KHTML, like Gecko) Chrome/92.0.4515.159 Safari/537.36",WebKit,Chrome,92.0.4515.159,Windows,10.0,fe3c1d035a65c549f7011c5446f73ede
5,1,1221,arrowright,psychophysics,3,31096,0.0-3.0-0.0,"""",key,arrowright,16.913337837837833,640,304.5,1,1,1,27,35,25,35,true,"2021-08-20 21:57:14",99.233.11.22,"Mozilla/5.0 (Windows NT 10.0; Win64; x64) AppleWebKit/537.36 (KHTML, like Gecko) Chrome/92.0.4515.159 Safari/537.36",WebKit,Chrome,92.0.4515.159,Windows,10.0,fe3c1d035a65c549f7011c5446f73ede
5,1,null,null,psychophysics,4,32110,0.0-3.0-1.0,"""",key,null,16.681847457627107,640,304.5,"""","""","""","""","""","""","""","""","2021-08-20 21:57:14",99.233.11.22,"Mozilla/5.0 (Windows NT 10.0; Win64; x64) AppleWebKit/537.36 (KHTML, like Gecko) Chrome/92.0.4515.159 Safari/537.36",WebKit,Chrome,92.0.4515.159,Windows,10.0,fe3c1d035a65c549f7011c5446f73ede
5,1,872.1999999880791,arrowright,psychophysics,5,32999,0.0-3.0-0.1,"""",key,arrowright,16.6802075471698,640,304.5,2,1,1,30,15,25,35,true,"2021-08-20 21:57:14",99.233.11.22,"Mozilla/5.0 (Windows NT 10.0; Win64; x64) AppleWebKit/537.36 (KHTML, like Gecko) Chrome/92.0.4515.159 Safari/537.36",WebKit,Chrome,92.0.4515.159,Windows,10.0,fe3c1d035a65c549f7011c5446f73ede
5,1,null,null,psychophysics,6,34011,0.0-3.0-1.1,"""",key,null,16.687627118644063,640,304.5,"""","""","""","""","""","""","""","""","2021-08-20 21:57:14",99.233.11.22,"Mozilla/5.0 (Windows NT 10.0; Win64; x64) AppleWebKit/537.36 (KHTML, like Gecko) Chrome/92.0.4515.159 Safari/537.36",WebKit,Chrome,92.0.4515.159,Windows,10.0,fe3c1d035a65c549f7011c5446f73ede
5,1,1636.4000000357628,arrowright,psychophysics,7,35662,0.0-3.0-0.2,"""",key,arrowright,16.684775510204084,640,304.5,3,1,1,25,35,25,35,true,"2021-08-20 21:57:14",99.233.11.22,"Mozilla/5.0 (Windows NT 10.0; Win64; x64) AppleWebKit/537.36 (KHTML, like Gecko) Chrome/92.0.4515.159 Safari/537.36",WebKit,Chrome,92.0.4515.159,Windows,10.0,fe3c1d035a65c549f7011c5446f73ede
5,1,null,null,psychophysics,8,36681,0.0-3.0-1.2,"""",key,null,16.684916666666687,640,304.5,"""","""","""","""","""","""","""","""","2021-08-20 21:57:14",99.233.11.22,"Mozilla/5.0 (Windows NT 10.0; Win64; x64) AppleWebKit/537.36 (KHTML, like Gecko) Chrome/92.0.4515.159 Safari/537.36",WebKit,Chrome,92.0.4515.159,Windows,10.0,fe3c1d035a65c549f7011c5446f73ede
5,1,1066.8999999761581,arrowright,psychophysics,9,37763,0.0-3.0-0.3,"""",key,arrowright,16.685937500000023,640,304.5,4,1,1,30,15,25,35,true,"2021-08-20 21:57:14",99.233.11.22,"Mozilla/5.0 (Windows NT 10.0; Win64; x64) AppleWebKit/537.36 (KHTML, like Gecko) Chrome/92.0.4515.159 Safari/537.36",WebKit,Chrome,92.0.4515.159,Windows,10.0,fe3c1d035a65c549f7011c5446f73ede
5,1,null,null,psychophysics,10,38768,0.0-3.0-1.3,"""",key,null,16.68671666666669,640,304.5,"""","""","""","""","""","""","""","""","2021-08-20 21:57:14",99.233.11.22,"Mozilla/5.0 (Windows NT 10.0; Win64; x64) AppleWebKit/537.36 (KHTML, like Gecko) Chrome/92.0.4515.159 Safari/537.36",WebKit,Chrome,92.0.4515.159,Windows,10.0,fe3c1d035a65c549f7011c5446f73ede
5,1,1987.699999988079,arrowright,psychophysics,11,40784,0.0-3.0-0.4,"""",key,arrowright,16.687025210084045,640,304.5,5,1,1,25,15,25,35,true,"2021-08-20 21:57:14",99.233.11.22,"Mozilla/5.0 (Windows NT 10.0; Win64; x64) AppleWebKit/537.36 (KHTML, like Gecko) Chrome/92.0.4515.159 Safari/537.36",WebKit,Chrome,92.0.4515.159,Windows,10.0,fe3c1d035a65c549f7011c5446f73ede
5,1,null,null,psychophysics,12,41800,0.0-3.0-1.4,"""",key,null,16.68845000000001,640,304.5,"""","""","""","""","""","""","""","""","2021-08-20 21:57:14",99.233.11.22,"Mozilla/5.0 (Windows NT 10.0; Win64; x64) AppleWebKit/537.36 (KHTML, like Gecko) Chrome/92.0.4515.159 Safari/537.36",WebKit,Chrome,92.0.4515.159,Windows,10.0,fe3c1d035a65c549f7011c5446f73ede
5,1,1104.5999999642372,arrowright,psychophysics,13,42930,0.0-3.0-0.5,"""",key,arrowright,16.68574626865671,640,304.5,6,1,-1,20,35,25,35,false,"2021-08-20 21:57:14",99.233.11.22,"Mozilla/5.0 (Windows NT 10.0; Win64; x64) AppleWebKit/537.36 (KHTML, like Gecko) Chrome/92.0.4515.159 Safari/537.36",WebKit,Chrome,92.0.4515.159,Windows,10.0,fe3c1d035a65c549f7011c5446f73ede
5,1,null,null,psychophysics,14,43938,0.0-3.0-1.5,"""",key,null,16.683661016949202,640,304.5,"""","""","""","""","""","""","""","""","2021-08-20 21:57:14",99.233.11.22,"Mozilla/5.0 (Windows NT 10.0; Win64; x64) AppleWebKit/537.36 (KHTML, like Gecko) Chrome/92.0.4515.159 Safari/537.36",WebKit,Chrome,92.0.4515.159,Windows,10.0,fe3c1d035a65c549f7011c5446f73ede
5,1,1260,arrowright,psychophysics,15,45217,0.0-3.0-0.6,"""",key,arrowright,16.68605263157894,640,304.5,7,1,-1,23,35,25,35,false,"2021-08-20 21:57:14",99.233.11.22,"Mozilla/5.0 (Windows NT 10.0; Win64; x64) AppleWebKit/537.36 (KHTML, like Gecko) Chrome/92.0.4515.159 Safari/537.36",WebKit,Chrome,92.0.4515.159,Windows,10.0,fe3c1d035a65c549f7011c5446f73ede
5,1,null,null,psychophysics,16,46223,0.0-3.0-1.6,"""",key,null,16.68966101694919,640,304.5,"""","""","""","""","""","""","""","""","2021-08-20 21:57:14",99.233.11.22,"Mozilla/5.0 (Windows NT 10.0; Win64; x64) AppleWebKit/537.36 (KHTML, like Gecko) Chrome/92.0.4515.159 Safari/537.36",WebKit,Chrome,92.0.4515.159,Windows,10.0,fe3c1d035a65c549f7011c5446f73ede
5,1,811.9000000357628,arrowleft,psychophysics,17,47048,0.0-3.0-0.7,"""",key,arrowleft,16.687653061224484,640,304.5,8,1,-1,30,35,25,35,true,"2021-08-20 21:57:14",99.233.11.22,"Mozilla/5.0 (Windows NT 10.0; Win64; x64) AppleWebKit/537.36 (KHTML, like Gecko) Chrome/92.0.4515.159 Safari/537.36",WebKit,Chrome,92.0.4515.159,Windows,10.0,fe3c1d035a65c549f7011c5446f73ede
5,1,null,null,psychophysics,18,48059,0.0-3.0-1.7,"""",key,null,16.68330508474568,640,304.5,"""","""","""","""","""","""","""","""","2021-08-20 21:57:14",99.233.11.22,"Mozilla/5.0 (Windows NT 10.0; Win64; x64) AppleWebKit/537.36 (KHTML, like Gecko) Chrome/92.0.4515.159 Safari/537.36",WebKit,Chrome,92.0.4515.159,Windows,10.0,fe3c1d035a65c549f7011c5446f73ede
5,1,665.6999999880791,arrowright,psychophysics,19,48738,0.0-3.0-0.8,"""",key,arrowright,16.68199999999997,640,304.5,9,1,-1,20,35,25,35,false,"2021-08-20 21:57:14",99.233.11.22,"Mozilla/5.0 (Windows NT 10.0; Win64; x64) AppleWebKit/537.36 (KHTML, like Gecko) Chrome/92.0.4515.159 Safari/537.36",WebKit,Chrome,92.0.4515.159,Windows,10.0,fe3c1d035a65c549f7011c5446f73ede
5,1,null,null,psychophysics,20,49741,0.0-3.0-1.8,"""",key,null,16.688016949152555,640,304.5,"""","""","""","""","""","""","""","""","2021-08-20 21:57:14",99.233.11.22,"Mozilla/5.0 (Windows NT 10.0; Win64; x64) AppleWebKit/537.36 (KHTML, like Gecko) Chrome/92.0.4515.159 Safari/537.36",WebKit,Chrome,92.0.4515.159,Windows,10.0,fe3c1d035a65c549f7011c5446f73ede
5,1,894,arrowleft,psychophysics,21,50650,0.0-3.0-0.9,"""",key,arrowleft,16.686425925925843,640,304.5,10,1,-1,25,15,25,35,true,"2021-08-20 21:57:14",99.233.11.22,"Mozilla/5.0 (Windows NT 10.0; Win64; x64) AppleWebKit/537.36 (KHTML, like Gecko) Chrome/92.0.4515.159 Safari/537.36",WebKit,Chrome,92.0.4515.159,Windows,10.0,fe3c1d035a65c549f7011c5446f73ede
5,1,null,null,psychophysics,22,51656,0.0-3.0-1.9,"""",key,null,16.688779661016934,640,304.5,"""","""","""","""","""","""","""","""","2021-08-20 21:57:14",99.233.11.22,"Mozilla/5.0 (Windows NT 10.0; Win64; x64) AppleWebKit/537.36 (KHTML, like Gecko) Chrome/92.0.4515.159 Safari/537.36",WebKit,Chrome,92.0.4515.159,Windows,10.0,fe3c1d035a65c549f7011c5446f73ede
5,1,1353.6000000238419,arrowright,psychophysics,23,53024,0.0-3.0-0.10,"""",key,arrowright,16.69929629629625,640,304.5,11,1,-1,25,35,25,35,false,"2021-08-20 21:57:14",99.233.11.22,"Mozilla/5.0 (Windows NT 10.0; Win64; x64) AppleWebKit/537.36 (KHTML, like Gecko) Chrome/92.0.4515.159 Safari/537.36",WebKit,Chrome,92.0.4515.159,Windows,10.0,fe3c1d035a65c549f7011c5446f73ede
5,1,null,null,psychophysics,24,54032,0.0-3.0-1.10,"""",key,null,16.685000000000016,640,304.5,"""","""","""","""","""","""","""","""","2021-08-20 21:57:14",99.233.11.22,"Mozilla/5.0 (Windows NT 10.0; Win64; x64) AppleWebKit/537.36 (KHTML, like Gecko) Chrome/92.0.4515.159 Safari/537.36",WebKit,Chrome,92.0.4515.159,Windows,10.0,fe3c1d035a65c549f7011c5446f73ede
5,1,703.1000000238419,arrowleft,psychophysics,25,54746,0.0-3.0-0.11,"""",key,arrowleft,16.685642857142824,640,304.5,12,1,1,25,15,25,35,false,"2021-08-20 21:57:14",99.233.11.22,"Mozilla/5.0 (Windows NT 10.0; Win64; x64) AppleWebKit/537.36 (KHTML, like Gecko) Chrome/92.0.4515.159 Safari/537.36",WebKit,Chrome,92.0.4515.159,Windows,10.0,fe3c1d035a65c549f7011c5446f73ede
5,1,null,null,psychophysics,26,55750,0.0-3.0-1.11,"""",key,null,16.685033898305107,640,304.5,"""","""","""","""","""","""","""","""","2021-08-20 21:57:14",99.233.11.22,"Mozilla/5.0 (Windows NT 10.0; Win64; x64) AppleWebKit/537.36 (KHTML, like Gecko) Chrome/92.0.4515.159 Safari/537.36",WebKit,Chrome,92.0.4515.159,Windows,10.0,fe3c1d035a65c549f7011c5446f73ede
5,1,1283.199999988079,arrowright,psychophysics,27,57043,0.0-3.0-0.12,"""",key,arrowright,16.685766233766284,640,304.5,13,1,-1,23,35,25,35,false,"2021-08-20 21:57:14",99.233.11.22,"Mozilla/5.0 (Windows NT 10.0; Win64; x64) AppleWebKit/537.36 (KHTML, like Gecko) Chrome/92.0.4515.159 Safari/537.36",WebKit,Chrome,92.0.4515.159,Windows,10.0,fe3c1d035a65c549f7011c5446f73ede
5,1,null,null,psychophysics,28,58053,0.0-3.0-1.12,"""",key,null,16.68823728813559,640,304.5,"""","""","""","""","""","""","""","""","2021-08-20 21:57:14",99.233.11.22,"Mozilla/5.0 (Windows NT 10.0; Win64; x64) AppleWebKit/537.36 (KHTML, like Gecko) Chrome/92.0.4515.159 Safari/537.36",WebKit,Chrome,92.0.4515.159,Windows,10.0,fe3c1d035a65c549f7011c5446f73ede
5,1,778.3000000119209,arrowleft,psychophysics,29,58844,0.0-3.0-0.13,"""",key,arrowleft,16.687765957446747,640,304.5,14,1,1,23,15,25,35,false,"2021-08-20 21:57:14",99.233.11.22,"Mozilla/5.0 (Windows NT 10.0; Win64; x64) AppleWebKit/537.36 (KHTML, like Gecko) Chrome/92.0.4515.159 Safari/537.36",WebKit,Chrome,92.0.4515.159,Windows,10.0,fe3c1d035a65c549f7011c5446f73ede
5,1,null,null,psychophysics,30,59855,0.0-3.0-1.13,"""",key,null,16.689457627118642,640,304.5,"""","""","""","""","""","""","""","""","2021-08-20 21:57:14",99.233.11.22,"Mozilla/5.0 (Windows NT 10.0; Win64; x64) AppleWebKit/537.36 (KHTML, like Gecko) Chrome/92.0.4515.159 Safari/537.36",WebKit,Chrome,92.0.4515.159,Windows,10.0,fe3c1d035a65c549f7011c5446f73ede
5,1,696.3000000119209,arrowright,psychophysics,31,60564,0.0-3.0-0.14,"""",key,arrowright,16.689714285714302,640,304.5,15,1,1,25,35,25,35,true,"2021-08-20 21:57:14",99.233.11.22,"Mozilla/5.0 (Windows NT 10.0; Win64; x64) AppleWebKit/537.36 (KHTML, like Gecko) Chrome/92.0.4515.159 Safari/537.36",WebKit,Chrome,92.0.4515.159,Windows,10.0,fe3c1d035a65c549f7011c5446f73ede
5,1,null,null,psychophysics,32,61568,0.0-3.0-1.14,"""",key,null,16.68835593220347,640,304.5,"""","""","""","""","""","""","""","""","2021-08-20 21:57:14",99.233.11.22,"Mozilla/5.0 (Windows NT 10.0; Win64; x64) AppleWebKit/537.36 (KHTML, like Gecko) Chrome/92.0.4515.159 Safari/537.36",WebKit,Chrome,92.0.4515.159,Windows,10.0,fe3c1d035a65c549f7011c5446f73ede
5,1,1130.699999988079,arrowright,psychophysics,33,62712,0.0-3.0-0.15,"""",key,arrowright,16.68747058823529,640,304.5,16,1,-1,24,35,25,35,false,"2021-08-20 21:57:14",99.233.11.22,"Mozilla/5.0 (Windows NT 10.0; Win64; x64) AppleWebKit/537.36 (KHTML, like Gecko) Chrome/92.0.4515.159 Safari/537.36",WebKit,Chrome,92.0.4515.159,Windows,10.0,fe3c1d035a65c549f7011c5446f73ede
5,1,null,null,psychophysics,34,63726,0.0-3.0-1.15,"""",key,null,16.681762711864316,640,304.5,"""","""","""","""","""","""","""","""","2021-08-20 21:57:14",99.233.11.22,"Mozilla/5.0 (Windows NT 10.0; Win64; x64) AppleWebKit/537.36 (KHTML, like Gecko) Chrome/92.0.4515.159 Safari/537.36",WebKit,Chrome,92.0.4515.159,Windows,10.0,fe3c1d035a65c549f7011c5446f73ede
5,1,828.1000000238419,arrowleft,psychophysics,35,64566,0.0-3.0-0.16,"""",key,arrowleft,16.685780000000086,640,304.5,17,1,-1,30,15,25,35,true,"2021-08-20 21:57:14",99.233.11.22,"Mozilla/5.0 (Windows NT 10.0; Win64; x64) AppleWebKit/537.36 (KHTML, like Gecko) Chrome/92.0.4515.159 Safari/537.36",WebKit,Chrome,92.0.4515.159,Windows,10.0,fe3c1d035a65c549f7011c5446f73ede
5,1,null,null,psychophysics,36,65578,0.0-3.0-1.16,"""",key,null,16.68476271186462,640,304.5,"""","""","""","""","""","""","""","""","2021-08-20 21:57:14",99.233.11.22,"Mozilla/5.0 (Windows NT 10.0; Win64; x64) AppleWebKit/537.36 (KHTML, like Gecko) Chrome/92.0.4515.159 Safari/537.36",WebKit,Chrome,92.0.4515.159,Windows,10.0,fe3c1d035a65c549f7011c5446f73ede
5,1,874.1000000238419,arrowleft,psychophysics,37,66466,0.0-3.0-0.17,"""",key,arrowleft,16.6841320754718,640,304.5,18,1,-1,26,35,25,35,true,"2021-08-20 21:57:14",99.233.11.22,"Mozilla/5.0 (Windows NT 10.0; Win64; x64) AppleWebKit/537.36 (KHTML, like Gecko) Chrome/92.0.4515.159 Safari/537.36",WebKit,Chrome,92.0.4515.159,Windows,10.0,fe3c1d035a65c549f7011c5446f73ede
5,1,null,null,psychophysics,38,67480,0.0-3.0-1.17,"""",key,null,16.683389830508347,640,304.5,"""","""","""","""","""","""","""","""","2021-08-20 21:57:14",99.233.11.22,"Mozilla/5.0 (Windows NT 10.0; Win64; x64) AppleWebKit/537.36 (KHTML, like Gecko) Chrome/92.0.4515.159 Safari/537.36",WebKit,Chrome,92.0.4515.159,Windows,10.0,fe3c1d035a65c549f7011c5446f73ede
5,1,943.5,arrowright,psychophysics,39,68436,0.0-3.0-0.18,"""",key,arrowright,16.685701754386077,640,304.5,19,1,1,26,35,25,35,true,"2021-08-20 21:57:14",99.233.11.22,"Mozilla/5.0 (Windows NT 10.0; Win64; x64) AppleWebKit/537.36 (KHTML, like Gecko) Chrome/92.0.4515.159 Safari/537.36",WebKit,Chrome,92.0.4515.159,Windows,10.0,fe3c1d035a65c549f7011c5446f73ede
5,1,null,null,psychophysics,40,69449,0.0-3.0-1.18,"""",key,null,16.65844067796607,640,304.5,"""","""","""","""","""","""","""","""","2021-08-20 21:57:14",99.233.11.22,"Mozilla/5.0 (Windows NT 10.0; Win64; x64) AppleWebKit/537.36 (KHTML, like Gecko) Chrome/92.0.4515.159 Safari/537.36",WebKit,Chrome,92.0.4515.159,Windows,10.0,fe3c1d035a65c549f7011c5446f73ede
5,1,775.1000000238419,arrowright,psychophysics,41,70240,0.0-3.0-0.19,"""",key,arrowright,16.68408510638302,640,304.5,20,1,1,30,35,25,35,true,"2021-08-20 21:57:14",99.233.11.22,"Mozilla/5.0 (Windows NT 10.0; Win64; x64) AppleWebKit/537.36 (KHTML, like Gecko) Chrome/92.0.4515.159 Safari/537.36",WebKit,Chrome,92.0.4515.159,Windows,10.0,fe3c1d035a65c549f7011c5446f73ede
5,1,null,null,psychophysics,42,71266,0.0-3.0-1.19,"""",key,null,16.68774999999999,640,304.5,"""","""","""","""","""","""","""","""","2021-08-20 21:57:14",99.233.11.22,"Mozilla/5.0 (Windows NT 10.0; Win64; x64) AppleWebKit/537.36 (KHTML, like Gecko) Chrome/92.0.4515.159 Safari/537.36",WebKit,Chrome,92.0.4515.159,Windows,10.0,fe3c1d035a65c549f7011c5446f73ede
5,1,660.3999999761581,arrowleft,psychophysics,43,71939,0.0-3.0-0.20,"""",key,arrowleft,16.68537499999984,640,304.5,21,1,1,23,15,25,35,false,"2021-08-20 21:57:14",99.233.11.22,"Mozilla/5.0 (Windows NT 10.0; Win64; x64) AppleWebKit/537.36 (KHTML, like Gecko) Chrome/92.0.4515.159 Safari/537.36",WebKit,Chrome,92.0.4515.159,Windows,10.0,fe3c1d035a65c549f7011c5446f73ede
5,1,null,null,psychophysics,44,72948,0.0-3.0-1.20,"""",key,null,16.68800000000007,640,304.5,"""","""","""","""","""","""","""","""","2021-08-20 21:57:14",99.233.11.22,"Mozilla/5.0 (Windows NT 10.0; Win64; x64) AppleWebKit/537.36 (KHTML, like Gecko) Chrome/92.0.4515.159 Safari/537.36",WebKit,Chrome,92.0.4515.159,Windows,10.0,fe3c1d035a65c549f7011c5446f73ede
5,1,900.1999999880791,arrowright,psychophysics,45,73861,0.0-3.0-0.21,"""",key,arrowright,16.689018518518694,640,304.5,22,1,1,25,15,25,35,true,"2021-08-20 21:57:14",99.233.11.22,"Mozilla/5.0 (Windows NT 10.0; Win64; x64) AppleWebKit/537.36 (KHTML, like Gecko) Chrome/92.0.4515.159 Safari/537.36",WebKit,Chrome,92.0.4515.159,Windows,10.0,fe3c1d035a65c549f7011c5446f73ede
5,1,null,null,psychophysics,46,74872,0.0-3.0-1.21,"""",key,null,16.685440677966206,640,304.5,"""","""","""","""","""","""","""","""","2021-08-20 21:57:14",99.233.11.22,"Mozilla/5.0 (Windows NT 10.0; Win64; x64) AppleWebKit/537.36 (KHTML, like Gecko) Chrome/92.0.4515.159 Safari/537.36",WebKit,Chrome,92.0.4515.159,Windows,10.0,fe3c1d035a65c549f7011c5446f73ede
5,1,661.6000000238419,arrowright,psychophysics,47,75548,0.0-3.0-0.22,"""",key,arrowright,16.68547499999986,640,304.5,23,1,1,30,15,25,35,true,"2021-08-20 21:57:14",99.233.11.22,"Mozilla/5.0 (Windows NT 10.0; Win64; x64) AppleWebKit/537.36 (KHTML, like Gecko) Chrome/92.0.4515.159 Safari/537.36",WebKit,Chrome,92.0.4515.159,Windows,10.0,fe3c1d035a65c549f7011c5446f73ede
5,1,null,null,psychophysics,48,76555,0.0-3.0-1.22,"""",key,null,16.685847457627307,640,304.5,"""","""","""","""","""","""","""","""","2021-08-20 21:57:14",99.233.11.22,"Mozilla/5.0 (Windows NT 10.0; Win64; x64) AppleWebKit/537.36 (KHTML, like Gecko) Chrome/92.0.4515.159 Safari/537.36",WebKit,Chrome,92.0.4515.159,Windows,10.0,fe3c1d035a65c549f7011c5446f73ede
5,1,1275.800000011921,arrowright,psychophysics,49,77849,0.0-3.0-0.23,"""",key,arrowright,16.68459740259731,640,304.5,24,1,-1,23,35,25,35,false,"2021-08-20 21:57:14",99.233.11.22,"Mozilla/5.0 (Windows NT 10.0; Win64; x64) AppleWebKit/537.36 (KHTML, like Gecko) Chrome/92.0.4515.159 Safari/537.36",WebKit,Chrome,92.0.4515.159,Windows,10.0,fe3c1d035a65c549f7011c5446f73ede
5,1,null,null,psychophysics,50,78859,0.0-3.0-1.23,"""",key,null,16.68152542372892,640,304.5,"""","""","""","""","""","""","""","""","2021-08-20 21:57:14",99.233.11.22,"Mozilla/5.0 (Windows NT 10.0; Win64; x64) AppleWebKit/537.36 (KHTML, like Gecko) Chrome/92.0.4515.159 Safari/537.36",WebKit,Chrome,92.0.4515.159,Windows,10.0,fe3c1d035a65c549f7011c5446f73ede
5,1,1407.3999999761581,arrowleft,psychophysics,51,80283,0.0-3.0-0.24,"""",key,arrowleft,16.68767058823535,640,304.5,25,1,-1,25,35,25,35,true,"2021-08-20 21:57:14",99.233.11.22,"Mozilla/5.0 (Windows NT 10.0; Win64; x64) AppleWebKit/537.36 (KHTML, like Gecko) Chrome/92.0.4515.159 Safari/537.36",WebKit,Chrome,92.0.4515.159,Windows,10.0,fe3c1d035a65c549f7011c5446f73ede
5,1,null,null,psychophysics,52,81294,0.0-3.0-1.24,"""",key,null,16.686050847457608,640,304.5,"""","""","""","""","""","""","""","""","2021-08-20 21:57:14",99.233.11.22,"Mozilla/5.0 (Windows NT 10.0; Win64; x64) AppleWebKit/537.36 (KHTML, like Gecko) Chrome/92.0.4515.159 Safari/537.36",WebKit,Chrome,92.0.4515.159,Windows,10.0,fe3c1d035a65c549f7011c5446f73ede
5,1,898.2999999523163,arrowleft,psychophysics,53,82207,0.0-3.0-0.25,"""",key,arrowleft,16.689870370370315,640,304.5,26,1,-1,24,15,25,35,true,"2021-08-20 21:57:14",99.233.11.22,"Mozilla/5.0 (Windows NT 10.0; Win64; x64) AppleWebKit/537.36 (KHTML, like Gecko) Chrome/92.0.4515.159 Safari/537.36",WebKit,Chrome,92.0.4515.159,Windows,10.0,fe3c1d035a65c549f7011c5446f73ede
5,1,null,null,psychophysics,54,83217,0.0-3.0-1.25,"""",key,null,16.68679999999998,640,304.5,"""","""","""","""","""","""","""","""","2021-08-20 21:57:14",99.233.11.22,"Mozilla/5.0 (Windows NT 10.0; Win64; x64) AppleWebKit/537.36 (KHTML, like Gecko) Chrome/92.0.4515.159 Safari/537.36",WebKit,Chrome,92.0.4515.159,Windows,10.0,fe3c1d035a65c549f7011c5446f73ede
5,1,794.5,arrowright,psychophysics,55,84019,0.0-3.0-0.26,"""",key,arrowright,16.6809574468083,640,304.5,27,1,1,24,35,25,35,true,"2021-08-20 21:57:14",99.233.11.22,"Mozilla/5.0 (Windows NT 10.0; Win64; x64) AppleWebKit/537.36 (KHTML, like Gecko) Chrome/92.0.4515.159 Safari/537.36",WebKit,Chrome,92.0.4515.159,Windows,10.0,fe3c1d035a65c549f7011c5446f73ede
5,1,null,null,psychophysics,56,85033,0.0-3.0-1.26,"""",key,null,16.68830508474577,640,304.5,"""","""","""","""","""","""","""","""","2021-08-20 21:57:14",99.233.11.22,"Mozilla/5.0 (Windows NT 10.0; Win64; x64) AppleWebKit/537.36 (KHTML, like Gecko) Chrome/92.0.4515.159 Safari/537.36",WebKit,Chrome,92.0.4515.159,Windows,10.0,fe3c1d035a65c549f7011c5446f73ede
5,1,667.1999999880791,arrowleft,psychophysics,57,85712,0.0-3.0-0.27,"""",key,arrowleft,16.685849999999846,640,304.5,28,2,1,20,15,25,35,false,"2021-08-20 21:57:14",99.233.11.22,"Mozilla/5.0 (Windows NT 10.0; Win64; x64) AppleWebKit/537.36 (KHTML, like Gecko) Chrome/92.0.4515.159 Safari/537.36",WebKit,Chrome,92.0.4515.159,Windows,10.0,fe3c1d035a65c549f7011c5446f73ede
5,1,null,null,psychophysics,58,86720,0.0-3.0-1.27,"""",key,null,16.688550000000152,640,304.5,"""","""","""","""","""","""","""","""","2021-08-20 21:57:14",99.233.11.22,"Mozilla/5.0 (Windows NT 10.0; Win64; x64) AppleWebKit/537.36 (KHTML, like Gecko) Chrome/92.0.4515.159 Safari/537.36",WebKit,Chrome,92.0.4515.159,Windows,10.0,fe3c1d035a65c549f7011c5446f73ede
5,1,2445.599999964237,arrowright,html-keyboard-response,59,89169,0.0-3.0-2.27-0.27,"<div style=""color: white; text-align: center; vertical-align: top; display: inline-block; width: 800px; margin: auto""><p>You have completed 10% of the trials. You are on block 2 of 10. <br>Good job! Take a break if you need to.</p><p>Press any key to continue the experiment.</p></div>","""","""","""","""","""","""","""","""","""","""","""","""","""","2021-08-20 21:57:14",99.233.11.22,"Mozilla/5.0 (Windows NT 10.0; Win64; x64) AppleWebKit/537.36 (KHTML, like Gecko) Chrome/92.0.4515.159 Safari/537.36",WebKit,Chrome,92.0.4515.159,Windows,10.0,fe3c1d035a65c549f7011c5446f73ede
5,1,1211.4000000357628,arrowleft,psychophysics,60,91410,0.0-3.0-0.28,"""",key,arrowleft,16.685547945205457,640,304.5,29,2,1,20,15,25,35,false,"2021-08-20 21:57:14",99.233.11.22,"Mozilla/5.0 (Windows NT 10.0; Win64; x64) AppleWebKit/537.36 (KHTML, like Gecko) Chrome/92.0.4515.159 Safari/537.36",WebKit,Chrome,92.0.4515.159,Windows,10.0,fe3c1d035a65c549f7011c5446f73ede
5,1,null,null,psychophysics,61,92415,0.0-3.0-1.28,"""",key,null,16.689762711864343,640,304.5,"""","""","""","""","""","""","""","""","2021-08-20 21:57:14",99.233.11.22,"Mozilla/5.0 (Windows NT 10.0; Win64; x64) AppleWebKit/537.36 (KHTML, like Gecko) Chrome/92.0.4515.159 Safari/537.36",WebKit,Chrome,92.0.4515.159,Windows,10.0,fe3c1d035a65c549f7011c5446f73ede
5,1,774,arrowleft,psychophysics,62,93196,0.0-3.0-0.29,"""",key,arrowleft,16.68086956521754,640,304.5,30,2,-1,26,15,25,35,true,"2021-08-20 21:57:14",99.233.11.22,"Mozilla/5.0 (Windows NT 10.0; Win64; x64) AppleWebKit/537.36 (KHTML, like Gecko) Chrome/92.0.4515.159 Safari/537.36",WebKit,Chrome,92.0.4515.159,Windows,10.0,fe3c1d035a65c549f7011c5446f73ede
5,1,null,null,psychophysics,63,94200,0.0-3.0-1.29,"""",key,null,16.679033898304993,640,304.5,"""","""","""","""","""","""","""","""","2021-08-20 21:57:14",99.233.11.22,"Mozilla/5.0 (Windows NT 10.0; Win64; x64) AppleWebKit/537.36 (KHTML, like Gecko) Chrome/92.0.4515.159 Safari/537.36",WebKit,Chrome,92.0.4515.159,Windows,10.0,fe3c1d035a65c549f7011c5446f73ede
5,1,1843.199999988079,arrowright,psychophysics,64,96050,0.0-3.0-0.30,"""",key,arrowright,16.68452727272723,640,304.5,31,2,-1,24,35,25,35,false,"2021-08-20 21:57:14",99.233.11.22,"Mozilla/5.0 (Windows NT 10.0; Win64; x64) AppleWebKit/537.36 (KHTML, like Gecko) Chrome/92.0.4515.159 Safari/537.36",WebKit,Chrome,92.0.4515.159,Windows,10.0,fe3c1d035a65c549f7011c5446f73ede
5,1,null,null,psychophysics,65,97063,0.0-3.0-1.30,"""",key,null,16.68981355932192,640,304.5,"""","""","""","""","""","""","""","""","2021-08-20 21:57:14",99.233.11.22,"Mozilla/5.0 (Windows NT 10.0; Win64; x64) AppleWebKit/537.36 (KHTML, like Gecko) Chrome/92.0.4515.159 Safari/537.36",WebKit,Chrome,92.0.4515.159,Windows,10.0,fe3c1d035a65c549f7011c5446f73ede
5,1,1639.800000011921,arrowleft,psychophysics,66,98717,0.0-3.0-0.31,"""",key,arrowleft,16.684676767676724,640,304.5,32,2,-1,25,35,25,35,true,"2021-08-20 21:57:14",99.233.11.22,"Mozilla/5.0 (Windows NT 10.0; Win64; x64) AppleWebKit/537.36 (KHTML, like Gecko) Chrome/92.0.4515.159 Safari/537.36",WebKit,Chrome,92.0.4515.159,Windows,10.0,fe3c1d035a65c549f7011c5446f73ede
5,1,null,null,psychophysics,67,99732,0.0-3.0-1.31,"""",key,null,16.68533898305081,640,304.5,"""","""","""","""","""","""","""","""","2021-08-20 21:57:14",99.233.11.22,"Mozilla/5.0 (Windows NT 10.0; Win64; x64) AppleWebKit/537.36 (KHTML, like Gecko) Chrome/92.0.4515.159 Safari/537.36",WebKit,Chrome,92.0.4515.159,Windows,10.0,fe3c1d035a65c549f7011c5446f73ede
5,1,800.1999999880791,arrowright,psychophysics,68,100545,0.0-3.0-0.32,"""",key,arrowright,16.685000000000098,640,304.5,33,2,-1,24,35,25,35,false,"2021-08-20 21:57:14",99.233.11.22,"Mozilla/5.0 (Windows NT 10.0; Win64; x64) AppleWebKit/537.36 (KHTML, like Gecko) Chrome/92.0.4515.159 Safari/537.36",WebKit,Chrome,92.0.4515.159,Windows,10.0,fe3c1d035a65c549f7011c5446f73ede
5,1,null,null,psychophysics,69,101551,0.0-3.0-1.32,"""",key,null,16.685576271186328,640,304.5,"""","""","""","""","""","""","""","""","2021-08-20 21:57:14",99.233.11.22,"Mozilla/5.0 (Windows NT 10.0; Win64; x64) AppleWebKit/537.36 (KHTML, like Gecko) Chrome/92.0.4515.159 Safari/537.36",WebKit,Chrome,92.0.4515.159,Windows,10.0,fe3c1d035a65c549f7011c5446f73ede
5,1,781.8999999761581,arrowleft,psychophysics,70,102351,0.0-3.0-0.33,"""",key,arrowleft,16.68353191489339,640,304.5,34,2,-1,30,15,25,35,true,"2021-08-20 21:57:14",99.233.11.22,"Mozilla/5.0 (Windows NT 10.0; Win64; x64) AppleWebKit/537.36 (KHTML, like Gecko) Chrome/92.0.4515.159 Safari/537.36",WebKit,Chrome,92.0.4515.159,Windows,10.0,fe3c1d035a65c549f7011c5446f73ede
5,1,null,null,psychophysics,71,103356,0.0-3.0-1.33,"""",key,null,16.68670000000008,640,304.5,"""","""","""","""","""","""","""","""","2021-08-20 21:57:14",99.233.11.22,"Mozilla/5.0 (Windows NT 10.0; Win64; x64) AppleWebKit/537.36 (KHTML, like Gecko) Chrome/92.0.4515.159 Safari/537.36",WebKit,Chrome,92.0.4515.159,Windows,10.0,fe3c1d035a65c549f7011c5446f73ede
5,1,1138.5,arrowright,psychophysics,72,104502,0.0-3.0-0.34,"""",key,arrowright,16.685761194029794,640,304.5,35,2,1,26,15,25,35,true,"2021-08-20 21:57:14",99.233.11.22,"Mozilla/5.0 (Windows NT 10.0; Win64; x64) AppleWebKit/537.36 (KHTML, like Gecko) Chrome/92.0.4515.159 Safari/537.36",WebKit,Chrome,92.0.4515.159,Windows,10.0,fe3c1d035a65c549f7011c5446f73ede
5,1,null,null,psychophysics,73,105507,0.0-3.0-1.34,"""",key,null,16.684716666666645,640,304.5,"""","""","""","""","""","""","""","""","2021-08-20 21:57:14",99.233.11.22,"Mozilla/5.0 (Windows NT 10.0; Win64; x64) AppleWebKit/537.36 (KHTML, like Gecko) Chrome/92.0.4515.159 Safari/537.36",WebKit,Chrome,92.0.4515.159,Windows,10.0,fe3c1d035a65c549f7011c5446f73ede
5,1,710.6000000238419,arrowleft,psychophysics,74,106226,0.0-3.0-0.35,"""",key,arrowleft,16.683023809523938,640,304.5,36,2,-1,27,15,25,35,true,"2021-08-20 21:57:14",99.233.11.22,"Mozilla/5.0 (Windows NT 10.0; Win64; x64) AppleWebKit/537.36 (KHTML, like Gecko) Chrome/92.0.4515.159 Safari/537.36",WebKit,Chrome,92.0.4515.159,Windows,10.0,fe3c1d035a65c549f7011c5446f73ede
5,1,null,null,psychophysics,75,107231,0.0-3.0-1.35,"""",key,null,16.68364406779672,640,304.5,"""","""","""","""","""","""","""","""","2021-08-20 21:57:14",99.233.11.22,"Mozilla/5.0 (Windows NT 10.0; Win64; x64) AppleWebKit/537.36 (KHTML, like Gecko) Chrome/92.0.4515.159 Safari/537.36",WebKit,Chrome,92.0.4515.159,Windows,10.0,fe3c1d035a65c549f7011c5446f73ede
5,1,794.1000000238419,arrowright,psychophysics,76,108045,0.0-3.0-0.36,"""",key,arrowright,16.686104166666762,640,304.5,37,2,1,26,15,25,35,true,"2021-08-20 21:57:14",99.233.11.22,"Mozilla/5.0 (Windows NT 10.0; Win64; x64) AppleWebKit/537.36 (KHTML, like Gecko) Chrome/92.0.4515.159 Safari/537.36",WebKit,Chrome,92.0.4515.159,Windows,10.0,fe3c1d035a65c549f7011c5446f73ede
5,1,null,null,psychophysics,77,109052,0.0-3.0-1.36,"""",key,null,16.68571186440669,640,304.5,"""","""","""","""","""","""","""","""","2021-08-20 21:57:14",99.233.11.22,"Mozilla/5.0 (Windows NT 10.0; Win64; x64) AppleWebKit/537.36 (KHTML, like Gecko) Chrome/92.0.4515.159 Safari/537.36",WebKit,Chrome,92.0.4515.159,Windows,10.0,fe3c1d035a65c549f7011c5446f73ede
5,1,1147.300000011921,arrowright,psychophysics,78,110207,0.0-3.0-0.37,"""",key,arrowright,16.687000000000005,640,304.5,38,2,-1,24,35,25,35,false,"2021-08-20 21:57:14",99.233.11.22,"Mozilla/5.0 (Windows NT 10.0; Win64; x64) AppleWebKit/537.36 (KHTML, like Gecko) Chrome/92.0.4515.159 Safari/537.36",WebKit,Chrome,92.0.4515.159,Windows,10.0,fe3c1d035a65c549f7011c5446f73ede
5,1,null,null,psychophysics,79,111212,0.0-3.0-1.37,"""",key,null,16.68571186440694,640,304.5,"""","""","""","""","""","""","""","""","2021-08-20 21:57:14",99.233.11.22,"Mozilla/5.0 (Windows NT 10.0; Win64; x64) AppleWebKit/537.36 (KHTML, like Gecko) Chrome/92.0.4515.159 Safari/537.36",WebKit,Chrome,92.0.4515.159,Windows,10.0,fe3c1d035a65c549f7011c5446f73ede
5,1,1276.800000011921,arrowleft,psychophysics,80,112501,0.0-3.0-0.38,"""",key,arrowleft,16.68729870129878,640,304.5,39,2,1,20,15,25,35,false,"2021-08-20 21:57:14",99.233.11.22,"Mozilla/5.0 (Windows NT 10.0; Win64; x64) AppleWebKit/537.36 (KHTML, like Gecko) Chrome/92.0.4515.159 Safari/537.36",WebKit,Chrome,92.0.4515.159,Windows,10.0,fe3c1d035a65c549f7011c5446f73ede
5,1,null,null,psychophysics,81,113507,0.0-3.0-1.38,"""",key,null,16.68511864406765,640,304.5,"""","""","""","""","""","""","""","""","2021-08-20 21:57:14",99.233.11.22,"Mozilla/5.0 (Windows NT 10.0; Win64; x64) AppleWebKit/537.36 (KHTML, like Gecko) Chrome/92.0.4515.159 Safari/537.36",WebKit,Chrome,92.0.4515.159,Windows,10.0,fe3c1d035a65c549f7011c5446f73ede
5,1,1114.9000000357628,arrowleft,psychophysics,82,114647,0.0-3.0-0.39,"""",key,arrowleft,16.68665671641804,640,304.5,40,2,-1,23,15,25,35,true,"2021-08-20 21:57:14",99.233.11.22,"Mozilla/5.0 (Windows NT 10.0; Win64; x64) AppleWebKit/537.36 (KHTML, like Gecko) Chrome/92.0.4515.159 Safari/537.36",WebKit,Chrome,92.0.4515.159,Windows,10.0,fe3c1d035a65c549f7011c5446f73ede
5,1,null,null,psychophysics,83,115653,0.0-3.0-1.39,"""",key,null,16.68654999999999,640,304.5,"""","""","""","""","""","""","""","""","2021-08-20 21:57:14",99.233.11.22,"Mozilla/5.0 (Windows NT 10.0; Win64; x64) AppleWebKit/537.36 (KHTML, like Gecko) Chrome/92.0.4515.159 Safari/537.36",WebKit,Chrome,92.0.4515.159,Windows,10.0,fe3c1d035a65c549f7011c5446f73ede
5,1,785.3000000119209,arrowleft,psychophysics,84,116446,0.0-3.0-0.40,"""",key,arrowleft,16.686999999999976,640,304.5,41,2,-1,30,15,25,35,true,"2021-08-20 21:57:14",99.233.11.22,"Mozilla/5.0 (Windows NT 10.0; Win64; x64) AppleWebKit/537.36 (KHTML, like Gecko) Chrome/92.0.4515.159 Safari/537.36",WebKit,Chrome,92.0.4515.159,Windows,10.0,fe3c1d035a65c549f7011c5446f73ede
5,1,null,null,psychophysics,85,117452,0.0-3.0-1.40,"""",key,null,16.685050847457713,640,304.5,"""","""","""","""","""","""","""","""","2021-08-20 21:57:14",99.233.11.22,"Mozilla/5.0 (Windows NT 10.0; Win64; x64) AppleWebKit/537.36 (KHTML, like Gecko) Chrome/92.0.4515.159 Safari/537.36",WebKit,Chrome,92.0.4515.159,Windows,10.0,fe3c1d035a65c549f7011c5446f73ede
5,1,848.2000000476837,arrowleft,psychophysics,86,118312,0.0-3.0-0.41,"""",key,arrowleft,16.68431372549008,640,304.5,42,2,1,24,35,25,35,false,"2021-08-20 21:57:14",99.233.11.22,"Mozilla/5.0 (Windows NT 10.0; Win64; x64) AppleWebKit/537.36 (KHTML, like Gecko) Chrome/92.0.4515.159 Safari/537.36",WebKit,Chrome,92.0.4515.159,Windows,10.0,fe3c1d035a65c549f7011c5446f73ede
5,1,null,null,psychophysics,87,119321,0.0-3.0-1.41,"""",key,null,16.683338983051016,640,304.5,"""","""","""","""","""","""","""","""","2021-08-20 21:57:14",99.233.11.22,"Mozilla/5.0 (Windows NT 10.0; Win64; x64) AppleWebKit/537.36 (KHTML, like Gecko) Chrome/92.0.4515.159 Safari/537.36",WebKit,Chrome,92.0.4515.159,Windows,10.0,fe3c1d035a65c549f7011c5446f73ede
5,1,717.1999999880791,arrowright,psychophysics,88,120059,0.0-3.0-0.42,"""",key,arrowright,16.68454545454568,640,304.5,43,2,1,27,35,25,35,true,"2021-08-20 21:57:14",99.233.11.22,"Mozilla/5.0 (Windows NT 10.0; Win64; x64) AppleWebKit/537.36 (KHTML, like Gecko) Chrome/92.0.4515.159 Safari/537.36",WebKit,Chrome,92.0.4515.159,Windows,10.0,fe3c1d035a65c549f7011c5446f73ede
5,1,null,null,psychophysics,89,121066,0.0-3.0-1.42,"""",key,null,16.687864406779706,640,304.5,"""","""","""","""","""","""","""","""","2021-08-20 21:57:14",99.233.11.22,"Mozilla/5.0 (Windows NT 10.0; Win64; x64) AppleWebKit/537.36 (KHTML, like Gecko) Chrome/92.0.4515.159 Safari/537.36",WebKit,Chrome,92.0.4515.159,Windows,10.0,fe3c1d035a65c549f7011c5446f73ede
5,1,820.8000000119209,arrowleft,psychophysics,90,121895,0.0-3.0-0.43,"""",key,arrowleft,16.689204081632518,640,304.5,44,2,-1,26,15,25,35,true,"2021-08-20 21:57:14",99.233.11.22,"Mozilla/5.0 (Windows NT 10.0; Win64; x64) AppleWebKit/537.36 (KHTML, like Gecko) Chrome/92.0.4515.159 Safari/537.36",WebKit,Chrome,92.0.4515.159,Windows,10.0,fe3c1d035a65c549f7011c5446f73ede
5,1,null,null,psychophysics,91,122899,0.0-3.0-1.43,"""",key,null,16.68252542372882,640,304.5,"""","""","""","""","""","""","""","""","2021-08-20 21:57:14",99.233.11.22,"Mozilla/5.0 (Windows NT 10.0; Win64; x64) AppleWebKit/537.36 (KHTML, like Gecko) Chrome/92.0.4515.159 Safari/537.36",WebKit,Chrome,92.0.4515.159,Windows,10.0,fe3c1d035a65c549f7011c5446f73ede
5,1,742,arrowleft,psychophysics,92,123647,0.0-3.0-0.44,"""",key,arrowleft,16.681409090908843,640,304.5,45,2,-1,24,15,25,35,true,"2021-08-20 21:57:14",99.233.11.22,"Mozilla/5.0 (Windows NT 10.0; Win64; x64) AppleWebKit/537.36 (KHTML, like Gecko) Chrome/92.0.4515.159 Safari/537.36",WebKit,Chrome,92.0.4515.159,Windows,10.0,fe3c1d035a65c549f7011c5446f73ede
5,1,null,null,psychophysics,93,124671,0.0-3.0-1.44,"""",key,null,16.686349999999948,640,304.5,"""","""","""","""","""","""","""","""","2021-08-20 21:57:14",99.233.11.22,"Mozilla/5.0 (Windows NT 10.0; Win64; x64) AppleWebKit/537.36 (KHTML, like Gecko) Chrome/92.0.4515.159 Safari/537.36",WebKit,Chrome,92.0.4515.159,Windows,10.0,fe3c1d035a65c549f7011c5446f73ede
5,1,825.0999999642372,arrowright,psychophysics,94,125516,0.0-3.0-0.45,"""",key,arrowright,16.6891399999999,640,304.5,46,2,1,25,15,25,35,true,"2021-08-20 21:57:14",99.233.11.22,"Mozilla/5.0 (Windows NT 10.0; Win64; x64) AppleWebKit/537.36 (KHTML, like Gecko) Chrome/92.0.4515.159 Safari/537.36",WebKit,Chrome,92.0.4515.159,Windows,10.0,fe3c1d035a65c549f7011c5446f73ede
5,1,null,null,psychophysics,95,126529,0.0-3.0-1.45,"""",key,null,16.681084745762607,640,304.5,"""","""","""","""","""","""","""","""","2021-08-20 21:57:14",99.233.11.22,"Mozilla/5.0 (Windows NT 10.0; Win64; x64) AppleWebKit/537.36 (KHTML, like Gecko) Chrome/92.0.4515.159 Safari/537.36",WebKit,Chrome,92.0.4515.159,Windows,10.0,fe3c1d035a65c549f7011c5446f73ede
5,1,1010.8000000119209,arrowleft,psychophysics,96,127554,0.0-3.0-0.46,"""",key,arrowleft,16.680245901639267,640,304.5,47,2,1,20,15,25,35,false,"2021-08-20 21:57:14",99.233.11.22,"Mozilla/5.0 (Windows NT 10.0; Win64; x64) AppleWebKit/537.36 (KHTML, like Gecko) Chrome/92.0.4515.159 Safari/537.36",WebKit,Chrome,92.0.4515.159,Windows,10.0,fe3c1d035a65c549f7011c5446f73ede
5,1,null,null,psychophysics,97,128564,0.0-3.0-1.46,"""",key,null,16.687661016949153,640,304.5,"""","""","""","""","""","""","""","""","2021-08-20 21:57:14",99.233.11.22,"Mozilla/5.0 (Windows NT 10.0; Win64; x64) AppleWebKit/537.36 (KHTML, like Gecko) Chrome/92.0.4515.159 Safari/537.36",WebKit,Chrome,92.0.4515.159,Windows,10.0,fe3c1d035a65c549f7011c5446f73ede
5,1,514.4000000357628,arrowright,psychophysics,98,129092,0.0-3.0-0.47,"""",key,arrowright,16.680064516129338,640,304.5,48,2,-1,20,15,25,35,false,"2021-08-20 21:57:14",99.233.11.22,"Mozilla/5.0 (Windows NT 10.0; Win64; x64) AppleWebKit/537.36 (KHTML, like Gecko) Chrome/92.0.4515.159 Safari/537.36",WebKit,Chrome,92.0.4515.159,Windows,10.0,fe3c1d035a65c549f7011c5446f73ede
5,1,null,null,psychophysics,99,130117,0.0-3.0-1.47,"""",key,null,16.685836065573938,640,304.5,"""","""","""","""","""","""","""","""","2021-08-20 21:57:14",99.233.11.22,"Mozilla/5.0 (Windows NT 10.0; Win64; x64) AppleWebKit/537.36 (KHTML, like Gecko) Chrome/92.0.4515.159 Safari/537.36",WebKit,Chrome,92.0.4515.159,Windows,10.0,fe3c1d035a65c549f7011c5446f73ede
5,1,802.1999999880791,arrowright,psychophysics,100,130934,0.0-3.0-0.48,"""",key,arrowright,16.685170212766142,640,304.5,49,2,1,26,35,25,35,true,"2021-08-20 21:57:14",99.233.11.22,"Mozilla/5.0 (Windows NT 10.0; Win64; x64) AppleWebKit/537.36 (KHTML, like Gecko) Chrome/92.0.4515.159 Safari/537.36",WebKit,Chrome,92.0.4515.159,Windows,10.0,fe3c1d035a65c549f7011c5446f73ede
5,1,null,null,psychophysics,101,131943,0.0-3.0-1.48,"""",key,null,16.687433333333562,640,304.5,"""","""","""","""","""","""","""","""","2021-08-20 21:57:14",99.233.11.22,"Mozilla/5.0 (Windows NT 10.0; Win64; x64) AppleWebKit/537.36 (KHTML, like Gecko) Chrome/92.0.4515.159 Safari/537.36",WebKit,Chrome,92.0.4515.159,Windows,10.0,fe3c1d035a65c549f7011c5446f73ede
5,1,681.6999999880791,arrowleft,psychophysics,102,132632,0.0-3.0-0.49,"""",key,arrowleft,16.68487499999974,640,304.5,50,2,-1,25,15,25,35,true,"2021-08-20 21:57:14",99.233.11.22,"Mozilla/5.0 (Windows NT 10.0; Win64; x64) AppleWebKit/537.36 (KHTML, like Gecko) Chrome/92.0.4515.159 Safari/537.36",WebKit,Chrome,92.0.4515.159,Windows,10.0,fe3c1d035a65c549f7011c5446f73ede
5,1,null,null,psychophysics,103,133636,0.0-3.0-1.49,"""",key,null,16.687355932203452,640,304.5,"""","""","""","""","""","""","""","""","2021-08-20 21:57:14",99.233.11.22,"Mozilla/5.0 (Windows NT 10.0; Win64; x64) AppleWebKit/537.36 (KHTML, like Gecko) Chrome/92.0.4515.159 Safari/537.36",WebKit,Chrome,92.0.4515.159,Windows,10.0,fe3c1d035a65c549f7011c5446f73ede
5,1,676.6000000238419,arrowleft,psychophysics,104,134324,0.0-3.0-0.50,"""",key,arrowleft,16.68602439024409,640,304.5,51,2,1,20,35,25,35,false,"2021-08-20 21:57:14",99.233.11.22,"Mozilla/5.0 (Windows NT 10.0; Win64; x64) AppleWebKit/537.36 (KHTML, like Gecko) Chrome/92.0.4515.159 Safari/537.36",WebKit,Chrome,92.0.4515.159,Windows,10.0,fe3c1d035a65c549f7011c5446f73ede
5,1,null,null,psychophysics,105,135338,0.0-3.0-1.50,"""",key,null,16.68277966101719,640,304.5,"""","""","""","""","""","""","""","""","2021-08-20 21:57:14",99.233.11.22,"Mozilla/5.0 (Windows NT 10.0; Win64; x64) AppleWebKit/537.36 (KHTML, like Gecko) Chrome/92.0.4515.159 Safari/537.36",WebKit,Chrome,92.0.4515.159,Windows,10.0,fe3c1d035a65c549f7011c5446f73ede
5,1,890.5,arrowleft,psychophysics,106,136240,0.0-3.0-0.51,"""",key,arrowleft,16.687509433962163,640,304.5,52,2,-1,24,15,25,35,true,"2021-08-20 21:57:14",99.233.11.22,"Mozilla/5.0 (Windows NT 10.0; Win64; x64) AppleWebKit/537.36 (KHTML, like Gecko) Chrome/92.0.4515.159 Safari/537.36",WebKit,Chrome,92.0.4515.159,Windows,10.0,fe3c1d035a65c549f7011c5446f73ede
5,1,null,null,psychophysics,107,137253,0.0-3.0-1.51,"""",key,null,16.68573333333334,640,304.5,"""","""","""","""","""","""","""","""","2021-08-20 21:57:14",99.233.11.22,"Mozilla/5.0 (Windows NT 10.0; Win64; x64) AppleWebKit/537.36 (KHTML, like Gecko) Chrome/92.0.4515.159 Safari/537.36",WebKit,Chrome,92.0.4515.159,Windows,10.0,fe3c1d035a65c549f7011c5446f73ede
5,1,654.1999999880791,arrowleft,psychophysics,108,137919,0.0-3.0-0.52,"""",key,arrowleft,16.690743589743924,640,304.5,53,2,-1,30,35,25,35,true,"2021-08-20 21:57:14",99.233.11.22,"Mozilla/5.0 (Windows NT 10.0; Win64; x64) AppleWebKit/537.36 (KHTML, like Gecko) Chrome/92.0.4515.159 Safari/537.36",WebKit,Chrome,92.0.4515.159,Windows,10.0,fe3c1d035a65c549f7011c5446f73ede
5,1,null,null,psychophysics,109,138926,0.0-3.0-1.52,"""",key,null,16.691084745762794,640,304.5,"""","""","""","""","""","""","""","""","2021-08-20 21:57:14",99.233.11.22,"Mozilla/5.0 (Windows NT 10.0; Win64; x64) AppleWebKit/537.36 (KHTML, like Gecko) Chrome/92.0.4515.159 Safari/537.36",WebKit,Chrome,92.0.4515.159,Windows,10.0,fe3c1d035a65c549f7011c5446f73ede
5,1,585.3000000119209,arrowright,psychophysics,110,139526,0.0-3.0-0.53,"""",key,arrowright,16.685428571428304,640,304.5,54,2,-1,20,35,25,35,false,"2021-08-20 21:57:14",99.233.11.22,"Mozilla/5.0 (Windows NT 10.0; Win64; x64) AppleWebKit/537.36 (KHTML, like Gecko) Chrome/92.0.4515.159 Safari/537.36",WebKit,Chrome,92.0.4515.159,Windows,10.0,fe3c1d035a65c549f7011c5446f73ede
5,1,null,null,psychophysics,111,140533,0.0-3.0-1.53,"""",key,null,16.690516666666372,640,304.5,"""","""","""","""","""","""","""","""","2021-08-20 21:57:14",99.233.11.22,"Mozilla/5.0 (Windows NT 10.0; Win64; x64) AppleWebKit/537.36 (KHTML, like Gecko) Chrome/92.0.4515.159 Safari/537.36",WebKit,Chrome,92.0.4515.159,Windows,10.0,fe3c1d035a65c549f7011c5446f73ede
5,1,512.1000000238419,arrowleft,psychophysics,112,141052,0.0-3.0-0.54,"""",key,arrowleft,16.68620000000034,640,304.5,55,2,1,27,15,25,35,false,"2021-08-20 21:57:14",99.233.11.22,"Mozilla/5.0 (Windows NT 10.0; Win64; x64) AppleWebKit/537.36 (KHTML, like Gecko) Chrome/92.0.4515.159 Safari/537.36",WebKit,Chrome,92.0.4515.159,Windows,10.0,fe3c1d035a65c549f7011c5446f73ede
5,1,null,null,psychophysics,113,142057,0.0-3.0-1.54,"""",key,null,16.689118644067726,640,304.5,"""","""","""","""","""","""","""","""","2021-08-20 21:57:14",99.233.11.22,"Mozilla/5.0 (Windows NT 10.0; Win64; x64) AppleWebKit/537.36 (KHTML, like Gecko) Chrome/92.0.4515.159 Safari/537.36",WebKit,Chrome,92.0.4515.159,Windows,10.0,fe3c1d035a65c549f7011c5446f73ede
5,1,794.0999999642372,arrowleft,psychophysics,114,142877,0.0-3.0-0.55,"""",key,arrowleft,16.682770833333052,640,304.5,56,3,-1,27,35,25,35,true,"2021-08-20 21:57:14",99.233.11.22,"Mozilla/5.0 (Windows NT 10.0; Win64; x64) AppleWebKit/537.36 (KHTML, like Gecko) Chrome/92.0.4515.159 Safari/537.36",WebKit,Chrome,92.0.4515.159,Windows,10.0,fe3c1d035a65c549f7011c5446f73ede
5,1,null,null,psychophysics,115,143881,0.0-3.0-1.55,"""",key,null,16.686135593220154,640,304.5,"""","""","""","""","""","""","""","""","2021-08-20 21:57:14",99.233.11.22,"Mozilla/5.0 (Windows NT 10.0; Win64; x64) AppleWebKit/537.36 (KHTML, like Gecko) Chrome/92.0.4515.159 Safari/537.36",WebKit,Chrome,92.0.4515.159,Windows,10.0,fe3c1d035a65c549f7011c5446f73ede
5,1,875,arrowright,html-keyboard-response,116,144760,0.0-3.0-2.55-0.55,"<div style=""color: white; text-align: center; vertical-align: top; display: inline-block; width: 800px; margin: auto""><p>You have completed 20% of the trials. You are on block 3 of 10. <br>Good job! Take a break if you need to.</p><p>Press any key to continue the experiment.</p></div>","""","""","""","""","""","""","""","""","""","""","""","""","""","2021-08-20 21:57:14",99.233.11.22,"Mozilla/5.0 (Windows NT 10.0; Win64; x64) AppleWebKit/537.36 (KHTML, like Gecko) Chrome/92.0.4515.159 Safari/537.36",WebKit,Chrome,92.0.4515.159,Windows,10.0,fe3c1d035a65c549f7011c5446f73ede
5,1,1206,arrowright,psychophysics,117,146983,0.0-3.0-0.56,"""",key,arrowright,16.682708333333316,640,304.5,57,3,1,26,35,25,35,true,"2021-08-20 21:57:14",99.233.11.22,"Mozilla/5.0 (Windows NT 10.0; Win64; x64) AppleWebKit/537.36 (KHTML, like Gecko) Chrome/92.0.4515.159 Safari/537.36",WebKit,Chrome,92.0.4515.159,Windows,10.0,fe3c1d035a65c549f7011c5446f73ede
5,1,null,null,psychophysics,118,147987,0.0-3.0-1.56,"""",key,null,16.689566666666845,640,304.5,"""","""","""","""","""","""","""","""","2021-08-20 21:57:14",99.233.11.22,"Mozilla/5.0 (Windows NT 10.0; Win64; x64) AppleWebKit/537.36 (KHTML, like Gecko) Chrome/92.0.4515.159 Safari/537.36",WebKit,Chrome,92.0.4515.159,Windows,10.0,fe3c1d035a65c549f7011c5446f73ede
5,1,819,arrowleft,psychophysics,119,148829,0.0-3.0-0.57,"""",key,arrowleft,16.689653061224593,640,304.5,58,3,-1,25,15,25,35,true,"2021-08-20 21:57:14",99.233.11.22,"Mozilla/5.0 (Windows NT 10.0; Win64; x64) AppleWebKit/537.36 (KHTML, like Gecko) Chrome/92.0.4515.159 Safari/537.36",WebKit,Chrome,92.0.4515.159,Windows,10.0,fe3c1d035a65c549f7011c5446f73ede
5,1,null,null,psychophysics,120,149833,0.0-3.0-1.57,"""",key,null,16.68489830508449,640,304.5,"""","""","""","""","""","""","""","""","2021-08-20 21:57:14",99.233.11.22,"Mozilla/5.0 (Windows NT 10.0; Win64; x64) AppleWebKit/537.36 (KHTML, like Gecko) Chrome/92.0.4515.159 Safari/537.36",WebKit,Chrome,92.0.4515.159,Windows,10.0,fe3c1d035a65c549f7011c5446f73ede
5,1,809.2999999523163,arrowright,psychophysics,121,150654,0.0-3.0-0.58,"""",key,arrowright,16.688041666666322,640,304.5,59,3,-1,25,35,25,35,false,"2021-08-20 21:57:14",99.233.11.22,"Mozilla/5.0 (Windows NT 10.0; Win64; x64) AppleWebKit/537.36 (KHTML, like Gecko) Chrome/92.0.4515.159 Safari/537.36",WebKit,Chrome,92.0.4515.159,Windows,10.0,fe3c1d035a65c549f7011c5446f73ede
5,1,null,null,psychophysics,122,151658,0.0-3.0-1.58,"""",key,null,16.687833333333643,640,304.5,"""","""","""","""","""","""","""","""","2021-08-20 21:57:14",99.233.11.22,"Mozilla/5.0 (Windows NT 10.0; Win64; x64) AppleWebKit/537.36 (KHTML, like Gecko) Chrome/92.0.4515.159 Safari/537.36",WebKit,Chrome,92.0.4515.159,Windows,10.0,fe3c1d035a65c549f7011c5446f73ede
5,1,792.6999999880791,arrowleft,psychophysics,123,152453,0.0-3.0-0.59,"""",key,arrowleft,16.68247826086957,640,304.5,60,3,1,20,35,25,35,false,"2021-08-20 21:57:14",99.233.11.22,"Mozilla/5.0 (Windows NT 10.0; Win64; x64) AppleWebKit/537.36 (KHTML, like Gecko) Chrome/92.0.4515.159 Safari/537.36",WebKit,Chrome,92.0.4515.159,Windows,10.0,fe3c1d035a65c549f7011c5446f73ede
5,1,null,null,psychophysics,124,153457,0.0-3.0-1.59,"""",key,null,16.68616949152537,640,304.5,"""","""","""","""","""","""","""","""","2021-08-20 21:57:14",99.233.11.22,"Mozilla/5.0 (Windows NT 10.0; Win64; x64) AppleWebKit/537.36 (KHTML, like Gecko) Chrome/92.0.4515.159 Safari/537.36",WebKit,Chrome,92.0.4515.159,Windows,10.0,fe3c1d035a65c549f7011c5446f73ede
5,1,917.6000000238419,arrowright,psychophysics,125,154401,0.0-3.0-0.60,"""",key,arrowright,16.685017857142935,640,304.5,61,3,1,27,15,25,35,true,"2021-08-20 21:57:14",99.233.11.22,"Mozilla/5.0 (Windows NT 10.0; Win64; x64) AppleWebKit/537.36 (KHTML, like Gecko) Chrome/92.0.4515.159 Safari/537.36",WebKit,Chrome,92.0.4515.159,Windows,10.0,fe3c1d035a65c549f7011c5446f73ede
5,1,null,null,psychophysics,126,155411,0.0-3.0-1.60,"""",key,null,16.682406779661306,640,304.5,"""","""","""","""","""","""","""","""","2021-08-20 21:57:14",99.233.11.22,"Mozilla/5.0 (Windows NT 10.0; Win64; x64) AppleWebKit/537.36 (KHTML, like Gecko) Chrome/92.0.4515.159 Safari/537.36",WebKit,Chrome,92.0.4515.159,Windows,10.0,fe3c1d035a65c549f7011c5446f73ede
5,1,1521.4000000357628,arrowleft,psychophysics,127,156943,0.0-3.0-0.61,"""",key,arrowleft,16.68579120879128,640,304.5,62,3,-1,23,15,25,35,true,"2021-08-20 21:57:14",99.233.11.22,"Mozilla/5.0 (Windows NT 10.0; Win64; x64) AppleWebKit/537.36 (KHTML, like Gecko) Chrome/92.0.4515.159 Safari/537.36",WebKit,Chrome,92.0.4515.159,Windows,10.0,fe3c1d035a65c549f7011c5446f73ede
5,1,null,null,psychophysics,128,157949,0.0-3.0-1.61,"""",key,null,16.690300000000086,640,304.5,"""","""","""","""","""","""","""","""","2021-08-20 21:57:14",99.233.11.22,"Mozilla/5.0 (Windows NT 10.0; Win64; x64) AppleWebKit/537.36 (KHTML, like Gecko) Chrome/92.0.4515.159 Safari/537.36",WebKit,Chrome,92.0.4515.159,Windows,10.0,fe3c1d035a65c549f7011c5446f73ede
5,1,942.5,arrowright,psychophysics,129,158900,0.0-3.0-0.62,"""",key,arrowright,16.68500000000027,640,304.5,63,3,1,24,15,25,35,true,"2021-08-20 21:57:14",99.233.11.22,"Mozilla/5.0 (Windows NT 10.0; Win64; x64) AppleWebKit/537.36 (KHTML, like Gecko) Chrome/92.0.4515.159 Safari/537.36",WebKit,Chrome,92.0.4515.159,Windows,10.0,fe3c1d035a65c549f7011c5446f73ede
5,1,null,null,psychophysics,130,159915,0.0-3.0-1.62,"""",key,null,16.68989830508471,640,304.5,"""","""","""","""","""","""","""","""","2021-08-20 21:57:14",99.233.11.22,"Mozilla/5.0 (Windows NT 10.0; Win64; x64) AppleWebKit/537.36 (KHTML, like Gecko) Chrome/92.0.4515.159 Safari/537.36",WebKit,Chrome,92.0.4515.159,Windows,10.0,fe3c1d035a65c549f7011c5446f73ede
5,1,670.5,arrowright,psychophysics,131,160597,0.0-3.0-0.63,"""",key,arrowright,16.68527499999982,640,304.5,64,3,-1,20,35,25,35,false,"2021-08-20 21:57:14",99.233.11.22,"Mozilla/5.0 (Windows NT 10.0; Win64; x64) AppleWebKit/537.36 (KHTML, like Gecko) Chrome/92.0.4515.159 Safari/537.36",WebKit,Chrome,92.0.4515.159,Windows,10.0,fe3c1d035a65c549f7011c5446f73ede
5,1,null,null,psychophysics,132,161602,0.0-3.0-1.63,"""",key,null,16.68501666666707,640,304.5,"""","""","""","""","""","""","""","""","2021-08-20 21:57:14",99.233.11.22,"Mozilla/5.0 (Windows NT 10.0; Win64; x64) AppleWebKit/537.36 (KHTML, like Gecko) Chrome/92.0.4515.159 Safari/537.36",WebKit,Chrome,92.0.4515.159,Windows,10.0,fe3c1d035a65c549f7011c5446f73ede
5,1,833,arrowright,psychophysics,133,162442,0.0-3.0-0.64,"""",key,arrowright,16.678938775509835,640,304.5,65,3,1,27,15,25,35,true,"2021-08-20 21:57:14",99.233.11.22,"Mozilla/5.0 (Windows NT 10.0; Win64; x64) AppleWebKit/537.36 (KHTML, like Gecko) Chrome/92.0.4515.159 Safari/537.36",WebKit,Chrome,92.0.4515.159,Windows,10.0,fe3c1d035a65c549f7011c5446f73ede
5,1,null,null,psychophysics,134,163453,0.0-3.0-1.64,"""",key,null,16.687338983050598,640,304.5,"""","""","""","""","""","""","""","""","2021-08-20 21:57:14",99.233.11.22,"Mozilla/5.0 (Windows NT 10.0; Win64; x64) AppleWebKit/537.36 (KHTML, like Gecko) Chrome/92.0.4515.159 Safari/537.36",WebKit,Chrome,92.0.4515.159,Windows,10.0,fe3c1d035a65c549f7011c5446f73ede
5,1,675.8000000119209,arrowright,psychophysics,135,164142,0.0-3.0-0.65,"""",key,arrowright,16.684731707317617,640,304.5,66,3,1,27,15,25,35,true,"2021-08-20 21:57:14",99.233.11.22,"Mozilla/5.0 (Windows NT 10.0; Win64; x64) AppleWebKit/537.36 (KHTML, like Gecko) Chrome/92.0.4515.159 Safari/537.36",WebKit,Chrome,92.0.4515.159,Windows,10.0,fe3c1d035a65c549f7011c5446f73ede
5,1,null,null,psychophysics,136,165148,0.0-3.0-1.65,"""",key,null,16.68622033898344,640,304.5,"""","""","""","""","""","""","""","""","2021-08-20 21:57:14",99.233.11.22,"Mozilla/5.0 (Windows NT 10.0; Win64; x64) AppleWebKit/537.36 (KHTML, like Gecko) Chrome/92.0.4515.159 Safari/537.36",WebKit,Chrome,92.0.4515.159,Windows,10.0,fe3c1d035a65c549f7011c5446f73ede
5,1,573.1999999880791,arrowright,psychophysics,137,165742,0.0-3.0-0.66,"""",key,arrowright,16.689857142856845,640,304.5,67,3,-1,23,35,25,35,false,"2021-08-20 21:57:14",99.233.11.22,"Mozilla/5.0 (Windows NT 10.0; Win64; x64) AppleWebKit/537.36 (KHTML, like Gecko) Chrome/92.0.4515.159 Safari/537.36",WebKit,Chrome,92.0.4515.159,Windows,10.0,fe3c1d035a65c549f7011c5446f73ede
5,1,null,null,psychophysics,138,166748,0.0-3.0-1.66,"""",key,null,16.68576271186476,640,304.5,"""","""","""","""","""","""","""","""","2021-08-20 21:57:14",99.233.11.22,"Mozilla/5.0 (Windows NT 10.0; Win64; x64) AppleWebKit/537.36 (KHTML, like Gecko) Chrome/92.0.4515.159 Safari/537.36",WebKit,Chrome,92.0.4515.159,Windows,10.0,fe3c1d035a65c549f7011c5446f73ede
5,1,1126.4000000357628,arrowleft,psychophysics,139,167882,0.0-3.0-0.67,"""",key,arrowleft,16.6852835820894,640,304.5,68,3,-1,26,35,25,35,true,"2021-08-20 21:57:14",99.233.11.22,"Mozilla/5.0 (Windows NT 10.0; Win64; x64) AppleWebKit/537.36 (KHTML, like Gecko) Chrome/92.0.4515.159 Safari/537.36",WebKit,Chrome,92.0.4515.159,Windows,10.0,fe3c1d035a65c549f7011c5446f73ede
5,1,null,null,psychophysics,140,168891,0.0-3.0-1.67,"""",key,null,16.689203389830517,640,304.5,"""","""","""","""","""","""","""","""","2021-08-20 21:57:14",99.233.11.22,"Mozilla/5.0 (Windows NT 10.0; Win64; x64) AppleWebKit/537.36 (KHTML, like Gecko) Chrome/92.0.4515.159 Safari/537.36",WebKit,Chrome,92.0.4515.159,Windows,10.0,fe3c1d035a65c549f7011c5446f73ede
5,1,1711.8999999761581,arrowleft,psychophysics,141,170616,0.0-3.0-0.68,"""",key,arrowleft,16.685815533980538,640,304.5,69,3,1,24,35,25,35,false,"2021-08-20 21:57:14",99.233.11.22,"Mozilla/5.0 (Windows NT 10.0; Win64; x64) AppleWebKit/537.36 (KHTML, like Gecko) Chrome/92.0.4515.159 Safari/537.36",WebKit,Chrome,92.0.4515.159,Windows,10.0,fe3c1d035a65c549f7011c5446f73ede
5,1,null,null,psychophysics,142,171642,0.0-3.0-1.68,"""",key,null,16.68630000000024,640,304.5,"""","""","""","""","""","""","""","""","2021-08-20 21:57:14",99.233.11.22,"Mozilla/5.0 (Windows NT 10.0; Win64; x64) AppleWebKit/537.36 (KHTML, like Gecko) Chrome/92.0.4515.159 Safari/537.36",WebKit,Chrome,92.0.4515.159,Windows,10.0,fe3c1d035a65c549f7011c5446f73ede
5,1,765,arrowright,psychophysics,143,172419,0.0-3.0-0.69,"""",key,arrowright,16.68645652173955,640,304.5,70,3,1,30,15,25,35,true,"2021-08-20 21:57:14",99.233.11.22,"Mozilla/5.0 (Windows NT 10.0; Win64; x64) AppleWebKit/537.36 (KHTML, like Gecko) Chrome/92.0.4515.159 Safari/537.36",WebKit,Chrome,92.0.4515.159,Windows,10.0,fe3c1d035a65c549f7011c5446f73ede
5,1,null,null,psychophysics,144,173430,0.0-3.0-1.69,"""",key,null,16.680169491525504,640,304.5,"""","""","""","""","""","""","""","""","2021-08-20 21:57:14",99.233.11.22,"Mozilla/5.0 (Windows NT 10.0; Win64; x64) AppleWebKit/537.36 (KHTML, like Gecko) Chrome/92.0.4515.159 Safari/537.36",WebKit,Chrome,92.0.4515.159,Windows,10.0,fe3c1d035a65c549f7011c5446f73ede
5,1,2249,arrowleft,psychophysics,145,175694,0.0-3.0-0.70,"""",key,arrowleft,16.683859259259233,640,304.5,71,3,1,20,15,25,35,false,"2021-08-20 21:57:14",99.233.11.22,"Mozilla/5.0 (Windows NT 10.0; Win64; x64) AppleWebKit/537.36 (KHTML, like Gecko) Chrome/92.0.4515.159 Safari/537.36",WebKit,Chrome,92.0.4515.159,Windows,10.0,fe3c1d035a65c549f7011c5446f73ede
5,1,null,null,psychophysics,146,176700,0.0-3.0-1.70,"""",key,null,16.68808474576286,640,304.5,"""","""","""","""","""","""","""","""","2021-08-20 21:57:14",99.233.11.22,"Mozilla/5.0 (Windows NT 10.0; Win64; x64) AppleWebKit/537.36 (KHTML, like Gecko) Chrome/92.0.4515.159 Safari/537.36",WebKit,Chrome,92.0.4515.159,Windows,10.0,fe3c1d035a65c549f7011c5446f73ede
5,1,922,arrowright,psychophysics,147,177644,0.0-3.0-0.71,"""",key,arrowright,16.684607142856944,640,304.5,72,3,-1,25,35,25,35,false,"2021-08-20 21:57:14",99.233.11.22,"Mozilla/5.0 (Windows NT 10.0; Win64; x64) AppleWebKit/537.36 (KHTML, like Gecko) Chrome/92.0.4515.159 Safari/537.36",WebKit,Chrome,92.0.4515.159,Windows,10.0,fe3c1d035a65c549f7011c5446f73ede
5,1,null,null,psychophysics,148,178653,0.0-3.0-1.71,"""",key,null,16.688457627118748,640,304.5,"""","""","""","""","""","""","""","""","2021-08-20 21:57:14",99.233.11.22,"Mozilla/5.0 (Windows NT 10.0; Win64; x64) AppleWebKit/537.36 (KHTML, like Gecko) Chrome/92.0.4515.159 Safari/537.36",WebKit,Chrome,92.0.4515.159,Windows,10.0,fe3c1d035a65c549f7011c5446f73ede
5,1,1467.199999988079,arrowleft,psychophysics,149,180133,0.0-3.0-0.72,"""",key,arrowleft,16.68709090909066,640,304.5,73,3,-1,27,35,25,35,true,"2021-08-20 21:57:14",99.233.11.22,"Mozilla/5.0 (Windows NT 10.0; Win64; x64) AppleWebKit/537.36 (KHTML, like Gecko) Chrome/92.0.4515.159 Safari/537.36",WebKit,Chrome,92.0.4515.159,Windows,10.0,fe3c1d035a65c549f7011c5446f73ede
5,1,null,null,psychophysics,150,181140,0.0-3.0-1.72,"""",key,null,16.685542372881113,640,304.5,"""","""","""","""","""","""","""","""","2021-08-20 21:57:14",99.233.11.22,"Mozilla/5.0 (Windows NT 10.0; Win64; x64) AppleWebKit/537.36 (KHTML, like Gecko) Chrome/92.0.4515.159 Safari/537.36",WebKit,Chrome,92.0.4515.159,Windows,10.0,fe3c1d035a65c549f7011c5446f73ede
5,1,737.4000000357628,arrowright,psychophysics,151,181890,0.0-3.0-0.73,"""",key,arrowright,16.679340909090982,640,304.5,74,3,1,27,15,25,35,true,"2021-08-20 21:57:14",99.233.11.22,"Mozilla/5.0 (Windows NT 10.0; Win64; x64) AppleWebKit/537.36 (KHTML, like Gecko) Chrome/92.0.4515.159 Safari/537.36",WebKit,Chrome,92.0.4515.159,Windows,10.0,fe3c1d035a65c549f7011c5446f73ede
5,1,null,null,psychophysics,152,182907,0.0-3.0-1.73,"""",key,null,16.685083333333022,640,304.5,"""","""","""","""","""","""","""","""","2021-08-20 21:57:14",99.233.11.22,"Mozilla/5.0 (Windows NT 10.0; Win64; x64) AppleWebKit/537.36 (KHTML, like Gecko) Chrome/92.0.4515.159 Safari/537.36",WebKit,Chrome,92.0.4515.159,Windows,10.0,fe3c1d035a65c549f7011c5446f73ede
5,1,790.6000000238419,arrowright,psychophysics,153,183721,0.0-3.0-0.74,"""",key,arrowright,16.687375000000127,640,304.5,75,3,1,24,15,25,35,true,"2021-08-20 21:57:14",99.233.11.22,"Mozilla/5.0 (Windows NT 10.0; Win64; x64) AppleWebKit/537.36 (KHTML, like Gecko) Chrome/92.0.4515.159 Safari/537.36",WebKit,Chrome,92.0.4515.159,Windows,10.0,fe3c1d035a65c549f7011c5446f73ede
5,1,null,null,psychophysics,154,184727,0.0-3.0-1.74,"""",key,null,16.690050847457933,640,304.5,"""","""","""","""","""","""","""","""","2021-08-20 21:57:14",99.233.11.22,"Mozilla/5.0 (Windows NT 10.0; Win64; x64) AppleWebKit/537.36 (KHTML, like Gecko) Chrome/92.0.4515.159 Safari/537.36",WebKit,Chrome,92.0.4515.159,Windows,10.0,fe3c1d035a65c549f7011c5446f73ede
5,1,594.2000000476837,arrowright,psychophysics,155,185347,0.0-3.0-0.75,"""",key,arrowright,16.680648648648088,640,304.5,76,3,-1,20,35,25,35,false,"2021-08-20 21:57:14",99.233.11.22,"Mozilla/5.0 (Windows NT 10.0; Win64; x64) AppleWebKit/537.36 (KHTML, like Gecko) Chrome/92.0.4515.159 Safari/537.36",WebKit,Chrome,92.0.4515.159,Windows,10.0,fe3c1d035a65c549f7011c5446f73ede
5,1,null,null,psychophysics,156,186359,0.0-3.0-1.75,"""",key,null,16.687305084745876,640,304.5,"""","""","""","""","""","""","""","""","2021-08-20 21:57:14",99.233.11.22,"Mozilla/5.0 (Windows NT 10.0; Win64; x64) AppleWebKit/537.36 (KHTML, like Gecko) Chrome/92.0.4515.159 Safari/537.36",WebKit,Chrome,92.0.4515.159,Windows,10.0,fe3c1d035a65c549f7011c5446f73ede
5,1,1271,arrowleft,psychophysics,157,187643,0.0-3.0-0.76,"""",key,arrowleft,16.687394736842084,640,304.5,77,3,-1,25,35,25,35,true,"2021-08-20 21:57:14",99.233.11.22,"Mozilla/5.0 (Windows NT 10.0; Win64; x64) AppleWebKit/537.36 (KHTML, like Gecko) Chrome/92.0.4515.159 Safari/537.36",WebKit,Chrome,92.0.4515.159,Windows,10.0,fe3c1d035a65c549f7011c5446f73ede
5,1,null,null,psychophysics,158,188648,0.0-3.0-1.76,"""",key,null,16.68720338983023,640,304.5,"""","""","""","""","""","""","""","""","2021-08-20 21:57:14",99.233.11.22,"Mozilla/5.0 (Windows NT 10.0; Win64; x64) AppleWebKit/537.36 (KHTML, like Gecko) Chrome/92.0.4515.159 Safari/537.36",WebKit,Chrome,92.0.4515.159,Windows,10.0,fe3c1d035a65c549f7011c5446f73ede
5,1,731.6999999880791,arrowright,psychophysics,159,189403,0.0-3.0-0.77,"""",key,arrowright,16.685422222222485,640,304.5,78,3,1,27,35,25,35,true,"2021-08-20 21:57:14",99.233.11.22,"Mozilla/5.0 (Windows NT 10.0; Win64; x64) AppleWebKit/537.36 (KHTML, like Gecko) Chrome/92.0.4515.159 Safari/537.36",WebKit,Chrome,92.0.4515.159,Windows,10.0,fe3c1d035a65c549f7011c5446f73ede
5,1,null,null,psychophysics,160,190407,0.0-3.0-1.77,"""",key,null,16.688677966101412,640,304.5,"""","""","""","""","""","""","""","""","2021-08-20 21:57:14",99.233.11.22,"Mozilla/5.0 (Windows NT 10.0; Win64; x64) AppleWebKit/537.36 (KHTML, like Gecko) Chrome/92.0.4515.159 Safari/537.36",WebKit,Chrome,92.0.4515.159,Windows,10.0,fe3c1d035a65c549f7011c5446f73ede
5,1,661.1999999880791,arrowright,psychophysics,161,191076,0.0-3.0-0.78,"""",key,arrowright,16.68556410256394,640,304.5,79,3,1,30,35,25,35,true,"2021-08-20 21:57:14",99.233.11.22,"Mozilla/5.0 (Windows NT 10.0; Win64; x64) AppleWebKit/537.36 (KHTML, like Gecko) Chrome/92.0.4515.159 Safari/537.36",WebKit,Chrome,92.0.4515.159,Windows,10.0,fe3c1d035a65c549f7011c5446f73ede
5,1,null,null,psychophysics,162,192085,0.0-3.0-1.78,"""",key,null,16.68444067796631,640,304.5,"""","""","""","""","""","""","""","""","2021-08-20 21:57:14",99.233.11.22,"Mozilla/5.0 (Windows NT 10.0; Win64; x64) AppleWebKit/537.36 (KHTML, like Gecko) Chrome/92.0.4515.159 Safari/537.36",WebKit,Chrome,92.0.4515.159,Windows,10.0,fe3c1d035a65c549f7011c5446f73ede
5,1,727.1000000238419,arrowright,psychophysics,163,192823,0.0-3.0-0.79,"""",key,arrowright,16.68563636363582,640,304.5,80,3,1,26,15,25,35,true,"2021-08-20 21:57:14",99.233.11.22,"Mozilla/5.0 (Windows NT 10.0; Win64; x64) AppleWebKit/537.36 (KHTML, like Gecko) Chrome/92.0.4515.159 Safari/537.36",WebKit,Chrome,92.0.4515.159,Windows,10.0,fe3c1d035a65c549f7011c5446f73ede
5,1,null,null,psychophysics,164,193826,0.0-3.0-1.79,"""",key,null,16.685016949152498,640,304.5,"""","""","""","""","""","""","""","""","2021-08-20 21:57:14",99.233.11.22,"Mozilla/5.0 (Windows NT 10.0; Win64; x64) AppleWebKit/537.36 (KHTML, like Gecko) Chrome/92.0.4515.159 Safari/537.36",WebKit,Chrome,92.0.4515.159,Windows,10.0,fe3c1d035a65c549f7011c5446f73ede
5,1,499.80000001192093,arrowright,psychophysics,165,194333,0.0-3.0-0.80,"""",key,arrowright,16.683896551723592,640,304.5,81,3,-1,26,15,25,35,false,"2021-08-20 21:57:14",99.233.11.22,"Mozilla/5.0 (Windows NT 10.0; Win64; x64) AppleWebKit/537.36 (KHTML, like Gecko) Chrome/92.0.4515.159 Safari/537.36",WebKit,Chrome,92.0.4515.159,Windows,10.0,fe3c1d035a65c549f7011c5446f73ede
5,1,null,null,psychophysics,166,195352,0.0-3.0-1.80,"""",key,null,16.687066666666944,640,304.5,"""","""","""","""","""","""","""","""","2021-08-20 21:57:14",99.233.11.22,"Mozilla/5.0 (Windows NT 10.0; Win64; x64) AppleWebKit/537.36 (KHTML, like Gecko) Chrome/92.0.4515.159 Safari/537.36",WebKit,Chrome,92.0.4515.159,Windows,10.0,fe3c1d035a65c549f7011c5446f73ede
5,1,678.8000000119209,arrowright,psychophysics,167,196043,0.0-3.0-0.81,"""",key,arrowright,16.689902439024923,640,304.5,82,3,-1,23,35,25,35,false,"2021-08-20 21:57:14",99.233.11.22,"Mozilla/5.0 (Windows NT 10.0; Win64; x64) AppleWebKit/537.36 (KHTML, like Gecko) Chrome/92.0.4515.159 Safari/537.36",WebKit,Chrome,92.0.4515.159,Windows,10.0,fe3c1d035a65c549f7011c5446f73ede
5,1,null,null,psychophysics,168,197057,0.0-3.0-1.81,"""",key,null,16.68593220338985,640,304.5,"""","""","""","""","""","""","""","""","2021-08-20 21:57:14",99.233.11.22,"Mozilla/5.0 (Windows NT 10.0; Win64; x64) AppleWebKit/537.36 (KHTML, like Gecko) Chrome/92.0.4515.159 Safari/537.36",WebKit,Chrome,92.0.4515.159,Windows,10.0,fe3c1d035a65c549f7011c5446f73ede
5,1,802.6999999880791,arrowleft,psychophysics,169,197871,0.0-3.0-0.82,"""",key,arrowleft,16.68043749999985,640,304.5,83,3,-1,30,15,25,35,true,"2021-08-20 21:57:14",99.233.11.22,"Mozilla/5.0 (Windows NT 10.0; Win64; x64) AppleWebKit/537.36 (KHTML, like Gecko) Chrome/92.0.4515.159 Safari/537.36",WebKit,Chrome,92.0.4515.159,Windows,10.0,fe3c1d035a65c549f7011c5446f73ede
5,1,null,null,psychophysics,170,198876,0.0-3.0-1.82,"""",key,null,16.689881355931856,640,304.5,"""","""","""","""","""","""","""","""","2021-08-20 21:57:14",99.233.11.22,"Mozilla/5.0 (Windows NT 10.0; Win64; x64) AppleWebKit/537.36 (KHTML, like Gecko) Chrome/92.0.4515.159 Safari/537.36",WebKit,Chrome,92.0.4515.159,Windows,10.0,fe3c1d035a65c549f7011c5446f73ede
5,1,891.4000000357628,arrowright,psychophysics,171,199780,0.0-3.0-0.83,"""",key,arrowright,16.682629629629513,640,304.5,84,4,1,23,35,25,35,true,"2021-08-20 21:57:14",99.233.11.22,"Mozilla/5.0 (Windows NT 10.0; Win64; x64) AppleWebKit/537.36 (KHTML, like Gecko) Chrome/92.0.4515.159 Safari/537.36",WebKit,Chrome,92.0.4515.159,Windows,10.0,fe3c1d035a65c549f7011c5446f73ede
5,1,null,null,psychophysics,172,200794,0.0-3.0-1.83,"""",key,null,16.68716949152551,640,304.5,"""","""","""","""","""","""","""","""","2021-08-20 21:57:14",99.233.11.22,"Mozilla/5.0 (Windows NT 10.0; Win64; x64) AppleWebKit/537.36 (KHTML, like Gecko) Chrome/92.0.4515.159 Safari/537.36",WebKit,Chrome,92.0.4515.159,Windows,10.0,fe3c1d035a65c549f7011c5446f73ede
5,1,1815,arrowright,html-keyboard-response,173,202623,0.0-3.0-2.83-0.83,"<div style=""color: white; text-align: center; vertical-align: top; display: inline-block; width: 800px; margin: auto""><p>You have completed 30% of the trials. You are on block 4 of 10. <br>Good job! Take a break if you need to.</p><p>Press any key to continue the experiment.</p></div>","""","""","""","""","""","""","""","""","""","""","""","""","""","2021-08-20 21:57:14",99.233.11.22,"Mozilla/5.0 (Windows NT 10.0; Win64; x64) AppleWebKit/537.36 (KHTML, like Gecko) Chrome/92.0.4515.159 Safari/537.36",WebKit,Chrome,92.0.4515.159,Windows,10.0,fe3c1d035a65c549f7011c5446f73ede
5,1,3464.2999999523163,arrowleft,psychophysics,174,207110,0.0-3.0-0.84,"""",key,arrowleft,16.685596153846117,640,304.5,85,4,1,20,35,25,35,false,"2021-08-20 21:57:14",99.233.11.22,"Mozilla/5.0 (Windows NT 10.0; Win64; x64) AppleWebKit/537.36 (KHTML, like Gecko) Chrome/92.0.4515.159 Safari/537.36",WebKit,Chrome,92.0.4515.159,Windows,10.0,fe3c1d035a65c549f7011c5446f73ede
5,1,null,null,psychophysics,175,208136,0.0-3.0-1.84,"""",key,null,16.68558333333349,640,304.5,"""","""","""","""","""","""","""","""","2021-08-20 21:57:14",99.233.11.22,"Mozilla/5.0 (Windows NT 10.0; Win64; x64) AppleWebKit/537.36 (KHTML, like Gecko) Chrome/92.0.4515.159 Safari/537.36",WebKit,Chrome,92.0.4515.159,Windows,10.0,fe3c1d035a65c549f7011c5446f73ede
5,1,1342.5999999642372,arrowright,psychophysics,176,209490,0.0-3.0-0.85,"""",key,arrowright,16.6836666666664,640,304.5,86,4,-1,25,35,25,35,false,"2021-08-20 21:57:14",99.233.11.22,"Mozilla/5.0 (Windows NT 10.0; Win64; x64) AppleWebKit/537.36 (KHTML, like Gecko) Chrome/92.0.4515.159 Safari/537.36",WebKit,Chrome,92.0.4515.159,Windows,10.0,fe3c1d035a65c549f7011c5446f73ede
5,1,null,null,psychophysics,177,210497,0.0-3.0-1.85,"""",key,null,16.68823728813559,640,304.5,"""","""","""","""","""","""","""","""","2021-08-20 21:57:14",99.233.11.22,"Mozilla/5.0 (Windows NT 10.0; Win64; x64) AppleWebKit/537.36 (KHTML, like Gecko) Chrome/92.0.4515.159 Safari/537.36",WebKit,Chrome,92.0.4515.159,Windows,10.0,fe3c1d035a65c549f7011c5446f73ede
5,1,848.1999999880791,arrowright,psychophysics,178,211352,0.0-3.0-0.86,"""",key,arrowright,16.683919999999926,640,304.5,87,4,1,25,15,25,35,true,"2021-08-20 21:57:14",99.233.11.22,"Mozilla/5.0 (Windows NT 10.0; Win64; x64) AppleWebKit/537.36 (KHTML, like Gecko) Chrome/92.0.4515.159 Safari/537.36",WebKit,Chrome,92.0.4515.159,Windows,10.0,fe3c1d035a65c549f7011c5446f73ede
5,1,null,null,psychophysics,179,212357,0.0-3.0-1.86,"""",key,null,16.685559322033967,640,304.5,"""","""","""","""","""","""","""","""","2021-08-20 21:57:14",99.233.11.22,"Mozilla/5.0 (Windows NT 10.0; Win64; x64) AppleWebKit/537.36 (KHTML, like Gecko) Chrome/92.0.4515.159 Safari/537.36",WebKit,Chrome,92.0.4515.159,Windows,10.0,fe3c1d035a65c549f7011c5446f73ede
5,1,463.5,arrowright,psychophysics,180,212832,0.0-3.0-0.87,"""",key,arrowright,16.682607142857574,640,304.5,88,4,-1,25,15,25,35,false,"2021-08-20 21:57:14",99.233.11.22,"Mozilla/5.0 (Windows NT 10.0; Win64; x64) AppleWebKit/537.36 (KHTML, like Gecko) Chrome/92.0.4515.159 Safari/537.36",WebKit,Chrome,92.0.4515.159,Windows,10.0,fe3c1d035a65c549f7011c5446f73ede
5,1,null,null,psychophysics,181,213855,0.0-3.0-1.87,"""",key,null,16.685233333333358,640,304.5,"""","""","""","""","""","""","""","""","2021-08-20 21:57:14",99.233.11.22,"Mozilla/5.0 (Windows NT 10.0; Win64; x64) AppleWebKit/537.36 (KHTML, like Gecko) Chrome/92.0.4515.159 Safari/537.36",WebKit,Chrome,92.0.4515.159,Windows,10.0,fe3c1d035a65c549f7011c5446f73ede
5,1,578.8000000119209,arrowright,psychophysics,182,214448,0.0-3.0-0.88,"""",key,arrowright,16.685514285713932,640,304.5,89,4,1,30,15,25,35,true,"2021-08-20 21:57:14",99.233.11.22,"Mozilla/5.0 (Windows NT 10.0; Win64; x64) AppleWebKit/537.36 (KHTML, like Gecko) Chrome/92.0.4515.159 Safari/537.36",WebKit,Chrome,92.0.4515.159,Windows,10.0,fe3c1d035a65c549f7011c5446f73ede
5,1,null,null,psychophysics,183,215452,0.0-3.0-1.88,"""",key,null,16.683999999999997,640,304.5,"""","""","""","""","""","""","""","""","2021-08-20 21:57:14",99.233.11.22,"Mozilla/5.0 (Windows NT 10.0; Win64; x64) AppleWebKit/537.36 (KHTML, like Gecko) Chrome/92.0.4515.159 Safari/537.36",WebKit,Chrome,92.0.4515.159,Windows,10.0,fe3c1d035a65c549f7011c5446f73ede
5,1,639.3999999761581,arrowleft,psychophysics,184,216099,0.0-3.0-0.89,"""",key,arrowleft,16.68592105263164,640,304.5,90,4,-1,27,15,25,35,true,"2021-08-20 21:57:14",99.233.11.22,"Mozilla/5.0 (Windows NT 10.0; Win64; x64) AppleWebKit/537.36 (KHTML, like Gecko) Chrome/92.0.4515.159 Safari/537.36",WebKit,Chrome,92.0.4515.159,Windows,10.0,fe3c1d035a65c549f7011c5446f73ede
5,1,null,null,psychophysics,185,217103,0.0-3.0-1.89,"""",key,null,16.682847457627126,640,304.5,"""","""","""","""","""","""","""","""","2021-08-20 21:57:14",99.233.11.22,"Mozilla/5.0 (Windows NT 10.0; Win64; x64) AppleWebKit/537.36 (KHTML, like Gecko) Chrome/92.0.4515.159 Safari/537.36",WebKit,Chrome,92.0.4515.159,Windows,10.0,fe3c1d035a65c549f7011c5446f73ede
5,1,925.8000000119209,arrowleft,psychophysics,186,218036,0.0-3.0-0.90,"""",key,arrowleft,16.690363636363656,640,304.5,91,4,-1,24,15,25,35,true,"2021-08-20 21:57:14",99.233.11.22,"Mozilla/5.0 (Windows NT 10.0; Win64; x64) AppleWebKit/537.36 (KHTML, like Gecko) Chrome/92.0.4515.159 Safari/537.36",WebKit,Chrome,92.0.4515.159,Windows,10.0,fe3c1d035a65c549f7011c5446f73ede
5,1,null,null,psychophysics,187,219048,0.0-3.0-1.90,"""",key,null,16.685271186440872,640,304.5,"""","""","""","""","""","""","""","""","2021-08-20 21:57:14",99.233.11.22,"Mozilla/5.0 (Windows NT 10.0; Win64; x64) AppleWebKit/537.36 (KHTML, like Gecko) Chrome/92.0.4515.159 Safari/537.36",WebKit,Chrome,92.0.4515.159,Windows,10.0,fe3c1d035a65c549f7011c5446f73ede
5,1,823.1999999880791,arrowleft,psychophysics,188,219896,0.0-3.0-0.91,"""",key,arrowleft,16.679380000000236,640,304.5,92,4,-1,25,15,25,35,true,"2021-08-20 21:57:14",99.233.11.22,"Mozilla/5.0 (Windows NT 10.0; Win64; x64) AppleWebKit/537.36 (KHTML, like Gecko) Chrome/92.0.4515.159 Safari/537.36",WebKit,Chrome,92.0.4515.159,Windows,10.0,fe3c1d035a65c549f7011c5446f73ede
5,1,null,null,psychophysics,189,220900,0.0-3.0-1.91,"""",key,null,16.685881355932274,640,304.5,"""","""","""","""","""","""","""","""","2021-08-20 21:57:14",99.233.11.22,"Mozilla/5.0 (Windows NT 10.0; Win64; x64) AppleWebKit/537.36 (KHTML, like Gecko) Chrome/92.0.4515.159 Safari/537.36",WebKit,Chrome,92.0.4515.159,Windows,10.0,fe3c1d035a65c549f7011c5446f73ede
5,1,718.5,arrowright,psychophysics,190,221638,0.0-3.0-0.92,"""",key,arrowright,16.678636363636045,640,304.5,93,4,1,27,35,25,35,true,"2021-08-20 21:57:14",99.233.11.22,"Mozilla/5.0 (Windows NT 10.0; Win64; x64) AppleWebKit/537.36 (KHTML, like Gecko) Chrome/92.0.4515.159 Safari/537.36",WebKit,Chrome,92.0.4515.159,Windows,10.0,fe3c1d035a65c549f7011c5446f73ede
5,1,null,null,psychophysics,191,222649,0.0-3.0-1.92,"""",key,null,16.685271186440872,640,304.5,"""","""","""","""","""","""","""","""","2021-08-20 21:57:14",99.233.11.22,"Mozilla/5.0 (Windows NT 10.0; Win64; x64) AppleWebKit/537.36 (KHTML, like Gecko) Chrome/92.0.4515.159 Safari/537.36",WebKit,Chrome,92.0.4515.159,Windows,10.0,fe3c1d035a65c549f7011c5446f73ede
5,1,925.6000000238419,arrowleft,psychophysics,192,223586,0.0-3.0-0.93,"""",key,arrowleft,16.686163636363663,640,304.5,94,4,1,23,35,25,35,false,"2021-08-20 21:57:14",99.233.11.22,"Mozilla/5.0 (Windows NT 10.0; Win64; x64) AppleWebKit/537.36 (KHTML, like Gecko) Chrome/92.0.4515.159 Safari/537.36",WebKit,Chrome,92.0.4515.159,Windows,10.0,fe3c1d035a65c549f7011c5446f73ede
5,1,null,null,psychophysics,193,224589,0.0-3.0-1.93,"""",key,null,16.688716666666732,640,304.5,"""","""","""","""","""","""","""","""","2021-08-20 21:57:14",99.233.11.22,"Mozilla/5.0 (Windows NT 10.0; Win64; x64) AppleWebKit/537.36 (KHTML, like Gecko) Chrome/92.0.4515.159 Safari/537.36",WebKit,Chrome,92.0.4515.159,Windows,10.0,fe3c1d035a65c549f7011c5446f73ede
5,1,677.8000000119209,arrowleft,psychophysics,194,225293,0.0-3.0-0.94,"""",key,arrowleft,16.692853658536745,640,304.5,95,4,-1,27,35,25,35,true,"2021-08-20 21:57:14",99.233.11.22,"Mozilla/5.0 (Windows NT 10.0; Win64; x64) AppleWebKit/537.36 (KHTML, like Gecko) Chrome/92.0.4515.159 Safari/537.36",WebKit,Chrome,92.0.4515.159,Windows,10.0,fe3c1d035a65c549f7011c5446f73ede
5,1,null,null,psychophysics,195,226304,0.0-3.0-1.94,"""",key,null,16.68462711864376,640,304.5,"""","""","""","""","""","""","""","""","2021-08-20 21:57:14",99.233.11.22,"Mozilla/5.0 (Windows NT 10.0; Win64; x64) AppleWebKit/537.36 (KHTML, like Gecko) Chrome/92.0.4515.159 Safari/537.36",WebKit,Chrome,92.0.4515.159,Windows,10.0,fe3c1d035a65c549f7011c5446f73ede
5,1,597,arrowright,psychophysics,196,226913,0.0-3.0-0.95,"""",key,arrowright,16.693333333333108,640,304.5,96,4,1,30,15,25,35,true,"2021-08-20 21:57:14",99.233.11.22,"Mozilla/5.0 (Windows NT 10.0; Win64; x64) AppleWebKit/537.36 (KHTML, like Gecko) Chrome/92.0.4515.159 Safari/537.36",WebKit,Chrome,92.0.4515.159,Windows,10.0,fe3c1d035a65c549f7011c5446f73ede
5,1,null,null,psychophysics,197,227924,0.0-3.0-1.95,"""",key,null,16.688372881355956,640,304.5,"""","""","""","""","""","""","""","""","2021-08-20 21:57:14",99.233.11.22,"Mozilla/5.0 (Windows NT 10.0; Win64; x64) AppleWebKit/537.36 (KHTML, like Gecko) Chrome/92.0.4515.159 Safari/537.36",WebKit,Chrome,92.0.4515.159,Windows,10.0,fe3c1d035a65c549f7011c5446f73ede
5,1,813.8000000119209,arrowleft,psychophysics,198,228752,0.0-3.0-0.96,"""",key,arrowleft,16.682326530612414,640,304.5,97,4,-1,26,35,25,35,true,"2021-08-20 21:57:14",99.233.11.22,"Mozilla/5.0 (Windows NT 10.0; Win64; x64) AppleWebKit/537.36 (KHTML, like Gecko) Chrome/92.0.4515.159 Safari/537.36",WebKit,Chrome,92.0.4515.159,Windows,10.0,fe3c1d035a65c549f7011c5446f73ede
5,1,null,null,psychophysics,199,229756,0.0-3.0-1.96,"""",key,null,16.684169491525576,640,304.5,"""","""","""","""","""","""","""","""","2021-08-20 21:57:14",99.233.11.22,"Mozilla/5.0 (Windows NT 10.0; Win64; x64) AppleWebKit/537.36 (KHTML, like Gecko) Chrome/92.0.4515.159 Safari/537.36",WebKit,Chrome,92.0.4515.159,Windows,10.0,fe3c1d035a65c549f7011c5446f73ede
5,1,585.7000000476837,arrowright,psychophysics,200,230352,0.0-3.0-0.97,"""",key,arrowright,16.689714285714686,640,304.5,98,4,-1,20,35,25,35,false,"2021-08-20 21:57:14",99.233.11.22,"Mozilla/5.0 (Windows NT 10.0; Win64; x64) AppleWebKit/537.36 (KHTML, like Gecko) Chrome/92.0.4515.159 Safari/537.36",WebKit,Chrome,92.0.4515.159,Windows,10.0,fe3c1d035a65c549f7011c5446f73ede
5,1,null,null,psychophysics,201,231370,0.0-3.0-1.97,"""",key,null,16.684800000000298,640,304.5,"""","""","""","""","""","""","""","""","2021-08-20 21:57:14",99.233.11.22,"Mozilla/5.0 (Windows NT 10.0; Win64; x64) AppleWebKit/537.36 (KHTML, like Gecko) Chrome/92.0.4515.159 Safari/537.36",WebKit,Chrome,92.0.4515.159,Windows,10.0,fe3c1d035a65c549f7011c5446f73ede
5,1,977.3000000119209,arrowleft,psychophysics,202,232355,0.0-3.0-0.98,"""",key,arrowleft,16.6861896551724,640,304.5,99,4,1,24,35,25,35,false,"2021-08-20 21:57:14",99.233.11.22,"Mozilla/5.0 (Windows NT 10.0; Win64; x64) AppleWebKit/537.36 (KHTML, like Gecko) Chrome/92.0.4515.159 Safari/537.36",WebKit,Chrome,92.0.4515.159,Windows,10.0,fe3c1d035a65c549f7011c5446f73ede
5,1,null,null,psychophysics,203,233377,0.0-3.0-1.98,"""",key,null,16.68636666666668,640,304.5,"""","""","""","""","""","""","""","""","2021-08-20 21:57:14",99.233.11.22,"Mozilla/5.0 (Windows NT 10.0; Win64; x64) AppleWebKit/537.36 (KHTML, like Gecko) Chrome/92.0.4515.159 Safari/537.36",WebKit,Chrome,92.0.4515.159,Windows,10.0,fe3c1d035a65c549f7011c5446f73ede
5,1,823.5999999642372,arrowleft,psychophysics,204,234213,0.0-3.0-0.99,"""",key,arrowleft,16.69104081632662,640,304.5,100,4,1,23,35,25,35,false,"2021-08-20 21:57:14",99.233.11.22,"Mozilla/5.0 (Windows NT 10.0; Win64; x64) AppleWebKit/537.36 (KHTML, like Gecko) Chrome/92.0.4515.159 Safari/537.36",WebKit,Chrome,92.0.4515.159,Windows,10.0,fe3c1d035a65c549f7011c5446f73ede
5,1,null,null,psychophysics,205,235218,0.0-3.0-1.99,"""",key,null,16.68733333333318,640,304.5,"""","""","""","""","""","""","""","""","2021-08-20 21:57:14",99.233.11.22,"Mozilla/5.0 (Windows NT 10.0; Win64; x64) AppleWebKit/537.36 (KHTML, like Gecko) Chrome/92.0.4515.159 Safari/537.36",WebKit,Chrome,92.0.4515.159,Windows,10.0,fe3c1d035a65c549f7011c5446f73ede
5,1,695.6999999880791,arrowleft,psychophysics,206,235922,0.0-3.0-0.100,"""",key,arrowleft,16.688853658536996,640,304.5,101,4,-1,26,35,25,35,true,"2021-08-20 21:57:14",99.233.11.22,"Mozilla/5.0 (Windows NT 10.0; Win64; x64) AppleWebKit/537.36 (KHTML, like Gecko) Chrome/92.0.4515.159 Safari/537.36",WebKit,Chrome,92.0.4515.159,Windows,10.0,fe3c1d035a65c549f7011c5446f73ede
5,1,null,null,psychophysics,207,236946,0.0-3.0-1.100,"""",key,null,16.685050000000047,640,304.5,"""","""","""","""","""","""","""","""","2021-08-20 21:57:14",99.233.11.22,"Mozilla/5.0 (Windows NT 10.0; Win64; x64) AppleWebKit/537.36 (KHTML, like Gecko) Chrome/92.0.4515.159 Safari/537.36",WebKit,Chrome,92.0.4515.159,Windows,10.0,fe3c1d035a65c549f7011c5446f73ede
5,1,735.7000000476837,arrowleft,psychophysics,208,237698,0.0-3.0-0.101,"""",key,arrowleft,16.689909090909087,640,304.5,102,4,1,26,35,25,35,false,"2021-08-20 21:57:14",99.233.11.22,"Mozilla/5.0 (Windows NT 10.0; Win64; x64) AppleWebKit/537.36 (KHTML, like Gecko) Chrome/92.0.4515.159 Safari/537.36",WebKit,Chrome,92.0.4515.159,Windows,10.0,fe3c1d035a65c549f7011c5446f73ede
5,1,null,null,psychophysics,209,238702,0.0-3.0-1.101,"""",key,null,16.688355932203102,640,304.5,"""","""","""","""","""","""","""","""","2021-08-20 21:57:14",99.233.11.22,"Mozilla/5.0 (Windows NT 10.0; Win64; x64) AppleWebKit/537.36 (KHTML, like Gecko) Chrome/92.0.4515.159 Safari/537.36",WebKit,Chrome,92.0.4515.159,Windows,10.0,fe3c1d035a65c549f7011c5446f73ede
5,1,809.1999999880791,arrowleft,psychophysics,210,239523,0.0-3.0-0.102,"""",key,arrowleft,16.68487755102058,640,304.5,103,4,-1,25,35,25,35,true,"2021-08-20 21:57:14",99.233.11.22,"Mozilla/5.0 (Windows NT 10.0; Win64; x64) AppleWebKit/537.36 (KHTML, like Gecko) Chrome/92.0.4515.159 Safari/537.36",WebKit,Chrome,92.0.4515.159,Windows,10.0,fe3c1d035a65c549f7011c5446f73ede
5,1,null,null,psychophysics,211,240538,0.0-3.0-1.102,"""",key,null,16.683084745762645,640,304.5,"""","""","""","""","""","""","""","""","2021-08-20 21:57:14",99.233.11.22,"Mozilla/5.0 (Windows NT 10.0; Win64; x64) AppleWebKit/537.36 (KHTML, like Gecko) Chrome/92.0.4515.159 Safari/537.36",WebKit,Chrome,92.0.4515.159,Windows,10.0,fe3c1d035a65c549f7011c5446f73ede
5,1,694.0999999642372,arrowleft,psychophysics,212,241242,0.0-3.0-0.103,"""",key,arrowleft,16.684714285714325,640,304.5,104,4,-1,30,15,25,35,true,"2021-08-20 21:57:14",99.233.11.22,"Mozilla/5.0 (Windows NT 10.0; Win64; x64) AppleWebKit/537.36 (KHTML, like Gecko) Chrome/92.0.4515.159 Safari/537.36",WebKit,Chrome,92.0.4515.159,Windows,10.0,fe3c1d035a65c549f7011c5446f73ede
5,1,null,null,psychophysics,213,242248,0.0-3.0-1.103,"""",key,null,16.68757627118661,640,304.5,"""","""","""","""","""","""","""","""","2021-08-20 21:57:14",99.233.11.22,"Mozilla/5.0 (Windows NT 10.0; Win64; x64) AppleWebKit/537.36 (KHTML, like Gecko) Chrome/92.0.4515.159 Safari/537.36",WebKit,Chrome,92.0.4515.159,Windows,10.0,fe3c1d035a65c549f7011c5446f73ede
5,1,898.9000000357628,arrowleft,psychophysics,214,243171,0.0-3.0-0.104,"""",key,arrowleft,16.689203703703242,640,304.5,105,4,-1,30,35,25,35,true,"2021-08-20 21:57:14",99.233.11.22,"Mozilla/5.0 (Windows NT 10.0; Win64; x64) AppleWebKit/537.36 (KHTML, like Gecko) Chrome/92.0.4515.159 Safari/537.36",WebKit,Chrome,92.0.4515.159,Windows,10.0,fe3c1d035a65c549f7011c5446f73ede
5,1,null,null,psychophysics,215,244175,0.0-3.0-1.104,"""",key,null,16.68593220338985,640,304.5,"""","""","""","""","""","""","""","""","2021-08-20 21:57:14",99.233.11.22,"Mozilla/5.0 (Windows NT 10.0; Win64; x64) AppleWebKit/537.36 (KHTML, like Gecko) Chrome/92.0.4515.159 Safari/537.36",WebKit,Chrome,92.0.4515.159,Windows,10.0,fe3c1d035a65c549f7011c5446f73ede
5,1,780.3000000119209,arrowright,psychophysics,216,244967,0.0-3.0-0.105,"""",key,arrowright,16.686851063829927,640,304.5,106,4,-1,20,15,25,35,false,"2021-08-20 21:57:14",99.233.11.22,"Mozilla/5.0 (Windows NT 10.0; Win64; x64) AppleWebKit/537.36 (KHTML, like Gecko) Chrome/92.0.4515.159 Safari/537.36",WebKit,Chrome,92.0.4515.159,Windows,10.0,fe3c1d035a65c549f7011c5446f73ede
5,1,null,null,psychophysics,217,245978,0.0-3.0-1.105,"""",key,null,16.684542372881463,640,304.5,"""","""","""","""","""","""","""","""","2021-08-20 21:57:14",99.233.11.22,"Mozilla/5.0 (Windows NT 10.0; Win64; x64) AppleWebKit/537.36 (KHTML, like Gecko) Chrome/92.0.4515.159 Safari/537.36",WebKit,Chrome,92.0.4515.159,Windows,10.0,fe3c1d035a65c549f7011c5446f73ede
5,1,2576.699999988079,arrowright,psychophysics,218,248569,0.0-3.0-0.106,"""",key,arrowright,16.68454193548382,640,304.5,107,4,1,24,15,25,35,true,"2021-08-20 21:57:14",99.233.11.22,"Mozilla/5.0 (Windows NT 10.0; Win64; x64) AppleWebKit/537.36 (KHTML, like Gecko) Chrome/92.0.4515.159 Safari/537.36",WebKit,Chrome,92.0.4515.159,Windows,10.0,fe3c1d035a65c549f7011c5446f73ede
5,1,null,null,psychophysics,219,249585,0.0-3.0-1.106,"""",key,null,16.727216666666695,640,304.5,"""","""","""","""","""","""","""","""","2021-08-20 21:57:14",99.233.11.22,"Mozilla/5.0 (Windows NT 10.0; Win64; x64) AppleWebKit/537.36 (KHTML, like Gecko) Chrome/92.0.4515.159 Safari/537.36",WebKit,Chrome,92.0.4515.159,Windows,10.0,fe3c1d035a65c549f7011c5446f73ede
5,1,699.6999999880791,arrowleft,psychophysics,220,250287,0.0-3.0-0.107,"""",key,arrowleft,16.68626829268263,640,304.5,108,4,-1,25,15,25,35,true,"2021-08-20 21:57:14",99.233.11.22,"Mozilla/5.0 (Windows NT 10.0; Win64; x64) AppleWebKit/537.36 (KHTML, like Gecko) Chrome/92.0.4515.159 Safari/537.36",WebKit,Chrome,92.0.4515.159,Windows,10.0,fe3c1d035a65c549f7011c5446f73ede
5,1,null,null,psychophysics,221,251299,0.0-3.0-1.107,"""",key,null,16.680457627118596,640,304.5,"""","""","""","""","""","""","""","""","2021-08-20 21:57:14",99.233.11.22,"Mozilla/5.0 (Windows NT 10.0; Win64; x64) AppleWebKit/537.36 (KHTML, like Gecko) Chrome/92.0.4515.159 Safari/537.36",WebKit,Chrome,92.0.4515.159,Windows,10.0,fe3c1d035a65c549f7011c5446f73ede
5,1,577.8999999761581,arrowright,psychophysics,222,251888,0.0-3.0-0.108,"""",key,arrowright,16.689999999999834,640,304.5,109,4,1,24,35,25,35,true,"2021-08-20 21:57:14",99.233.11.22,"Mozilla/5.0 (Windows NT 10.0; Win64; x64) AppleWebKit/537.36 (KHTML, like Gecko) Chrome/92.0.4515.159 Safari/537.36",WebKit,Chrome,92.0.4515.159,Windows,10.0,fe3c1d035a65c549f7011c5446f73ede
5,1,null,null,psychophysics,223,252894,0.0-3.0-1.108,"""",key,null,16.688271186440804,640,304.5,"""","""","""","""","""","""","""","""","2021-08-20 21:57:14",99.233.11.22,"Mozilla/5.0 (Windows NT 10.0; Win64; x64) AppleWebKit/537.36 (KHTML, like Gecko) Chrome/92.0.4515.159 Safari/537.36",WebKit,Chrome,92.0.4515.159,Windows,10.0,fe3c1d035a65c549f7011c5446f73ede
5,1,809.6999999880791,arrowright,psychophysics,224,253710,0.0-3.0-0.109,"""",key,arrowright,16.68810416666626,640,304.5,110,4,1,26,15,25,35,true,"2021-08-20 21:57:14",99.233.11.22,"Mozilla/5.0 (Windows NT 10.0; Win64; x64) AppleWebKit/537.36 (KHTML, like Gecko) Chrome/92.0.4515.159 Safari/537.36",WebKit,Chrome,92.0.4515.159,Windows,10.0,fe3c1d035a65c549f7011c5446f73ede
5,1,null,null,psychophysics,225,254877,0.0-3.0-1.109,"""",key,null,16.671378378377995,640,304.5,"""","""","""","""","""","""","""","""","2021-08-20 21:57:14",99.233.11.22,"Mozilla/5.0 (Windows NT 10.0; Win64; x64) AppleWebKit/537.36 (KHTML, like Gecko) Chrome/92.0.4515.159 Safari/537.36",WebKit,Chrome,92.0.4515.159,Windows,10.0,fe3c1d035a65c549f7011c5446f73ede
5,1,12806.599999964237,arrowleft,psychophysics,226,302010,0.0-3.0-0.110,"""",key,arrowleft,16.684721698113037,640,304.5,111,4,-1,27,35,25,35,true,"2021-08-20 21:57:14",99.233.11.22,"Mozilla/5.0 (Windows NT 10.0; Win64; x64) AppleWebKit/537.36 (KHTML, like Gecko) Chrome/92.0.4515.159 Safari/537.36",WebKit,Chrome,92.0.4515.159,Windows,10.0,fe3c1d035a65c549f7011c5446f73ede
5,1,null,null,psychophysics,227,303011,0.0-3.0-1.110,"""",key,null,16.68484745762741,640,304.5,"""","""","""","""","""","""","""","""","2021-08-20 21:57:14",99.233.11.22,"Mozilla/5.0 (Windows NT 10.0; Win64; x64) AppleWebKit/537.36 (KHTML, like Gecko) Chrome/92.0.4515.159 Safari/537.36",WebKit,Chrome,92.0.4515.159,Windows,10.0,fe3c1d035a65c549f7011c5446f73ede
5,1,1273,arrowright,psychophysics,228,304287,0.0-3.0-0.111,"""",key,arrowright,16.690381578947143,640,304.5,112,5,1,30,35,25,35,true,"2021-08-20 21:57:14",99.233.11.22,"Mozilla/5.0 (Windows NT 10.0; Win64; x64) AppleWebKit/537.36 (KHTML, like Gecko) Chrome/92.0.4515.159 Safari/537.36",WebKit,Chrome,92.0.4515.159,Windows,10.0,fe3c1d035a65c549f7011c5446f73ede
5,1,null,null,psychophysics,229,305289,0.0-3.0-1.111,"""",key,null,16.68893220339077,640,304.5,"""","""","""","""","""","""","""","""","2021-08-20 21:57:14",99.233.11.22,"Mozilla/5.0 (Windows NT 10.0; Win64; x64) AppleWebKit/537.36 (KHTML, like Gecko) Chrome/92.0.4515.159 Safari/537.36",WebKit,Chrome,92.0.4515.159,Windows,10.0,fe3c1d035a65c549f7011c5446f73ede
5,1,810.3999999761581,arrowright,html-keyboard-response,230,306100,0.0-3.0-2.111-0.111,"<div style=""color: white; text-align: center; vertical-align: top; display: inline-block; width: 800px; margin: auto""><p>You have completed 40% of the trials. You are on block 5 of 10. <br>Good job! Take a break if you need to.</p><p>Press any key to continue the experiment.</p></div>","""","""","""","""","""","""","""","""","""","""","""","""","""","2021-08-20 21:57:14",99.233.11.22,"Mozilla/5.0 (Windows NT 10.0; Win64; x64) AppleWebKit/537.36 (KHTML, like Gecko) Chrome/92.0.4515.159 Safari/537.36",WebKit,Chrome,92.0.4515.159,Windows,10.0,fe3c1d035a65c549f7011c5446f73ede
5,1,793.3999999761581,arrowleft,psychophysics,231,307909,0.0-3.0-0.112,"""",key,arrowleft,16.69106250000065,640,304.5,113,5,-1,27,15,25,35,true,"2021-08-20 21:57:14",99.233.11.22,"Mozilla/5.0 (Windows NT 10.0; Win64; x64) AppleWebKit/537.36 (KHTML, like Gecko) Chrome/92.0.4515.159 Safari/537.36",WebKit,Chrome,92.0.4515.159,Windows,10.0,fe3c1d035a65c549f7011c5446f73ede
5,1,null,null,psychophysics,232,308912,0.0-3.0-1.112,"""",key,null,16.683966101694782,640,304.5,"""","""","""","""","""","""","""","""","2021-08-20 21:57:14",99.233.11.22,"Mozilla/5.0 (Windows NT 10.0; Win64; x64) AppleWebKit/537.36 (KHTML, like Gecko) Chrome/92.0.4515.159 Safari/537.36",WebKit,Chrome,92.0.4515.159,Windows,10.0,fe3c1d035a65c549f7011c5446f73ede
5,1,566.6999999880791,arrowleft,psychophysics,233,309481,0.0-3.0-0.113,"""",key,arrowleft,16.685090909091134,640,304.5,114,5,1,23,15,25,35,false,"2021-08-20 21:57:14",99.233.11.22,"Mozilla/5.0 (Windows NT 10.0; Win64; x64) AppleWebKit/537.36 (KHTML, like Gecko) Chrome/92.0.4515.159 Safari/537.36",WebKit,Chrome,92.0.4515.159,Windows,10.0,fe3c1d035a65c549f7011c5446f73ede
5,1,null,null,psychophysics,234,310483,0.0-3.0-1.113,"""",key,null,16.693949152542853,640,304.5,"""","""","""","""","""","""","""","""","2021-08-20 21:57:14",99.233.11.22,"Mozilla/5.0 (Windows NT 10.0; Win64; x64) AppleWebKit/537.36 (KHTML, like Gecko) Chrome/92.0.4515.159 Safari/537.36",WebKit,Chrome,92.0.4515.159,Windows,10.0,fe3c1d035a65c549f7011c5446f73ede
5,1,800.3000000119209,arrowleft,psychophysics,235,311286,0.0-3.0-0.114,"""",key,arrowleft,16.683872340425374,640,304.5,115,5,-1,27,35,25,35,true,"2021-08-20 21:57:14",99.233.11.22,"Mozilla/5.0 (Windows NT 10.0; Win64; x64) AppleWebKit/537.36 (KHTML, like Gecko) Chrome/92.0.4515.159 Safari/537.36",WebKit,Chrome,92.0.4515.159,Windows,10.0,fe3c1d035a65c549f7011c5446f73ede
5,1,null,null,psychophysics,236,312287,0.0-3.0-1.114,"""",key,null,16.687525423728047,640,304.5,"""","""","""","""","""","""","""","""","2021-08-20 21:57:14",99.233.11.22,"Mozilla/5.0 (Windows NT 10.0; Win64; x64) AppleWebKit/537.36 (KHTML, like Gecko) Chrome/92.0.4515.159 Safari/537.36",WebKit,Chrome,92.0.4515.159,Windows,10.0,fe3c1d035a65c549f7011c5446f73ede
5,1,515.8999999761581,arrowright,psychophysics,237,312805,0.0-3.0-0.115,"""",key,arrowright,16.70146666666648,640,304.5,116,5,-1,20,15,25,35,false,"2021-08-20 21:57:14",99.233.11.22,"Mozilla/5.0 (Windows NT 10.0; Win64; x64) AppleWebKit/537.36 (KHTML, like Gecko) Chrome/92.0.4515.159 Safari/537.36",WebKit,Chrome,92.0.4515.159,Windows,10.0,fe3c1d035a65c549f7011c5446f73ede
5,1,null,null,psychophysics,238,313806,0.0-3.0-1.115,"""",key,null,16.69237288135554,640,304.5,"""","""","""","""","""","""","""","""","2021-08-20 21:57:14",99.233.11.22,"Mozilla/5.0 (Windows NT 10.0; Win64; x64) AppleWebKit/537.36 (KHTML, like Gecko) Chrome/92.0.4515.159 Safari/537.36",WebKit,Chrome,92.0.4515.159,Windows,10.0,fe3c1d035a65c549f7011c5446f73ede
5,1,590.7999999523163,arrowright,psychophysics,239,314400,0.0-3.0-0.116,"""",key,arrowright,16.700514285713766,640,304.5,117,5,-1,23,15,25,35,false,"2021-08-20 21:57:14",99.233.11.22,"Mozilla/5.0 (Windows NT 10.0; Win64; x64) AppleWebKit/537.36 (KHTML, like Gecko) Chrome/92.0.4515.159 Safari/537.36",WebKit,Chrome,92.0.4515.159,Windows,10.0,fe3c1d035a65c549f7011c5446f73ede
5,1,null,null,psychophysics,240,315402,0.0-3.0-1.116,"""",key,null,16.688711864407118,640,304.5,"""","""","""","""","""","""","""","""","2021-08-20 21:57:14",99.233.11.22,"Mozilla/5.0 (Windows NT 10.0; Win64; x64) AppleWebKit/537.36 (KHTML, like Gecko) Chrome/92.0.4515.159 Safari/537.36",WebKit,Chrome,92.0.4515.159,Windows,10.0,fe3c1d035a65c549f7011c5446f73ede
5,1,721.3999999761581,arrowleft,psychophysics,241,316126,0.0-3.0-0.117,"""",key,arrowleft,16.67283333333381,640,304.5,118,5,1,23,35,25,35,false,"2021-08-20 21:57:14",99.233.11.22,"Mozilla/5.0 (Windows NT 10.0; Win64; x64) AppleWebKit/537.36 (KHTML, like Gecko) Chrome/92.0.4515.159 Safari/537.36",WebKit,Chrome,92.0.4515.159,Windows,10.0,fe3c1d035a65c549f7011c5446f73ede
5,1,null,null,psychophysics,242,317127,0.0-3.0-1.117,"""",key,null,16.685983050847426,640,304.5,"""","""","""","""","""","""","""","""","2021-08-20 21:57:14",99.233.11.22,"Mozilla/5.0 (Windows NT 10.0; Win64; x64) AppleWebKit/537.36 (KHTML, like Gecko) Chrome/92.0.4515.159 Safari/537.36",WebKit,Chrome,92.0.4515.159,Windows,10.0,fe3c1d035a65c549f7011c5446f73ede
5,1,657.3000000119209,arrowleft,psychophysics,243,317788,0.0-3.0-0.118,"""",key,arrowleft,16.69476923076824,640,304.5,119,5,-1,27,35,25,35,true,"2021-08-20 21:57:14",99.233.11.22,"Mozilla/5.0 (Windows NT 10.0; Win64; x64) AppleWebKit/537.36 (KHTML, like Gecko) Chrome/92.0.4515.159 Safari/537.36",WebKit,Chrome,92.0.4515.159,Windows,10.0,fe3c1d035a65c549f7011c5446f73ede
5,1,null,null,psychophysics,244,318790,0.0-3.0-1.118,"""",key,null,16.69279661016949,640,304.5,"""","""","""","""","""","""","""","""","2021-08-20 21:57:14",99.233.11.22,"Mozilla/5.0 (Windows NT 10.0; Win64; x64) AppleWebKit/537.36 (KHTML, like Gecko) Chrome/92.0.4515.159 Safari/537.36",WebKit,Chrome,92.0.4515.159,Windows,10.0,fe3c1d035a65c549f7011c5446f73ede
5,1,765.6000000238419,arrowleft,psychophysics,245,319558,0.0-3.0-0.119,"""",key,arrowleft,16.685222222222688,640,304.5,120,5,-1,26,35,25,35,true,"2021-08-20 21:57:14",99.233.11.22,"Mozilla/5.0 (Windows NT 10.0; Win64; x64) AppleWebKit/537.36 (KHTML, like Gecko) Chrome/92.0.4515.159 Safari/537.36",WebKit,Chrome,92.0.4515.159,Windows,10.0,fe3c1d035a65c549f7011c5446f73ede
5,1,null,null,psychophysics,246,320559,0.0-3.0-1.119,"""",key,null,16.686661016948765,640,304.5,"""","""","""","""","""","""","""","""","2021-08-20 21:57:14",99.233.11.22,"Mozilla/5.0 (Windows NT 10.0; Win64; x64) AppleWebKit/537.36 (KHTML, like Gecko) Chrome/92.0.4515.159 Safari/537.36",WebKit,Chrome,92.0.4515.159,Windows,10.0,fe3c1d035a65c549f7011c5446f73ede
5,1,938.8000000119209,arrowright,psychophysics,247,321500,0.0-3.0-0.120,"""",key,arrowright,16.680285714286065,640,304.5,121,5,-1,23,35,25,35,false,"2021-08-20 21:57:14",99.233.11.22,"Mozilla/5.0 (Windows NT 10.0; Win64; x64) AppleWebKit/537.36 (KHTML, like Gecko) Chrome/92.0.4515.159 Safari/537.36",WebKit,Chrome,92.0.4515.159,Windows,10.0,fe3c1d035a65c549f7011c5446f73ede
5,1,null,null,psychophysics,248,322502,0.0-3.0-1.120,"""",key,null,16.685254237288017,640,304.5,"""","""","""","""","""","""","""","""","2021-08-20 21:57:14",99.233.11.22,"Mozilla/5.0 (Windows NT 10.0; Win64; x64) AppleWebKit/537.36 (KHTML, like Gecko) Chrome/92.0.4515.159 Safari/537.36",WebKit,Chrome,92.0.4515.159,Windows,10.0,fe3c1d035a65c549f7011c5446f73ede
5,1,871.8000000119209,arrowleft,psychophysics,249,323377,0.0-3.0-0.121,"""",key,arrowleft,16.687235294117627,640,304.5,122,5,1,20,35,25,35,false,"2021-08-20 21:57:14",99.233.11.22,"Mozilla/5.0 (Windows NT 10.0; Win64; x64) AppleWebKit/537.36 (KHTML, like Gecko) Chrome/92.0.4515.159 Safari/537.36",WebKit,Chrome,92.0.4515.159,Windows,10.0,fe3c1d035a65c549f7011c5446f73ede
5,1,null,null,psychophysics,250,324378,0.0-3.0-1.121,"""",key,null,16.691508474576256,640,304.5,"""","""","""","""","""","""","""","""","2021-08-20 21:57:14",99.233.11.22,"Mozilla/5.0 (Windows NT 10.0; Win64; x64) AppleWebKit/537.36 (KHTML, like Gecko) Chrome/92.0.4515.159 Safari/537.36",WebKit,Chrome,92.0.4515.159,Windows,10.0,fe3c1d035a65c549f7011c5446f73ede
5,1,588.1000000238419,arrowleft,psychophysics,251,324969,0.0-3.0-0.122,"""",key,arrowleft,16.70097058823654,640,304.5,123,5,1,25,15,25,35,false,"2021-08-20 21:57:14",99.233.11.22,"Mozilla/5.0 (Windows NT 10.0; Win64; x64) AppleWebKit/537.36 (KHTML, like Gecko) Chrome/92.0.4515.159 Safari/537.36",WebKit,Chrome,92.0.4515.159,Windows,10.0,fe3c1d035a65c549f7011c5446f73ede
5,1,null,null,psychophysics,252,325971,0.0-3.0-1.122,"""",key,null,16.693915254237147,640,304.5,"""","""","""","""","""","""","""","""","2021-08-20 21:57:14",99.233.11.22,"Mozilla/5.0 (Windows NT 10.0; Win64; x64) AppleWebKit/537.36 (KHTML, like Gecko) Chrome/92.0.4515.159 Safari/537.36",WebKit,Chrome,92.0.4515.159,Windows,10.0,fe3c1d035a65c549f7011c5446f73ede
5,1,663.1999999880791,arrowleft,psychophysics,253,326638,0.0-3.0-0.123,"""",key,arrowleft,16.67841025640985,640,304.5,124,5,1,20,15,25,35,false,"2021-08-20 21:57:14",99.233.11.22,"Mozilla/5.0 (Windows NT 10.0; Win64; x64) AppleWebKit/537.36 (KHTML, like Gecko) Chrome/92.0.4515.159 Safari/537.36",WebKit,Chrome,92.0.4515.159,Windows,10.0,fe3c1d035a65c549f7011c5446f73ede
5,1,null,null,psychophysics,254,327639,0.0-3.0-1.123,"""",key,null,16.69091525423672,640,304.5,"""","""","""","""","""","""","""","""","2021-08-20 21:57:14",99.233.11.22,"Mozilla/5.0 (Windows NT 10.0; Win64; x64) AppleWebKit/537.36 (KHTML, like Gecko) Chrome/92.0.4515.159 Safari/537.36",WebKit,Chrome,92.0.4515.159,Windows,10.0,fe3c1d035a65c549f7011c5446f73ede
5,1,712.3000000119209,arrowright,psychophysics,255,328355,0.0-3.0-0.124,"""",key,arrowright,16.68983333333329,640,304.5,125,5,-1,24,35,25,35,false,"2021-08-20 21:57:14",99.233.11.22,"Mozilla/5.0 (Windows NT 10.0; Win64; x64) AppleWebKit/537.36 (KHTML, like Gecko) Chrome/92.0.4515.159 Safari/537.36",WebKit,Chrome,92.0.4515.159,Windows,10.0,fe3c1d035a65c549f7011c5446f73ede
5,1,null,null,psychophysics,256,329358,0.0-3.0-1.124,"""",key,null,16.692491525424035,640,304.5,"""","""","""","""","""","""","""","""","2021-08-20 21:57:14",99.233.11.22,"Mozilla/5.0 (Windows NT 10.0; Win64; x64) AppleWebKit/537.36 (KHTML, like Gecko) Chrome/92.0.4515.159 Safari/537.36",WebKit,Chrome,92.0.4515.159,Windows,10.0,fe3c1d035a65c549f7011c5446f73ede
5,1,610.2000000476837,arrowleft,psychophysics,257,329972,0.0-3.0-0.125,"""",key,arrowleft,16.683666666665683,640,304.5,126,5,-1,30,35,25,35,true,"2021-08-20 21:57:14",99.233.11.22,"Mozilla/5.0 (Windows NT 10.0; Win64; x64) AppleWebKit/537.36 (KHTML, like Gecko) Chrome/92.0.4515.159 Safari/537.36",WebKit,Chrome,92.0.4515.159,Windows,10.0,fe3c1d035a65c549f7011c5446f73ede
5,1,null,null,psychophysics,258,330974,0.0-3.0-1.125,"""",key,null,16.688135593219943,640,304.5,"""","""","""","""","""","""","""","""","2021-08-20 21:57:14",99.233.11.22,"Mozilla/5.0 (Windows NT 10.0; Win64; x64) AppleWebKit/537.36 (KHTML, like Gecko) Chrome/92.0.4515.159 Safari/537.36",WebKit,Chrome,92.0.4515.159,Windows,10.0,fe3c1d035a65c549f7011c5446f73ede
5,1,718,arrowright,psychophysics,259,331695,0.0-3.0-0.126,"""",key,arrowright,16.67893023255855,640,304.5,127,5,1,30,35,25,35,true,"2021-08-20 21:57:14",99.233.11.22,"Mozilla/5.0 (Windows NT 10.0; Win64; x64) AppleWebKit/537.36 (KHTML, like Gecko) Chrome/92.0.4515.159 Safari/537.36",WebKit,Chrome,92.0.4515.159,Windows,10.0,fe3c1d035a65c549f7011c5446f73ede
5,1,null,null,psychophysics,260,332696,0.0-3.0-1.126,"""",key,null,16.682389830508452,640,304.5,"""","""","""","""","""","""","""","""","2021-08-20 21:57:14",99.233.11.22,"Mozilla/5.0 (Windows NT 10.0; Win64; x64) AppleWebKit/537.36 (KHTML, like Gecko) Chrome/92.0.4515.159 Safari/537.36",WebKit,Chrome,92.0.4515.159,Windows,10.0,fe3c1d035a65c549f7011c5446f73ede
5,1,1044.699999988079,arrowright,psychophysics,261,333743,0.0-3.0-0.127,"""",key,arrowright,16.69111475409829,640,304.5,128,5,1,26,15,25,35,true,"2021-08-20 21:57:14",99.233.11.22,"Mozilla/5.0 (Windows NT 10.0; Win64; x64) AppleWebKit/537.36 (KHTML, like Gecko) Chrome/92.0.4515.159 Safari/537.36",WebKit,Chrome,92.0.4515.159,Windows,10.0,fe3c1d035a65c549f7011c5446f73ede
5,1,null,null,psychophysics,262,334744,0.0-3.0-1.127,"""",key,null,16.685135593220505,640,304.5,"""","""","""","""","""","""","""","""","2021-08-20 21:57:14",99.233.11.22,"Mozilla/5.0 (Windows NT 10.0; Win64; x64) AppleWebKit/537.36 (KHTML, like Gecko) Chrome/92.0.4515.159 Safari/537.36",WebKit,Chrome,92.0.4515.159,Windows,10.0,fe3c1d035a65c549f7011c5446f73ede
5,1,722.6000000238419,arrowleft,psychophysics,263,335469,0.0-3.0-0.128,"""",key,arrowleft,16.696255813952437,640,304.5,129,5,1,20,35,25,35,false,"2021-08-20 21:57:14",99.233.11.22,"Mozilla/5.0 (Windows NT 10.0; Win64; x64) AppleWebKit/537.36 (KHTML, like Gecko) Chrome/92.0.4515.159 Safari/537.36",WebKit,Chrome,92.0.4515.159,Windows,10.0,fe3c1d035a65c549f7011c5446f73ede
5,1,null,null,psychophysics,264,336470,0.0-3.0-1.128,"""",key,null,16.684355932203026,640,304.5,"""","""","""","""","""","""","""","""","2021-08-20 21:57:14",99.233.11.22,"Mozilla/5.0 (Windows NT 10.0; Win64; x64) AppleWebKit/537.36 (KHTML, like Gecko) Chrome/92.0.4515.159 Safari/537.36",WebKit,Chrome,92.0.4515.159,Windows,10.0,fe3c1d035a65c549f7011c5446f73ede
5,1,910.8000000119209,arrowright,psychophysics,265,337383,0.0-3.0-0.129,"""",key,arrowright,16.68184905660444,640,304.5,130,5,1,23,15,25,35,true,"2021-08-20 21:57:14",99.233.11.22,"Mozilla/5.0 (Windows NT 10.0; Win64; x64) AppleWebKit/537.36 (KHTML, like Gecko) Chrome/92.0.4515.159 Safari/537.36",WebKit,Chrome,92.0.4515.159,Windows,10.0,fe3c1d035a65c549f7011c5446f73ede
5,1,null,null,psychophysics,266,338385,0.0-3.0-1.129,"""",key,null,16.68881355932227,640,304.5,"""","""","""","""","""","""","""","""","2021-08-20 21:57:14",99.233.11.22,"Mozilla/5.0 (Windows NT 10.0; Win64; x64) AppleWebKit/537.36 (KHTML, like Gecko) Chrome/92.0.4515.159 Safari/537.36",WebKit,Chrome,92.0.4515.159,Windows,10.0,fe3c1d035a65c549f7011c5446f73ede
5,1,566.4000000357628,arrowleft,psychophysics,267,338955,0.0-3.0-0.130,"""",key,arrowleft,16.68326470588149,640,304.5,131,5,-1,30,15,25,35,true,"2021-08-20 21:57:14",99.233.11.22,"Mozilla/5.0 (Windows NT 10.0; Win64; x64) AppleWebKit/537.36 (KHTML, like Gecko) Chrome/92.0.4515.159 Safari/537.36",WebKit,Chrome,92.0.4515.159,Windows,10.0,fe3c1d035a65c549f7011c5446f73ede
5,1,null,null,psychophysics,268,339957,0.0-3.0-1.130,"""",key,null,16.687677966102257,640,304.5,"""","""","""","""","""","""","""","""","2021-08-20 21:57:14",99.233.11.22,"Mozilla/5.0 (Windows NT 10.0; Win64; x64) AppleWebKit/537.36 (KHTML, like Gecko) Chrome/92.0.4515.159 Safari/537.36",WebKit,Chrome,92.0.4515.159,Windows,10.0,fe3c1d035a65c549f7011c5446f73ede
